Letter,CorrAnswer,Stimulus,nback_run.thisRepN,nback_run.thisTrialN,nback_run.thisN,nback_run.thisIndex,fixcross.started,nback_trial.started,trial_resp.keys,trial_resp.corr,currentlevel,trial_resp.rt,Participant,date,expName,psychopyVersion,frameRate,
H,left,Distractor,0,0,0,0,869.4215259828488,871.3686007690849,left,1,1,0.644084048748482,T18N09,2022-11-23_14h26.17.836,t1_Paradigm,2021.1.4,59.987741460574746,
Q,left,Pretarget,0,1,1,1,872.8685438268003,874.8700326672406,left,1,1,0.9664123885740992,T18N09,2022-11-23_14h26.17.836,t1_Paradigm,2021.1.4,59.987741460574746,
Q,right,Target,0,2,2,2,876.3658178148326,878.3658017747512,right,1,1,0.5586446258821525,T18N09,2022-11-23_14h26.17.836,t1_Paradigm,2021.1.4,59.987741460574746,
T,left,Distractor,0,3,3,3,879.8657522108988,881.8677912261337,left,1,1,0.6088866546924692,T18N09,2022-11-23_14h26.17.836,t1_Paradigm,2021.1.4,59.987741460574746,
Q,left,Lure,0,4,4,4,883.3657626369386,885.3670769612654,left,1,1,0.5975376549176872,T18N09,2022-11-23_14h26.17.836,t1_Paradigm,2021.1.4,59.987741460574746,
L,left,Distractor,0,5,5,5,886.865136913344,888.867293662799,left,1,1,0.6010767386469524,T18N09,2022-11-23_14h26.17.836,t1_Paradigm,2021.1.4,59.987741460574746,
V,left,Pretarget,0,6,6,6,890.3657145166944,892.3685276263277,left,1,1,0.603873166575795,T18N09,2022-11-23_14h26.17.836,t1_Paradigm,2021.1.4,59.987741460574746,
V,right,Target,0,7,7,7,893.8661843306909,895.8659578447405,right,1,1,0.48298901156522334,T18N09,2022-11-23_14h26.17.836,t1_Paradigm,2021.1.4,59.987741460574746,
K,left,Distractor,0,8,8,8,897.3657286319649,899.3679950955848,left,1,1,0.5965694755141158,T18N09,2022-11-23_14h26.17.836,t1_Paradigm,2021.1.4,59.987741460574746,
G,left,Pretarget,0,9,9,9,900.8657737046015,902.8680440178432,left,1,1,0.6323000419361051,T18N09,2022-11-23_14h26.17.836,t1_Paradigm,2021.1.4,59.987741460574746,
G,right,Target,0,10,10,10,904.3658190980204,906.365765524155,right,1,1,0.5106267148803454,T18N09,2022-11-23_14h26.17.836,t1_Paradigm,2021.1.4,59.987741460574746,
G,right,Target,0,11,11,11,907.8659847920644,909.8659087620908,right,1,1,0.7224953491822816,T18N09,2022-11-23_14h26.17.836,t1_Paradigm,2021.1.4,59.987741460574746,
P,left,Pretarget,0,12,12,12,911.3657507672906,913.3674513367878,left,1,1,0.548714210948674,T18N09,2022-11-23_14h26.17.836,t1_Paradigm,2021.1.4,59.987741460574746,
P,right,Target,0,13,13,13,914.865614907787,916.8659196693334,right,1,1,0.6023965165950358,T18N09,2022-11-23_14h26.17.836,t1_Paradigm,2021.1.4,59.987741460574746,
G,left,Lure,0,14,14,14,918.3657902258856,920.3664266963315,left,1,1,0.6700025760219432,T18N09,2022-11-23_14h26.17.836,t1_Paradigm,2021.1.4,59.987741460574746,
Y,left,Distractor,0,15,15,15,921.8659299350111,923.8679907647602,left,1,1,0.6564535185752902,T18N09,2022-11-23_14h26.17.836,t1_Paradigm,2021.1.4,59.987741460574746,
B,left,Distractor,0,16,16,16,925.3658932032122,927.3676592162519,left,1,1,0.5807452927983832,T18N09,2022-11-23_14h26.17.836,t1_Paradigm,2021.1.4,59.987741460574746,
T,left,Pretarget,0,17,17,17,928.8656351182726,930.8681758673047,left,1,1,0.5682247254299,T18N09,2022-11-23_14h26.17.836,t1_Paradigm,2021.1.4,59.987741460574746,
T,right,Target,0,18,18,18,932.3657058550452,934.3656760205049,right,1,1,0.6546275156142656,T18N09,2022-11-23_14h26.17.836,t1_Paradigm,2021.1.4,59.987741460574746,
S,left,Distractor,0,19,19,19,935.8659344262269,937.8688415307261,left,1,1,0.5595775170659181,T18N09,2022-11-23_14h26.17.836,t1_Paradigm,2021.1.4,59.987741460574746,
T,left,Lure,0,20,20,20,939.3657020054234,941.3671632569167,left,1,1,0.6931423194764648,T18N09,2022-11-23_14h26.17.836,t1_Paradigm,2021.1.4,59.987741460574746,
J,left,Distractor,0,21,21,21,942.8658798899269,944.8677633164043,left,1,1,0.6811010297678877,T18N09,2022-11-23_14h26.17.836,t1_Paradigm,2021.1.4,59.987741460574746,
P,left,Distractor,0,22,22,22,946.3656102561508,948.3675732414122,left,1,1,0.588839118310716,T18N09,2022-11-23_14h26.17.836,t1_Paradigm,2021.1.4,59.987741460574746,
F,left,Distractor,0,23,23,23,949.8657534940867,951.8675945747236,left,1,1,0.624804832303198,T18N09,2022-11-23_14h26.17.836,t1_Paradigm,2021.1.4,59.987741460574746,
L,left,Distractor,0,24,24,24,953.3657366520201,955.3672149059712,left,1,1,0.5649470950011164,T18N09,2022-11-23_14h26.17.836,t1_Paradigm,2021.1.4,59.987741460574746,
W,left,Pretarget,0,25,25,25,956.8656206822197,958.867717762565,left,1,1,0.6005788545007817,T18N09,2022-11-23_14h26.17.836,t1_Paradigm,2021.1.4,59.987741460574746,
W,right,Target,0,26,26,26,960.3658534238057,962.3654982963926,right,1,1,0.622761325823376,T18N09,2022-11-23_14h26.17.836,t1_Paradigm,2021.1.4,59.987741460574746,
V,left,Distractor,0,27,27,27,963.8656713688688,965.867876238568,left,1,1,0.608724329067627,T18N09,2022-11-23_14h26.17.836,t1_Paradigm,2021.1.4,59.987741460574746,
W,left,Lure,0,28,28,28,967.3656516395567,969.3672678382427,left,1,1,0.6131026298971847,T18N09,2022-11-23_14h26.17.836,t1_Paradigm,2021.1.4,59.987741460574746,
R,left,Pretarget,0,29,29,29,970.8657778750057,972.8694978909043,left,1,1,0.598773382807849,T18N09,2022-11-23_14h26.17.836,t1_Paradigm,2021.1.4,59.987741460574746,
R,right,Target,0,30,30,30,974.3656734540709,976.3656891733699,right,1,1,0.5426440022420138,T18N09,2022-11-23_14h26.17.836,t1_Paradigm,2021.1.4,59.987741460574746,
G,left,Distractor,0,31,31,31,977.8658824563609,979.8672124999866,left,1,1,0.5770730763615575,T18N09,2022-11-23_14h26.17.836,t1_Paradigm,2021.1.4,59.987741460574746,
R,left,Lure,0,32,32,32,981.3657071382622,983.3676662739017,left,1,1,0.6127689961867873,T18N09,2022-11-23_14h26.17.836,t1_Paradigm,2021.1.4,59.987741460574746,
S,left,Distractor,0,33,33,33,984.8657672885747,986.8680985541141,left,1,1,0.6321130145515781,T18N09,2022-11-23_14h26.17.836,t1_Paradigm,2021.1.4,59.987741460574746,
R,left,Lure,0,34,34,34,988.3656169929891,990.3674288806797,left,1,1,0.9091508990095463,T18N09,2022-11-23_14h26.17.836,t1_Paradigm,2021.1.4,59.987741460574746,
P,left,Pretarget,0,35,35,35,991.8655921308673,993.8679352660838,left,1,1,0.8808279633813072,T18N09,2022-11-23_14h26.17.836,t1_Paradigm,2021.1.4,59.987741460574746,
P,right,Target,0,36,36,36,995.3655361509882,997.3656189178,right,1,1,0.5345614048128482,T18N09,2022-11-23_14h26.17.836,t1_Paradigm,2021.1.4,59.987741460574746,
Y,left,Pretarget,0,37,37,37,998.865575449192,1000.8670004500891,left,1,1,0.6332569932274055,T18N09,2022-11-23_14h26.17.836,t1_Paradigm,2021.1.4,59.987741460574746,
Y,right,Target,0,38,38,38,1002.3655724015553,1004.3656307874771,right,1,1,0.5746179813868366,T18N09,2022-11-23_14h26.17.836,t1_Paradigm,2021.1.4,59.987741460574746,
J,left,Distractor,0,39,39,39,1005.8658205416286,1007.8680818724388,left,1,1,0.5443128124170471,T18N09,2022-11-23_14h26.17.836,t1_Paradigm,2021.1.4,59.987741460574746,
Y,left,Lure,0,40,40,40,1009.3649150790006,1011.3668572121533,left,1,1,0.6933460285072215,T18N09,2022-11-23_14h26.17.836,t1_Paradigm,2021.1.4,59.987741460574746,
T,left,Distractor,0,41,41,41,1012.8659097244963,1014.8675945747236,left,1,1,0.5846632432949264,T18N09,2022-11-23_14h26.17.836,t1_Paradigm,2021.1.4,59.987741460574746,
V,left,Distractor,0,42,42,42,1016.3656522811798,1018.3671254023211,left,1,1,0.5571429533883929,T18N09,2022-11-23_14h26.17.836,t1_Paradigm,2021.1.4,59.987741460574746,
N,left,Pretarget,0,43,43,43,1019.8658737947117,1021.8677036472945,left,1,1,0.656630921876058,T18N09,2022-11-23_14h26.17.836,t1_Paradigm,2021.1.4,59.987741460574746,
N,right,Target,0,44,44,44,1023.3654684618232,1025.3655685519334,right,1,1,0.48684665135806426,T18N09,2022-11-23_14h26.17.836,t1_Paradigm,2021.1.4,59.987741460574746,
N,right,Target,0,45,45,45,1026.8657143563032,1028.865692541789,right,1,1,0.6666139482695144,T18N09,2022-11-23_14h26.17.836,t1_Paradigm,2021.1.4,59.987741460574746,
X,left,Distractor,0,46,46,46,1030.3655618150951,1032.3684718068398,left,1,1,0.5878199314756785,T18N09,2022-11-23_14h26.17.836,t1_Paradigm,2021.1.4,59.987741460574746,
Z,left,Distractor,0,47,47,47,1033.8656322310562,1035.8674957678304,left,1,1,0.5767827508680057,T18N09,2022-11-23_14h26.17.836,t1_Paradigm,2021.1.4,59.987741460574746,
H,left,Pretarget,0,48,48,48,1037.3654444017156,1039.3675187051413,left,1,1,0.532685035985196,T18N09,2022-11-23_14h26.17.836,t1_Paradigm,2021.1.4,59.987741460574746,
H,right,Target,0,49,49,49,1040.865705053031,1042.8656184365973,right,1,1,0.5385919566615485,T18N09,2022-11-23_14h26.17.836,t1_Paradigm,2021.1.4,59.987741460574746,
K,left,Distractor,0,50,50,50,1044.3655464166368,1046.3674006501387,left,1,1,0.6849625191243831,T18N09,2022-11-23_14h26.17.836,t1_Paradigm,2021.1.4,59.987741460574746,
V,left,Pretarget,0,51,51,51,1047.865797123115,1049.8674566300178,left,1,1,0.5448684408329427,T18N09,2022-11-23_14h26.17.836,t1_Paradigm,2021.1.4,59.987741460574746,
V,right,Target,0,52,52,52,1051.3657251031545,1053.364757565374,right,1,1,0.583285079424968,T18N09,2022-11-23_14h26.17.836,t1_Paradigm,2021.1.4,59.987741460574746,
R,left,Distractor,0,53,53,53,1054.86572077233,1056.8675320183975,left,1,1,0.5366626555914991,T18N09,2022-11-23_14h26.17.836,t1_Paradigm,2021.1.4,59.987741460574746,
V,left,Lure,0,54,54,54,1058.3654658954183,1060.3673862140568,left,1,1,0.5567948835960124,T18N09,2022-11-23_14h26.17.836,t1_Paradigm,2021.1.4,59.987741460574746,
Y,left,Distractor,0,55,55,55,1061.8655250833253,1063.86708129209,left,1,1,0.641198758763494,T18N09,2022-11-23_14h26.17.836,t1_Paradigm,2021.1.4,59.987741460574746,
Q,left,Distractor,0,56,56,56,1065.365499258798,1067.367551426898,left,1,1,0.5165317107748706,T18N09,2022-11-23_14h26.17.836,t1_Paradigm,2021.1.4,59.987741460574746,
Z,left,Pretarget,0,57,57,57,1068.8655882812454,1070.867279868311,left,1,1,0.6008573102881201,T18N09,2022-11-23_14h26.17.836,t1_Paradigm,2021.1.4,59.987741460574746,
Z,right,Target,0,58,58,58,1072.3654418352817,1074.3655996696907,right,1,1,0.5265599701669998,T18N09,2022-11-23_14h26.17.836,t1_Paradigm,2021.1.4,59.987741460574746,
B,left,Distractor,0,59,59,59,1075.8656174741918,1077.8675451712916,left,1,1,0.5288017320854124,T18N09,2022-11-23_14h26.17.836,t1_Paradigm,2021.1.4,59.987741460574746,
S,left,Pretarget,0,60,60,60,1079.3655717599613,1081.367129893537,left,1,1,0.6451606590417214,T18N09,2022-11-23_14h26.17.836,t1_Paradigm,2021.1.4,59.987741460574746,
S,right,Target,0,61,61,61,1082.8656370430836,1084.8655837900296,right,1,1,0.7147245709202252,T18N09,2022-11-23_14h26.17.836,t1_Paradigm,2021.1.4,59.987741460574746,
T,left,Distractor,0,62,62,62,1086.3654838603106,1088.366930675722,left,1,1,0.5572491387429181,T18N09,2022-11-23_14h26.17.836,t1_Paradigm,2021.1.4,59.987741460574746,
D,left,Distractor,0,63,63,63,1089.8657085818704,1091.86740081053,left,1,1,0.5289284487371333,T18N09,2022-11-23_14h26.17.836,t1_Paradigm,2021.1.4,59.987741460574746,
R,left,Distractor,0,0,0,0,1101.6560833134572,1103.6674692054512,left,1,1,0.6646500006027054,T18N09,2022-11-23_14h26.17.836,t1_Paradigm,2021.1.4,59.987741460574746,
V,left,Distractor,0,1,1,1,1105.1655551424483,1107.166980464157,left,1,1,0.605222137470264,T18N09,2022-11-23_14h26.17.836,t1_Paradigm,2021.1.4,59.987741460574746,
N,left,Pretarget,0,2,2,2,1108.6655052577844,1110.6674291052332,left,1,1,0.5448809521039948,T18N09,2022-11-23_14h26.17.836,t1_Paradigm,2021.1.4,59.987741460574746,
N,right,Target,0,3,3,3,1112.1654967565264,1114.165604225098,right,1,1,0.502511074882932,T18N09,2022-11-23_14h26.17.836,t1_Paradigm,2021.1.4,59.987741460574746,
S,left,Distractor,0,4,4,4,1115.66477062201,1117.6666161938629,left,1,1,0.601489610329736,T18N09,2022-11-23_14h26.17.836,t1_Paradigm,2021.1.4,59.987741460574746,
N,left,Lure,0,5,5,5,1119.1654746212298,1121.1671594714571,left,1,1,0.5890656042611226,T18N09,2022-11-23_14h26.17.836,t1_Paradigm,2021.1.4,59.987741460574746,
Z,left,Distractor,0,6,6,6,1122.6653531978081,1124.6672346994455,left,1,1,0.5450862651632633,T18N09,2022-11-23_14h26.17.836,t1_Paradigm,2021.1.4,59.987741460574746,
L,left,Pretarget,0,7,7,7,1126.1654415786616,1128.1671572258638,left,1,1,0.5169272591883782,T18N09,2022-11-23_14h26.17.836,t1_Paradigm,2021.1.4,59.987741460574746,
L,right,Target,0,8,8,8,1129.6654776688374,1131.6655020497565,right,1,1,0.5385640469321515,T18N09,2022-11-23_14h26.17.836,t1_Paradigm,2021.1.4,59.987741460574746,
H,left,Distractor,0,9,9,9,1133.165508305392,1135.1671716619167,left,1,1,0.5889918198809028,T18N09,2022-11-23_14h26.17.836,t1_Paradigm,2021.1.4,59.987741460574746,
L,left,Lure,0,10,10,10,1136.665419603727,1138.6667567050026,left,1,1,0.5454821343882941,T18N09,2022-11-23_14h26.17.836,t1_Paradigm,2021.1.4,59.987741460574746,
X,left,Pretarget,0,11,11,11,1140.1654008368496,1142.167047511699,left,1,1,0.5330042336427141,T18N09,2022-11-23_14h26.17.836,t1_Paradigm,2021.1.4,59.987741460574746,
X,right,Target,0,12,12,12,1143.66546227035,1145.6654917841079,right,1,1,0.5225971074542031,T18N09,2022-11-23_14h26.17.836,t1_Paradigm,2021.1.4,59.987741460574746,
X,right,Target,0,13,13,13,1147.1654467114713,1149.1655580296356,right,1,1,0.6065261961775832,T18N09,2022-11-23_14h26.17.836,t1_Paradigm,2021.1.4,59.987741460574746,
R,left,Distractor,0,14,14,14,1150.6655020497565,1152.6669828701415,left,1,1,0.5930724168138113,T18N09,2022-11-23_14h26.17.836,t1_Paradigm,2021.1.4,59.987741460574746,
T,left,Distractor,0,15,15,15,1154.1653132579813,1156.167239671864,left,1,1,0.6289816697244532,T18N09,2022-11-23_14h26.17.836,t1_Paradigm,2021.1.4,59.987741460574746,
V,left,Pretarget,0,16,16,16,1157.6654840848641,1159.6676331350754,left,1,1,0.5684749506763183,T18N09,2022-11-23_14h26.17.836,t1_Paradigm,2021.1.4,59.987741460574746,
V,right,Target,0,17,17,17,1161.1654704507964,1163.165375493525,right,1,1,0.4946928179706447,T18N09,2022-11-23_14h26.17.836,t1_Paradigm,2021.1.4,59.987741460574746,
N,left,Distractor,0,18,18,18,1164.665292566293,1166.6665276526182,left,1,1,0.5935247471206822,T18N09,2022-11-23_14h26.17.836,t1_Paradigm,2021.1.4,59.987741460574746,
B,left,Distractor,0,19,19,19,1168.165390571201,1170.167470969871,left,1,1,0.6925956734630745,T18N09,2022-11-23_14h26.17.836,t1_Paradigm,2021.1.4,59.987741460574746,
V,left,Lure,0,20,20,20,1171.665553057217,1173.667225717014,left,1,1,0.6813621622568462,T18N09,2022-11-23_14h26.17.836,t1_Paradigm,2021.1.4,59.987741460574746,
P,left,Distractor,0,21,21,21,1175.1653539997933,1177.1666160334717,left,1,1,0.5575474842335097,T18N09,2022-11-23_14h26.17.836,t1_Paradigm,2021.1.4,59.987741460574746,
K,left,Pretarget,0,22,22,22,1178.6653968268365,1180.6667932763812,left,1,1,0.5772896174748894,T18N09,2022-11-23_14h26.17.836,t1_Paradigm,2021.1.4,59.987741460574746,
K,right,Target,0,23,23,23,1182.165376135119,1184.1654508819047,right,1,1,0.56674839623156,T18N09,2022-11-23_14h26.17.836,t1_Paradigm,2021.1.4,59.987741460574746,
J,left,Pretarget,0,24,24,24,1185.6653461401584,1187.6643859808391,left,1,1,0.5876617762551177,T18N09,2022-11-23_14h26.17.836,t1_Paradigm,2021.1.4,59.987741460574746,
J,right,Target,0,25,25,25,1189.165400516038,1191.1653411677398,right,1,1,0.5109831255394965,T18N09,2022-11-23_14h26.17.836,t1_Paradigm,2021.1.4,59.987741460574746,
H,left,Distractor,0,26,26,26,1192.6653284960776,1194.6674833207217,left,1,1,0.5765588313224725,T18N09,2022-11-23_14h26.17.836,t1_Paradigm,2021.1.4,59.987741460574746,
J,left,Lure,0,27,27,27,1196.1653934584174,1198.167575551197,left,1,1,0.5809631171287037,T18N09,2022-11-23_14h26.17.836,t1_Paradigm,2021.1.4,59.987741460574746,
V,left,Distractor,0,28,28,28,1199.665407092485,1201.6668513414916,left,1,1,0.5371730510087218,T18N09,2022-11-23_14h26.17.836,t1_Paradigm,2021.1.4,59.987741460574746,
Z,left,Pretarget,0,29,29,29,1203.1654495986877,1205.1644342614745,left,1,1,0.5596862688253168,T18N09,2022-11-23_14h26.17.836,t1_Paradigm,2021.1.4,59.987741460574746,
Z,right,Target,0,30,30,30,1206.6653740499169,1208.6655309219204,right,1,1,0.514654379512649,T18N09,2022-11-23_14h26.17.836,t1_Paradigm,2021.1.4,59.987741460574746,
T,left,Distractor,0,31,31,31,1210.1653267316578,1212.1671540178359,left,1,1,0.6290201659139711,T18N09,2022-11-23_14h26.17.836,t1_Paradigm,2021.1.4,59.987741460574746,
Z,left,Lure,0,32,32,32,1213.665356405807,1215.667066599388,left,1,1,0.6650882156391162,T18N09,2022-11-23_14h26.17.836,t1_Paradigm,2021.1.4,59.987741460574746,
F,left,Distractor,0,33,33,33,1217.165312937199,1219.1670853662945,left,1,1,0.8290602019405924,T18N09,2022-11-23_14h26.17.836,t1_Paradigm,2021.1.4,59.987741460574746,
Y,left,Pretarget,0,34,34,34,1220.6652951326978,1222.6664112016151,left,1,1,0.5457176028285176,T18N09,2022-11-23_14h26.17.836,t1_Paradigm,2021.1.4,59.987741460574746,
Y,right,Target,0,35,35,35,1224.1653973080392,1226.1654050072539,right,1,1,0.5025360974250361,T18N09,2022-11-23_14h26.17.836,t1_Paradigm,2021.1.4,59.987741460574746,
Y,right,Target,0,36,36,36,1227.6652482956706,1229.6653352329158,right,1,1,0.7786510355072096,T18N09,2022-11-23_14h26.17.836,t1_Paradigm,2021.1.4,59.987741460574746,
W,left,Distractor,0,37,37,37,1231.1653299396858,1233.1669394015335,left,1,1,0.6690629480290227,T18N09,2022-11-23_14h26.17.836,t1_Paradigm,2021.1.4,59.987741460574746,
Q,left,Distractor,0,38,38,38,1234.6653089271858,1236.6670855266857,left,1,1,0.6250181653886102,T18N09,2022-11-23_14h26.17.836,t1_Paradigm,2021.1.4,59.987741460574746,
P,left,Pretarget,0,39,39,39,1238.1652850274404,1240.166619562282,left,1,1,0.5493346413422842,T18N09,2022-11-23_14h26.17.836,t1_Paradigm,2021.1.4,59.987741460574746,
P,right,Target,0,40,40,40,1241.6653076439688,1243.6653410073486,right,1,1,0.5386102423653938,T18N09,2022-11-23_14h26.17.836,t1_Paradigm,2021.1.4,59.987741460574746,
J,left,Distractor,0,41,41,41,1245.165337959712,1247.1667158027994,left,1,1,0.6373289285111241,T18N09,2022-11-23_14h26.17.836,t1_Paradigm,2021.1.4,59.987741460574746,
P,left,Lure,0,42,42,42,1248.6652967366972,1250.6671140780381,left,1,1,0.7369224407302681,T18N09,2022-11-23_14h26.17.836,t1_Paradigm,2021.1.4,59.987741460574746,
L,left,Distractor,0,43,43,43,1252.1652523056837,1254.166476163955,left,1,1,0.549475152452942,T18N09,2022-11-23_14h26.17.836,t1_Paradigm,2021.1.4,59.987741460574746,
Z,left,Distractor,0,44,44,44,1255.665410942107,1257.6670216871426,left,1,1,0.5689240729843732,T18N09,2022-11-23_14h26.17.836,t1_Paradigm,2021.1.4,59.987741460574746,
F,left,Pretarget,0,45,45,45,1259.16528149863,1261.1661643447587,left,1,1,0.6697985462087672,T18N09,2022-11-23_14h26.17.836,t1_Paradigm,2021.1.4,59.987741460574746,
F,right,Target,0,46,46,46,1262.6652463708597,1264.665247974859,right,1,1,0.6268095217528753,T18N09,2022-11-23_14h26.17.836,t1_Paradigm,2021.1.4,59.987741460574746,
G,left,Pretarget,0,47,47,47,1266.1653302604682,1268.166847010667,left,1,1,0.6930457582056988,T18N09,2022-11-23_14h26.17.836,t1_Paradigm,2021.1.4,59.987741460574746,
G,right,Target,0,48,48,48,1269.6652502204815,1271.6653471025638,right,1,1,0.7147300245705992,T18N09,2022-11-23_14h26.17.836,t1_Paradigm,2021.1.4,59.987741460574746,
V,left,Distractor,0,49,49,49,1273.165228245547,1275.1670805542672,left,1,1,0.5092010723892599,T18N09,2022-11-23_14h26.17.836,t1_Paradigm,2021.1.4,59.987741460574746,
G,left,Lure,0,50,50,50,1276.6652928871044,1278.6668356221926,left,1,1,0.5453153175185435,T18N09,2022-11-23_14h26.17.836,t1_Paradigm,2021.1.4,59.987741460574746,
Q,left,Pretarget,0,51,51,51,1280.1653187116317,1282.1669419679383,left,1,1,0.6451417317730375,T18N09,2022-11-23_14h26.17.836,t1_Paradigm,2021.1.4,59.987741460574746,
Q,right,Target,0,52,52,52,1283.6652043458307,1285.6652701101848,right,1,1,0.49076652666553855,T18N09,2022-11-23_14h26.17.836,t1_Paradigm,2021.1.4,59.987741460574746,
Y,left,Distractor,0,53,53,53,1287.1652160550875,1289.166778679908,left,1,1,0.6212275731668342,T18N09,2022-11-23_14h26.17.836,t1_Paradigm,2021.1.4,59.987741460574746,
V,left,Distractor,0,54,54,54,1290.665287433454,1292.6669219178439,left,1,1,0.7369538793282118,T18N09,2022-11-23_14h26.17.836,t1_Paradigm,2021.1.4,59.987741460574746,
B,left,Distractor,0,55,55,55,1294.1652635337377,1296.1658130669675,left,1,1,0.5661103217571508,T18N09,2022-11-23_14h26.17.836,t1_Paradigm,2021.1.4,59.987741460574746,
J,left,Pretarget,0,56,56,56,1297.6651950425876,1299.6673075214203,left,1,1,0.5686722437094431,T18N09,2022-11-23_14h26.17.836,t1_Paradigm,2021.1.4,59.987741460574746,
J,right,Target,0,57,57,57,1301.1653145411983,1303.1651974486012,left,0,1,0.6387417389487382,T18N09,2022-11-23_14h26.17.836,t1_Paradigm,2021.1.4,59.987741460574746,
H,left,Distractor,0,58,58,58,1304.6652181403188,1306.6662524048006,left,1,1,0.5777133964584209,T18N09,2022-11-23_14h26.17.836,t1_Paradigm,2021.1.4,59.987741460574746,
J,left,Lure,0,59,59,59,1308.1644393943134,1310.1673397619743,left,1,1,0.7084217810479458,T18N09,2022-11-23_14h26.17.836,t1_Paradigm,2021.1.4,59.987741460574746,
D,left,Pretarget,0,60,60,60,1311.66521300748,1313.6671355717408,left,1,1,0.6327478810271714,T18N09,2022-11-23_14h26.17.836,t1_Paradigm,2021.1.4,59.987741460574746,
D,right,Target,0,61,61,61,1315.1651583107887,1317.1651339298696,right,1,1,0.5268281603348441,T18N09,2022-11-23_14h26.17.836,t1_Paradigm,2021.1.4,59.987741460574746,
R,left,Distractor,0,62,62,62,1318.6651969673985,1320.66692993787,left,1,1,0.592929018457653,T18N09,2022-11-23_14h26.17.836,t1_Paradigm,2021.1.4,59.987741460574746,
F,left,Distractor,0,63,63,63,1322.1652593633044,1324.1643768379872,left,1,1,0.5997149356408045,T18N09,2022-11-23_14h26.17.836,t1_Paradigm,2021.1.4,59.987741460574746,
F,left,Distractor,0,0,0,0,1430.7732853071939,1432.7651205845177,left,1,2,0.5907032966497354,T18N09,2022-11-23_14h26.17.836,t1_Paradigm,2021.1.4,59.987741460574746,
N,left,Pretarget,0,1,1,1,1434.2649186398776,1436.2643180992163,left,1,2,0.6593936656427104,T18N09,2022-11-23_14h26.17.836,t1_Paradigm,2021.1.4,59.987741460574746,
V,left,Distractor,0,2,2,2,1437.7647943292686,1439.7667772042332,left,1,2,0.6929485552827828,T18N09,2022-11-23_14h26.17.836,t1_Paradigm,2021.1.4,59.987741460574746,
N,right,Target,0,3,3,3,1441.2650479229633,1443.2668813043565,right,1,2,0.7767753082734998,T18N09,2022-11-23_14h26.17.836,t1_Paradigm,2021.1.4,59.987741460574746,
N,left,Lure,0,4,4,4,1444.7650468001375,1446.7650881835725,left,1,2,0.9747365496587008,T18N09,2022-11-23_14h26.17.836,t1_Paradigm,2021.1.4,59.987741460574746,
X,left,Distractor,0,5,5,5,1448.2650094267447,1450.267155910551,left,1,2,0.7686221344629303,T18N09,2022-11-23_14h26.17.836,t1_Paradigm,2021.1.4,59.987741460574746,
G,left,Pretarget,0,6,6,6,1451.765062840219,1453.7669135449105,left,1,2,0.8849977431818843,T18N09,2022-11-23_14h26.17.836,t1_Paradigm,2021.1.4,59.987741460574746,
H,left,Pretarget,0,7,7,7,1455.2649908202584,1457.2666920313786,left,1,2,0.6810480974672828,T18N09,2022-11-23_14h26.17.836,t1_Paradigm,2021.1.4,59.987741460574746,
G,right,Target,0,8,8,8,1458.7649483140558,1460.7669324722083,right,1,2,0.6367678464448545,T18N09,2022-11-23_14h26.17.836,t1_Paradigm,2021.1.4,59.987741460574746,
H,right,Target,0,9,9,9,1462.2641987609968,1464.2660019870382,right,1,2,0.9298923293536063,T18N09,2022-11-23_14h26.17.836,t1_Paradigm,2021.1.4,59.987741460574746,
T,left,Pretarget,0,10,10,10,1465.765032043273,1467.7659254758619,left,1,2,0.8058495613513514,T18N09,2022-11-23_14h26.17.836,t1_Paradigm,2021.1.4,59.987741460574746,
K,left,Distractor,0,11,11,11,1469.2650206548278,1471.266418066778,left,1,2,0.5852872024988756,T18N09,2022-11-23_14h26.17.836,t1_Paradigm,2021.1.4,59.987741460574746,
T,right,Target,0,12,12,12,1472.7649290659465,1474.7667367832037,right,1,2,0.6529516478185542,T18N09,2022-11-23_14h26.17.836,t1_Paradigm,2021.1.4,59.987741460574746,
T,left,Lure,0,13,13,13,1476.2649000333913,1478.2649828002322,left,1,2,0.850685440847883,T18N09,2022-11-23_14h26.17.836,t1_Paradigm,2021.1.4,59.987741460574746,
J,left,Distractor,0,14,14,14,1479.7649868102453,1481.766915790533,left,1,2,0.9969812565250322,T18N09,2022-11-23_14h26.17.836,t1_Paradigm,2021.1.4,59.987741460574746,
Q,left,Pretarget,0,15,15,15,1483.265016163583,1485.2664498261292,left,1,2,0.7133791288360953,T18N09,2022-11-23_14h26.17.836,t1_Paradigm,2021.1.4,59.987741460574746,
M,left,Distractor,0,16,16,16,1486.7647134872386,1488.7676003812521,left,1,2,0.6201182410877664,T18N09,2022-11-23_14h26.17.836,t1_Paradigm,2021.1.4,59.987741460574746,
Q,right,Target,0,17,17,17,1490.2650091059622,1492.2665431794303,right,1,2,0.4973243538697716,T18N09,2022-11-23_14h26.17.836,t1_Paradigm,2021.1.4,59.987741460574746,
R,left,Distractor,0,18,18,18,1493.7649823190295,1495.7662064980832,left,1,2,0.6934846148360521,T18N09,2022-11-23_14h26.17.836,t1_Paradigm,2021.1.4,59.987741460574746,
W,left,Distractor,0,19,19,19,1497.2649362839875,1499.2667282819748,left,1,2,0.664832215901697,T18N09,2022-11-23_14h26.17.836,t1_Paradigm,2021.1.4,59.987741460574746,
C,left,Pretarget,0,20,20,20,1500.7649582588929,1502.7667098358797,left,1,2,0.6529522894416004,T18N09,2022-11-23_14h26.17.836,t1_Paradigm,2021.1.4,59.987741460574746,
T,left,Distractor,0,21,21,21,1504.2648608956079,1506.2667504172714,left,1,2,0.6568461797724012,T18N09,2022-11-23_14h26.17.836,t1_Paradigm,2021.1.4,59.987741460574746,
C,right,Target,0,22,22,22,1507.7649232915137,1509.764122570603,right,1,2,0.5035517554206308,T18N09,2022-11-23_14h26.17.836,t1_Paradigm,2021.1.4,59.987741460574746,
F,left,Pretarget,0,23,23,23,1511.2650164843944,1513.2668479409767,left,1,2,0.7289505198714323,T18N09,2022-11-23_14h26.17.836,t1_Paradigm,2021.1.4,59.987741460574746,
C,right,Target,0,24,24,24,1514.764877416892,1516.7669501163182,right,1,2,1.0048309519770555,T18N09,2022-11-23_14h26.17.836,t1_Paradigm,2021.1.4,59.987741460574746,
F,right,Target,0,25,25,25,1518.2649141486618,1520.2665348385926,right,1,2,0.8011376268113963,T18N09,2022-11-23_14h26.17.836,t1_Paradigm,2021.1.4,59.987741460574746,
H,left,Distractor,0,26,26,26,1521.7649605045153,1523.7668609334505,left,1,2,0.5813288310018834,T18N09,2022-11-23_14h26.17.836,t1_Paradigm,2021.1.4,59.987741460574746,
H,left,Lure,0,27,27,27,1525.264855121175,1527.264920243906,left,1,2,0.7787052509665955,T18N09,2022-11-23_14h26.17.836,t1_Paradigm,2021.1.4,59.987741460574746,
P,left,Distractor,0,28,28,28,1528.7649608252977,1530.766952682723,left,1,2,0.6367479567416012,T18N09,2022-11-23_14h26.17.836,t1_Paradigm,2021.1.4,59.987741460574746,
G,left,Pretarget,0,29,29,29,1532.264125939022,1534.2668845123844,left,1,2,0.6086797376046889,T18N09,2022-11-23_14h26.17.836,t1_Paradigm,2021.1.4,59.987741460574746,
K,left,Distractor,0,30,30,30,1535.7648902489454,1537.7665802320116,left,1,2,0.5816011915740091,T18N09,2022-11-23_14h26.17.836,t1_Paradigm,2021.1.4,59.987741460574746,
G,right,Target,0,31,31,31,1539.2648791812826,1541.2659182578209,right,1,2,0.7618477661453653,T18N09,2022-11-23_14h26.17.836,t1_Paradigm,2021.1.4,59.987741460574746,
M,left,Pretarget,0,32,32,32,1542.7649762237852,1544.7661850043805,left,1,2,0.6534713464789093,T18N09,2022-11-23_14h26.17.836,t1_Paradigm,2021.1.4,59.987741460574746,
B,left,Distractor,0,33,33,33,1546.264898429392,1548.267040742765,left,1,2,0.7525640873645898,T18N09,2022-11-23_14h26.17.836,t1_Paradigm,2021.1.4,59.987741460574746,
M,right,Target,0,34,34,34,1549.7649560132704,1551.7667249135557,right,1,2,0.6130772865726613,T18N09,2022-11-23_14h26.17.836,t1_Paradigm,2021.1.4,59.987741460574746,
M,left,Lure,0,35,35,35,1553.2648233617947,1555.2650581886119,left,1,2,0.8266615680477116,T18N09,2022-11-23_14h26.17.836,t1_Paradigm,2021.1.4,59.987741460574746,
T,left,Distractor,0,36,36,36,1556.764861697593,1558.7665872896614,left,1,2,0.8292177155672107,T18N09,2022-11-23_14h26.17.836,t1_Paradigm,2021.1.4,59.987741460574746,
F,left,Distractor,0,37,37,37,1560.2650443941238,1562.2668819459504,left,1,2,0.7527078064740635,T18N09,2022-11-23_14h26.17.836,t1_Paradigm,2021.1.4,59.987741460574746,
X,left,Distractor,0,38,38,38,1563.764904364216,1565.765129246167,left,1,2,0.6146594802848995,T18N09,2022-11-23_14h26.17.836,t1_Paradigm,2021.1.4,59.987741460574746,
C,left,Distractor,0,39,39,39,1567.264881426905,1569.2661704079073,left,1,2,0.6332213842542842,T18N09,2022-11-23_14h26.17.836,t1_Paradigm,2021.1.4,59.987741460574746,
R,left,Distractor,0,40,40,40,1570.7649996422988,1572.7639021798677,left,1,2,0.5757991730351932,T18N09,2022-11-23_14h26.17.836,t1_Paradigm,2021.1.4,59.987741460574746,
B,left,Pretarget,0,41,41,41,1574.2648904093367,1576.2666044525395,left,1,2,0.6729375902796164,T18N09,2022-11-23_14h26.17.836,t1_Paradigm,2021.1.4,59.987741460574746,
H,left,Distractor,0,42,42,42,1577.764995151083,1579.766343801195,left,1,2,0.5973788580740802,T18N09,2022-11-23_14h26.17.836,t1_Paradigm,2021.1.4,59.987741460574746,
B,right,Target,0,43,43,43,1581.2648342690663,1583.2667077506776,right,1,2,0.8091098684526514,T18N09,2022-11-23_14h26.17.836,t1_Paradigm,2021.1.4,59.987741460574746,
W,left,Pretarget,0,44,44,44,1584.7648434119183,1586.7639810970868,left,1,2,0.6875959798344411,T18N09,2022-11-23_14h26.17.836,t1_Paradigm,2021.1.4,59.987741460574746,
L,left,Pretarget,0,45,45,45,1588.2648811060935,1590.2664177459665,left,1,2,0.5931875845999457,T18N09,2022-11-23_14h26.17.836,t1_Paradigm,2021.1.4,59.987741460574746,
W,right,Target,0,46,46,46,1591.7648132565373,1593.7664698762528,right,1,2,0.5331049653468654,T18N09,2022-11-23_14h26.17.836,t1_Paradigm,2021.1.4,59.987741460574746,
L,right,Target,0,47,47,47,1595.2647527854424,1597.2657257768442,right,1,2,0.8899473917263094,T18N09,2022-11-23_14h26.17.836,t1_Paradigm,2021.1.4,59.987741460574746,
W,right,Target,0,48,48,48,1598.7648520735383,1600.7668006227468,right,1,2,0.781152967538219,T18N09,2022-11-23_14h26.17.836,t1_Paradigm,2021.1.4,59.987741460574746,
X,left,Distractor,0,49,49,49,1602.264748615009,1604.2659140873875,left,1,2,0.6094942530035041,T18N09,2022-11-23_14h26.17.836,t1_Paradigm,2021.1.4,59.987741460574746,
R,left,Distractor,0,50,50,50,1605.7648232014035,1607.766266808816,left,1,2,0.6134093162836507,T18N09,2022-11-23_14h26.17.836,t1_Paradigm,2021.1.4,59.987741460574746,
V,left,Pretarget,0,51,51,51,1609.2647556726588,1611.2668832291674,left,1,2,0.7767005615169182,T18N09,2022-11-23_14h26.17.836,t1_Paradigm,2021.1.4,59.987741460574746,
Z,left,Distractor,0,52,52,52,1612.7647914420522,1614.7661952700291,left,1,2,0.7013035133422818,T18N09,2022-11-23_14h26.17.836,t1_Paradigm,2021.1.4,59.987741460574746,
V,right,Target,0,53,53,53,1616.2648884845257,1618.266735018813,right,1,2,0.624553003028268,T18N09,2022-11-23_14h26.17.836,t1_Paradigm,2021.1.4,59.987741460574746,
V,left,Lure,0,54,54,54,1619.7645845249644,1621.7650015671097,left,1,2,0.614706317341188,T18N09,2022-11-23_14h26.17.836,t1_Paradigm,2021.1.4,59.987741460574746,
N,left,Distractor,0,55,55,55,1623.2648082841188,1625.2659455259563,left,1,2,0.6978937126405071,T18N09,2022-11-23_14h26.17.836,t1_Paradigm,2021.1.4,59.987741460574746,
B,left,Distractor,0,56,56,56,1626.7647725147544,1628.766691550176,left,1,2,0.7168014407798182,T18N09,2022-11-23_14h26.17.836,t1_Paradigm,2021.1.4,59.987741460574746,
V,left,Lure,0,57,57,57,1630.2648268906341,1632.2665467082406,left,1,2,0.6088921083137393,T18N09,2022-11-23_14h26.17.836,t1_Paradigm,2021.1.4,59.987741460574746,
J,left,Distractor,0,58,58,58,1633.764943181217,1635.766608783364,left,1,2,0.5648729898093734,T18N09,2022-11-23_14h26.17.836,t1_Paradigm,2021.1.4,59.987741460574746,
H,left,Distractor,0,59,59,59,1637.2647309709282,1639.266934236628,left,1,2,0.6163754482695367,T18N09,2022-11-23_14h26.17.836,t1_Paradigm,2021.1.4,59.987741460574746,
X,left,Pretarget,0,60,60,60,1640.764767061104,1642.7662376158405,left,1,2,0.6532846399059054,T18N09,2022-11-23_14h26.17.836,t1_Paradigm,2021.1.4,59.987741460574746,
P,left,Distractor,0,61,61,61,1644.2648884845257,1646.2664754902653,left,1,2,0.657043151994003,T18N09,2022-11-23_14h26.17.836,t1_Paradigm,2021.1.4,59.987741460574746,
X,right,Target,0,62,62,62,1647.764785346808,1649.7654664086876,right,1,2,0.5340368940960616,T18N09,2022-11-23_14h26.17.836,t1_Paradigm,2021.1.4,59.987741460574746,
Q,left,Distractor,0,63,63,63,1651.264749256632,1653.26664487354,left,1,2,0.632601274701301,T18N09,2022-11-23_14h26.17.836,t1_Paradigm,2021.1.4,59.987741460574746,
B,left,Pretarget,0,0,0,0,1665.7293043640966,1667.7328505054757,left,1,2,0.5987413026741706,T18N09,2022-11-23_14h26.17.836,t1_Paradigm,2021.1.4,59.987741460574746,
F,left,Distractor,0,1,1,1,1669.2314532539167,1671.2322257442574,left,1,2,0.9073499185615219,T18N09,2022-11-23_14h26.17.836,t1_Paradigm,2021.1.4,59.987741460574746,
B,right,Target,0,2,2,2,1672.7314200509281,1674.7331469261844,right,1,2,0.6064354093105067,T18N09,2022-11-23_14h26.17.836,t1_Paradigm,2021.1.4,59.987741460574746,
V,left,Distractor,0,3,3,3,1676.2313894143736,1678.2333068458247,left,1,2,0.6101066633418668,T18N09,2022-11-23_14h26.17.836,t1_Paradigm,2021.1.4,59.987741460574746,
G,left,Pretarget,0,4,4,4,1679.7314171637117,1681.7332896829175,left,1,2,0.6302773875650018,T18N09,2022-11-23_14h26.17.836,t1_Paradigm,2021.1.4,59.987741460574746,
B,left,Lure,0,5,5,5,1683.231406737672,1685.233059828548,left,1,2,0.6661786204495002,T18N09,2022-11-23_14h26.17.836,t1_Paradigm,2021.1.4,59.987741460574746,
G,right,Target,0,6,6,6,1686.7313805923332,1688.732612791442,right,1,2,0.6548770992958453,T18N09,2022-11-23_14h26.17.836,t1_Paradigm,2021.1.4,59.987741460574746,
Y,left,Pretarget,0,7,7,7,1690.231404812861,1692.2327544253785,left,1,2,0.6107286977348849,T18N09,2022-11-23_14h26.17.836,t1_Paradigm,2021.1.4,59.987741460574746,
P,left,Distractor,0,8,8,8,1693.7312715197622,1695.7334131915704,left,1,2,0.6144422975776251,T18N09,2022-11-23_14h26.17.836,t1_Paradigm,2021.1.4,59.987741460574746,
Y,right,Target,0,9,9,9,1697.231363429455,1699.2328259641363,right,1,2,0.7147476686805021,T18N09,2022-11-23_14h26.17.836,t1_Paradigm,2021.1.4,59.987741460574746,
X,left,Distractor,0,10,10,10,1700.731278577412,1702.7334555373818,left,1,2,0.525977394398069,T18N09,2022-11-23_14h26.17.836,t1_Paradigm,2021.1.4,59.987741460574746,
Y,right,Target,0,11,11,11,1704.231325895642,1706.2329536431935,right,1,2,0.5466854613623582,T18N09,2022-11-23_14h26.17.836,t1_Paradigm,2021.1.4,59.987741460574746,
N,left,Distractor,0,12,12,12,1707.731370005873,1709.7331969712395,left,1,2,0.5502085050393362,T18N09,2022-11-23_14h26.17.836,t1_Paradigm,2021.1.4,59.987741460574746,
Y,right,Target,0,13,13,13,1711.231486938079,1713.2331884700106,right,1,2,0.6343746661732439,T18N09,2022-11-23_14h26.17.836,t1_Paradigm,2021.1.4,59.987741460574746,
Y,left,Lure,0,14,14,14,1714.7313539657916,1716.7314024068473,left,1,2,0.8641822076460812,T18N09,2022-11-23_14h26.17.836,t1_Paradigm,2021.1.4,59.987741460574746,
K,left,Distractor,0,15,15,15,1718.2313329532917,1720.2320666266605,left,1,2,0.5958207244984806,T18N09,2022-11-23_14h26.17.836,t1_Paradigm,2021.1.4,59.987741460574746,
T,left,Pretarget,0,16,16,16,1721.7313517201983,1723.7325197589817,left,1,2,0.8069903319992591,T18N09,2022-11-23_14h26.17.836,t1_Paradigm,2021.1.4,59.987741460574746,
J,left,Distractor,0,17,17,17,1725.231354767806,1727.2323441200715,left,1,2,0.6990569393965416,T18N09,2022-11-23_14h26.17.836,t1_Paradigm,2021.1.4,59.987741460574746,
T,right,Target,0,18,18,18,1728.7313103367633,1730.733132810914,right,1,2,1.0543069064442534,T18N09,2022-11-23_14h26.17.836,t1_Paradigm,2021.1.4,59.987741460574746,
S,left,Pretarget,0,19,19,19,1732.2313858855632,1734.2334775122872,left,1,2,0.6258660441380925,T18N09,2022-11-23_14h26.17.836,t1_Paradigm,2021.1.4,59.987741460574746,
R,left,Distractor,0,20,20,20,1735.731369364279,1737.7328925304755,left,1,2,0.6466998653486371,T18N09,2022-11-23_14h26.17.836,t1_Paradigm,2021.1.4,59.987741460574746,
S,right,Target,0,21,21,21,1739.231472501997,1741.2330030466546,right,1,2,0.522503754182253,T18N09,2022-11-23_14h26.17.836,t1_Paradigm,2021.1.4,59.987741460574746,
Q,left,Distractor,0,22,22,22,1742.7313902163878,1744.731252913276,left,1,2,0.5763034732372034,T18N09,2022-11-23_14h26.17.836,t1_Paradigm,2021.1.4,59.987741460574746,
D,left,Distractor,0,23,23,23,1746.2312947778846,1748.2332779736607,left,1,2,0.6421396699734032,T18N09,2022-11-23_14h26.17.836,t1_Paradigm,2021.1.4,59.987741460574746,
F,left,Distractor,0,24,24,24,1749.7313135447912,1751.7327269968519,left,1,2,0.6950838110351469,T18N09,2022-11-23_14h26.17.836,t1_Paradigm,2021.1.4,59.987741460574746,
Z,left,Distractor,0,25,25,25,1753.2313480309676,1755.2331567106303,left,1,2,0.6022117348620668,T18N09,2022-11-23_14h26.17.836,t1_Paradigm,2021.1.4,59.987741460574746,
P,left,Distractor,0,26,26,26,1756.7312343067897,1758.7329143449897,left,1,2,0.5746118861425202,T18N09,2022-11-23_14h26.17.836,t1_Paradigm,2021.1.4,59.987741460574746,
H,left,Distractor,0,27,27,27,1760.2312761713983,1762.232771748677,left,1,2,0.6105695801379625,T18N09,2022-11-23_14h26.17.836,t1_Paradigm,2021.1.4,59.987741460574746,
Z,left,Pretarget,0,28,28,28,1763.7313571738196,1765.7331029763736,left,1,2,0.7424386250495445,T18N09,2022-11-23_14h26.17.836,t1_Paradigm,2021.1.4,59.987741460574746,
J,left,Pretarget,0,29,29,29,1767.2311282818555,1769.2328923700843,left,1,2,0.7786365994252264,T18N09,2022-11-23_14h26.17.836,t1_Paradigm,2021.1.4,59.987741460574746,
Z,right,Target,0,30,30,30,1770.731304883142,1772.7331751567253,right,1,2,0.6861883022356778,T18N09,2022-11-23_14h26.17.836,t1_Paradigm,2021.1.4,59.987741460574746,
J,right,Target,0,31,31,31,1774.2312636601273,1776.2319864262536,left,0,2,0.7714342816907447,T18N09,2022-11-23_14h26.17.836,t1_Paradigm,2021.1.4,59.987741460574746,
V,left,Pretarget,0,32,32,32,1777.7313459457655,1779.7334513669484,left,1,2,0.7098769372678362,T18N09,2022-11-23_14h26.17.836,t1_Paradigm,2021.1.4,59.987741460574746,
Z,left,Lure,0,33,33,33,1781.2314003216452,1783.233045392466,left,1,2,0.5703115400974639,T18N09,2022-11-23_14h26.17.836,t1_Paradigm,2021.1.4,59.987741460574746,
V,right,Target,0,34,34,34,1784.7312933342764,1786.7328719991783,right,1,2,0.7985295094258618,T18N09,2022-11-23_14h26.17.836,t1_Paradigm,2021.1.4,59.987741460574746,
X,left,Distractor,0,35,35,35,1788.2312428080186,1790.2333620236896,left,1,2,0.5621445718279574,T18N09,2022-11-23_14h26.17.836,t1_Paradigm,2021.1.4,59.987741460574746,
S,left,Distractor,0,36,36,36,1791.7312590085203,1793.7327735130675,left,1,2,0.6152337152161635,T18N09,2022-11-23_14h26.17.836,t1_Paradigm,2021.1.4,59.987741460574746,
Q,left,Distractor,0,37,37,37,1795.2313291036699,1797.232276751718,left,1,2,0.9071535879629664,T18N09,2022-11-23_14h26.17.836,t1_Paradigm,2021.1.4,59.987741460574746,
P,left,Distractor,0,38,38,38,1798.7314040108467,1800.7328918888816,left,1,2,1.0544554376101587,T18N09,2022-11-23_14h26.17.836,t1_Paradigm,2021.1.4,59.987741460574746,
S,left,Lure,0,39,39,39,1802.2312296551536,1804.2323800498561,left,1,2,0.6269372008100618,T18N09,2022-11-23_14h26.17.836,t1_Paradigm,2021.1.4,59.987741460574746,
K,left,Pretarget,0,40,40,40,1805.7314104269026,1807.7329496331804,left,1,2,0.5984060649643652,T18N09,2022-11-23_14h26.17.836,t1_Paradigm,2021.1.4,59.987741460574746,
L,left,Distractor,0,41,41,41,1809.2312376752088,1811.2318372534646,left,1,2,0.6993735706200823,T18N09,2022-11-23_14h26.17.836,t1_Paradigm,2021.1.4,59.987741460574746,
K,right,Target,0,42,42,42,1812.7312455348438,1814.7328431270435,right,1,2,1.1025031831522938,T18N09,2022-11-23_14h26.17.836,t1_Paradigm,2021.1.4,59.987741460574746,
B,left,Distractor,0,43,43,43,1816.2312960611016,1818.2330524501158,left,1,2,0.5946206055523362,T18N09,2022-11-23_14h26.17.836,t1_Paradigm,2021.1.4,59.987741460574746,
N,left,Distractor,0,44,44,44,1819.7312304571678,1821.732904079341,left,1,2,0.582376248377841,T18N09,2022-11-23_14h26.17.836,t1_Paradigm,2021.1.4,59.987741460574746,
S,left,Pretarget,0,45,45,45,1823.2311901965586,1825.2323662553972,left,1,2,0.6666890158667229,T18N09,2022-11-23_14h26.17.836,t1_Paradigm,2021.1.4,59.987741460574746,
Z,left,Distractor,0,46,46,46,1826.7304290946631,1828.7328719991783,left,1,2,0.7824098683777265,T18N09,2022-11-23_14h26.17.836,t1_Paradigm,2021.1.4,59.987741460574746,
S,right,Target,0,47,47,47,1830.2310907480423,1832.2324993880757,right,1,2,0.8988881335826591,T18N09,2022-11-23_14h26.17.836,t1_Paradigm,2021.1.4,59.987741460574746,
C,left,Distractor,0,48,48,48,1833.7312301363563,1835.7329403299373,left,1,2,0.6147416055027861,T18N09,2022-11-23_14h26.17.836,t1_Paradigm,2021.1.4,59.987741460574746,
T,left,Pretarget,0,49,49,49,1837.2312617353164,1839.2319129626558,left,1,2,0.6034500292153098,T18N09,2022-11-23_14h26.17.836,t1_Paradigm,2021.1.4,59.987741460574746,
S,left,Lure,0,50,50,50,1840.731266066141,1842.7332588859717,left,1,2,0.9260263487230986,T18N09,2022-11-23_14h26.17.836,t1_Paradigm,2021.1.4,59.987741460574746,
T,right,Target,0,51,51,51,1844.2313467477506,1846.2322565412323,right,1,2,0.7389906489406712,T18N09,2022-11-23_14h26.17.836,t1_Paradigm,2021.1.4,59.987741460574746,
N,left,Pretarget,0,52,52,52,1847.7311014948937,1849.732829011773,left,1,2,0.6948640618938953,T18N09,2022-11-23_14h26.17.836,t1_Paradigm,2021.1.4,59.987741460574746,
B,left,Distractor,0,53,53,53,1851.2304193102173,1853.233071698196,left,1,2,1.066194211394759,T18N09,2022-11-23_14h26.17.836,t1_Paradigm,2021.1.4,59.987741460574746,
N,right,Target,0,54,54,54,1854.7309776654583,1856.732869111962,right,1,2,0.5104496323911007,T18N09,2022-11-23_14h26.17.836,t1_Paradigm,2021.1.4,59.987741460574746,
N,left,Lure,0,55,55,55,1858.2312379959913,1860.2312023870181,left,1,2,0.852043394203065,T18N09,2022-11-23_14h26.17.836,t1_Paradigm,2021.1.4,59.987741460574746,
X,left,Distractor,0,56,56,56,1861.7313112991687,1863.7330083398847,left,1,2,0.5662662313552573,T18N09,2022-11-23_14h26.17.836,t1_Paradigm,2021.1.4,59.987741460574746,
W,left,Distractor,0,57,57,57,1865.2312922114797,1867.2330813222507,left,1,2,0.6659376984171104,T18N09,2022-11-23_14h26.17.836,t1_Paradigm,2021.1.4,59.987741460574746,
S,left,Distractor,0,58,58,58,1868.7311926025723,1870.7327603602025,left,1,2,0.8466520017536823,T18N09,2022-11-23_14h26.17.836,t1_Paradigm,2021.1.4,59.987741460574746,
L,left,Distractor,0,59,59,59,1872.2311847429373,1874.2322789973405,left,1,2,0.722938376275124,T18N09,2022-11-23_14h26.17.836,t1_Paradigm,2021.1.4,59.987741460574746,
K,left,Pretarget,0,60,60,60,1875.7311691840587,1877.732513342955,left,1,2,1.1748725054203533,T18N09,2022-11-23_14h26.17.836,t1_Paradigm,2021.1.4,59.987741460574746,
V,left,Pretarget,0,61,61,61,1879.2312758505868,1881.2330351268174,left,1,2,0.7783825245278422,T18N09,2022-11-23_14h26.17.836,t1_Paradigm,2021.1.4,59.987741460574746,
K,right,Target,0,62,62,62,1882.73120094341,1884.7325852025242,right,1,2,0.7188680449908134,T18N09,2022-11-23_14h26.17.836,t1_Paradigm,2021.1.4,59.987741460574746,
V,right,Target,0,63,63,63,1886.2311436803138,1888.2327794479206,right,1,2,0.514954008278437,T18N09,2022-11-23_14h26.17.836,t1_Paradigm,2021.1.4,59.987741460574746,
R,left,Distractor,0,0,0,0,1968.3608479557442,1970.3662149672455,left,1,3,0.49291172725497745,T18N09,2022-11-23_14h26.17.836,t1_Paradigm,2021.1.4,59.987741460574746,
P,left,Lure,0,1,1,1,1971.864358969353,1973.866325804236,left,1,3,0.5289723985188175,T18N09,2022-11-23_14h26.17.836,t1_Paradigm,2021.1.4,59.987741460574746,
V,left,Distractor,0,2,2,2,1975.3643357112305,1977.3655974240974,left,1,3,0.5014752063434571,T18N09,2022-11-23_14h26.17.836,t1_Paradigm,2021.1.4,59.987741460574746,
P,left,Pretarget,0,3,3,3,1978.8643849542714,1980.866027137905,left,1,3,0.9211161587445531,T18N09,2022-11-23_14h26.17.836,t1_Paradigm,2021.1.4,59.987741460574746,
Z,left,Distractor,0,4,4,4,1982.364361054555,1984.366322435817,left,1,3,0.7007652081665583,T18N09,2022-11-23_14h26.17.836,t1_Paradigm,2021.1.4,59.987741460574746,
L,left,Pretarget,0,5,5,5,1985.864103932021,1987.8664143454807,left,1,3,0.8006609155563638,T18N09,2022-11-23_14h26.17.836,t1_Paradigm,2021.1.4,59.987741460574746,
P,right,Target,0,6,6,6,1989.3644062875828,1991.3658065867785,left,0,3,0.7254435163049493,T18N09,2022-11-23_14h26.17.836,t1_Paradigm,2021.1.4,59.987741460574746,
S,left,Distractor,0,7,7,7,1992.8642114005925,1994.8657406620332,left,1,3,1.0975795194972306,T18N09,2022-11-23_14h26.17.836,t1_Paradigm,2021.1.4,59.987741460574746,
L,right,Target,0,8,8,8,1996.364391209907,1998.3656028777186,left,0,3,0.7654644838767126,T18N09,2022-11-23_14h26.17.836,t1_Paradigm,2021.1.4,59.987741460574746,
D,left,Distractor,0,9,9,9,1999.8643644229742,2001.866117283149,left,1,3,0.6250826465256978,T18N09,2022-11-23_14h26.17.836,t1_Paradigm,2021.1.4,59.987741460574746,
G,left,Distractor,0,10,10,10,2003.3642737964983,2005.366151448543,left,1,3,0.7410870876919944,T18N09,2022-11-23_14h26.17.836,t1_Paradigm,2021.1.4,59.987741460574746,
M,left,Pretarget,0,11,11,11,2006.8643515908916,2008.8658105967916,left,1,3,0.7454262507671956,T18N09,2022-11-23_14h26.17.836,t1_Paradigm,2021.1.4,59.987741460574746,
Y,left,Distractor,0,12,12,12,2010.3642891949858,2012.366152090137,left,1,3,0.685293586429907,T18N09,2022-11-23_14h26.17.836,t1_Paradigm,2021.1.4,59.987741460574746,
V,left,Distractor,0,13,13,13,2013.8643711598124,2015.866381623724,left,1,3,0.8486692025035154,T18N09,2022-11-23_14h26.17.836,t1_Paradigm,2021.1.4,59.987741460574746,
M,right,Target,0,14,14,14,2017.3643620169605,2019.365920150536,right,1,3,1.0293341024080291,T18N09,2022-11-23_14h26.17.836,t1_Paradigm,2021.1.4,59.987741460574746,
S,left,Pretarget,0,15,15,15,2020.8643647437857,2022.8662295637187,left,1,3,0.6488489155599382,T18N09,2022-11-23_14h26.17.836,t1_Paradigm,2021.1.4,59.987741460574746,
Q,left,Distractor,0,16,16,16,2024.3642234306608,2026.366185774299,left,1,3,0.9250196731591132,T18N09,2022-11-23_14h26.17.836,t1_Paradigm,2021.1.4,59.987741460574746,
R,left,Pretarget,0,17,17,17,2027.864275560918,2029.8651051539637,left,1,3,0.7861176937876735,T18N09,2022-11-23_14h26.17.836,t1_Paradigm,2021.1.4,59.987741460574746,
S,right,Target,0,18,18,18,2031.3643302576093,2033.3660256942967,right,1,3,0.6769832198333461,T18N09,2022-11-23_14h26.17.836,t1_Paradigm,2021.1.4,59.987741460574746,
F,left,Distractor,0,19,19,19,2034.8642482927826,2036.8658997796301,left,1,3,0.6491899277316406,T18N09,2022-11-23_14h26.17.836,t1_Paradigm,2021.1.4,59.987741460574746,
R,right,Target,0,20,20,20,2038.3640540473862,2040.3661427868938,right,1,3,1.0529069280601107,T18N09,2022-11-23_14h26.17.836,t1_Paradigm,2021.1.4,59.987741460574746,
P,left,Distractor,0,21,21,21,2041.864301866648,2043.866220581287,left,1,3,0.9768403668422252,T18N09,2022-11-23_14h26.17.836,t1_Paradigm,2021.1.4,59.987741460574746,
L,left,Distractor,0,22,22,22,2045.364283420553,2047.3657581457228,left,1,3,0.8053738125017844,T18N09,2022-11-23_14h26.17.836,t1_Paradigm,2021.1.4,59.987741460574746,
R,right,Target,0,23,23,23,2048.864316944324,2050.8659138949006,right,1,3,1.3371448846010026,T18N09,2022-11-23_14h26.17.836,t1_Paradigm,2021.1.4,59.987741460574746,
H,left,Pretarget,0,24,24,24,2052.3642654556606,2054.366106215515,None,0,3,,T18N09,2022-11-23_14h26.17.836,t1_Paradigm,2021.1.4,59.987741460574746,
G,left,Pretarget,0,25,25,25,2055.864265616052,2057.8655674291367,left,1,3,0.9615875318704639,T18N09,2022-11-23_14h26.17.836,t1_Paradigm,2021.1.4,59.987741460574746,
T,left,Distractor,0,26,26,26,2059.364174347982,2061.3662746363552,left,1,3,1.0129382511368021,T18N09,2022-11-23_14h26.17.836,t1_Paradigm,2021.1.4,59.987741460574746,
H,right,Target,0,27,27,27,2062.8642566336202,2064.865926085389,right,1,3,0.5052058087021578,T18N09,2022-11-23_14h26.17.836,t1_Paradigm,2021.1.4,59.987741460574746,
G,right,Target,0,28,28,28,2066.3642099569843,2068.3662602003023,right,1,3,0.5565995153738186,T18N09,2022-11-23_14h26.17.836,t1_Paradigm,2021.1.4,59.987741460574746,
D,left,Distractor,0,29,29,29,2069.864209796564,2071.8662661351264,left,1,3,0.7048438802594319,T18N09,2022-11-23_14h26.17.836,t1_Paradigm,2021.1.4,59.987741460574746,
N,left,Pretarget,0,30,30,30,2073.3642843829584,2075.365950947511,left,1,3,0.6291991732432507,T18N09,2022-11-23_14h26.17.836,t1_Paradigm,2021.1.4,59.987741460574746,
V,left,Distractor,0,31,31,31,2076.8641116312647,2078.866120491177,left,1,3,0.7450781809457112,T18N09,2022-11-23_14h26.17.836,t1_Paradigm,2021.1.4,59.987741460574746,
R,left,Distractor,0,32,32,32,2080.3642474907683,2082.3654581961746,left,1,3,0.8935637886752374,T18N09,2022-11-23_14h26.17.836,t1_Paradigm,2021.1.4,59.987741460574746,
N,right,Target,0,33,33,33,2083.864199851727,2085.866091619013,right,1,3,1.0090674585080706,T18N09,2022-11-23_14h26.17.836,t1_Paradigm,2021.1.4,59.987741460574746,
Z,left,Distractor,0,34,34,34,2087.3642555108236,2089.365881975158,left,1,3,1.0292840573529247,T18N09,2022-11-23_14h26.17.836,t1_Paradigm,2021.1.4,59.987741460574746,
N,left,Lure,0,35,35,35,2090.8641023280215,2092.866233734152,left,1,3,0.9527549001504667,T18N09,2022-11-23_14h26.17.836,t1_Paradigm,2021.1.4,59.987741460574746,
Y,left,Pretarget,0,36,36,36,2094.364194558497,2096.3650109986775,left,1,3,0.8301618348050397,T18N09,2022-11-23_14h26.17.836,t1_Paradigm,2021.1.4,59.987741460574746,
Y,left,Lure,0,37,37,37,2097.8641719419975,2099.8641417866165,left,1,3,0.6109978503081948,T18N09,2022-11-23_14h26.17.836,t1_Paradigm,2021.1.4,59.987741460574746,
B,left,Distractor,0,38,38,38,2101.3641172453063,2103.3659708372143,left,1,3,0.7571557213086635,T18N09,2022-11-23_14h26.17.836,t1_Paradigm,2021.1.4,59.987741460574746,
Y,right,Target,0,39,39,39,2104.8640811551304,2106.8654535445676,right,1,3,0.6175207101623528,T18N09,2022-11-23_14h26.17.836,t1_Paradigm,2021.1.4,59.987741460574746,
J,left,Distractor,0,40,40,40,2108.364252623607,2110.363285406638,left,1,3,0.7037239617202431,T18N09,2022-11-23_14h26.17.836,t1_Paradigm,2021.1.4,59.987741460574746,
X,left,Distractor,0,41,41,41,2111.8641523730766,2113.8649887029605,left,1,3,0.593995042348979,T18N09,2022-11-23_14h26.17.836,t1_Paradigm,2021.1.4,59.987741460574746,
W,left,Pretarget,0,42,42,42,2115.364228242659,2117.3656160305836,left,1,3,0.6776710185513366,T18N09,2022-11-23_14h26.17.836,t1_Paradigm,2021.1.4,59.987741460574746,
S,left,Pretarget,0,43,43,43,2118.864255671215,2120.8634077924653,left,1,3,0.9076764946221374,T18N09,2022-11-23_14h26.17.836,t1_Paradigm,2021.1.4,59.987741460574746,
R,left,Distractor,0,44,44,44,2122.364176914416,2124.3657575040997,left,1,3,0.7972729293687735,T18N09,2022-11-23_14h26.17.836,t1_Paradigm,2021.1.4,59.987741460574746,
W,right,Target,0,45,45,45,2125.8641542978876,2127.866102847096,left,0,3,0.8969562660786323,T18N09,2022-11-23_14h26.17.836,t1_Paradigm,2021.1.4,59.987741460574746,
S,right,Target,0,46,46,46,2129.364218297822,2131.366044942377,right,1,3,0.436942105909111,T18N09,2022-11-23_14h26.17.836,t1_Paradigm,2021.1.4,59.987741460574746,
D,left,Distractor,0,47,47,47,2132.86337346668,2134.8657243011403,left,1,3,0.569290107669076,T18N09,2022-11-23_14h26.17.836,t1_Paradigm,2021.1.4,59.987741460574746,
T,left,Distractor,0,48,48,48,2136.36412494455,2138.3658065867785,left,1,3,0.7972517564485315,T18N09,2022-11-23_14h26.17.836,t1_Paradigm,2021.1.4,59.987741460574746,
S,right,Target,0,49,49,49,2139.864019240398,2141.865544010623,right,1,3,1.201404726220062,T18N09,2022-11-23_14h26.17.836,t1_Paradigm,2021.1.4,59.987741460574746,
K,left,Distractor,0,50,50,50,2143.3641377766035,2145.365652601962,left,1,3,0.9816264066030271,T18N09,2022-11-23_14h26.17.836,t1_Paradigm,2021.1.4,59.987741460574746,
S,left,Lure,0,51,51,51,2146.864129596157,2148.8660418947693,left,1,3,1.352893037343165,T18N09,2022-11-23_14h26.17.836,t1_Paradigm,2021.1.4,59.987741460574746,
T,left,Pretarget,0,52,52,52,2150.3632157926913,2152.3634406746423,left,1,3,1.087531049590325,T18N09,2022-11-23_14h26.17.836,t1_Paradigm,2021.1.4,59.987741460574746,
V,left,Distractor,0,53,53,53,2153.8638598019897,2155.8661445512844,left,1,3,1.00860325852409,T18N09,2022-11-23_14h26.17.836,t1_Paradigm,2021.1.4,59.987741460574746,
B,left,Distractor,0,54,54,54,2157.364101846819,2159.3657238199376,left,1,3,0.901276501826942,T18N09,2022-11-23_14h26.17.836,t1_Paradigm,2021.1.4,59.987741460574746,
T,right,Target,0,55,55,55,2160.864252463187,2162.866080390959,left,0,3,0.8889612474886235,T18N09,2022-11-23_14h26.17.836,t1_Paradigm,2021.1.4,59.987741460574746,
Y,left,Pretarget,0,56,56,56,2164.364163761551,2166.3651024271676,left,1,3,0.7823566152947024,T18N09,2022-11-23_14h26.17.836,t1_Paradigm,2021.1.4,59.987741460574746,
T,left,Lure,0,57,57,57,2167.8638485739357,2169.8659572031465,left,1,3,1.1529851715895347,T18N09,2022-11-23_14h26.17.836,t1_Paradigm,2021.1.4,59.987741460574746,
P,left,Pretarget,0,58,58,58,2171.3640075311414,2173.3659868772957,left,1,3,1.092921158822719,T18N09,2022-11-23_14h26.17.836,t1_Paradigm,2021.1.4,59.987741460574746,
Y,right,Target,0,59,59,59,2174.864089495968,2176.8770216518606,left,0,3,0.6538457220012788,T18N09,2022-11-23_14h26.17.836,t1_Paradigm,2021.1.4,59.987741460574746,
R,left,Distractor,0,60,60,60,2178.3641583079007,2180.36484289862,left,1,3,0.5898576634936035,T18N09,2022-11-23_14h26.17.836,t1_Paradigm,2021.1.4,59.987741460574746,
P,right,Target,0,61,61,61,2181.8641587891034,2183.866218656476,right,1,3,0.561080151994247,T18N09,2022-11-23_14h26.17.836,t1_Paradigm,2021.1.4,59.987741460574746,
L,left,Distractor,0,62,62,62,2185.364141305414,2187.3656882109644,left,1,3,0.741352390643442,T18N09,2022-11-23_14h26.17.836,t1_Paradigm,2021.1.4,59.987741460574746,
V,left,Distractor,0,63,63,63,2188.880585116538,2190.8654429581075,left,1,3,0.5857129062642343,T18N09,2022-11-23_14h26.17.836,t1_Paradigm,2021.1.4,59.987741460574746,
H,left,Lure,0,0,0,0,2203.1443325096334,2205.149229546718,left,1,3,0.5418503389519174,T18N09,2022-11-23_14h26.17.836,t1_Paradigm,2021.1.4,59.987741460574746,
B,left,Distractor,0,1,1,1,2206.6473190125253,2208.6488248554524,left,1,3,0.5940717139164917,T18N09,2022-11-23_14h26.17.836,t1_Paradigm,2021.1.4,59.987741460574746,
T,left,Distractor,0,2,2,2,2210.1474118846236,2212.1464648781694,left,1,3,0.6326044826710131,T18N09,2022-11-23_14h26.17.836,t1_Paradigm,2021.1.4,59.987741460574746,
R,left,Distractor,0,3,3,3,2213.647431293124,2215.6491969853523,left,1,3,0.633684301021276,T18N09,2022-11-23_14h26.17.836,t1_Paradigm,2021.1.4,59.987741460574746,
H,left,Pretarget,0,4,4,4,2217.14734451627,2219.1490412361745,left,1,3,0.6219262791564688,T18N09,2022-11-23_14h26.17.836,t1_Paradigm,2021.1.4,59.987741460574746,
K,left,Distractor,0,5,5,5,2220.647327994986,2222.64873663499,left,1,3,0.594156726350775,T18N09,2022-11-23_14h26.17.836,t1_Paradigm,2021.1.4,59.987741460574746,
G,left,Distractor,0,6,6,6,2224.1473480450804,2226.1490752411482,left,1,3,0.7097893584577832,T18N09,2022-11-23_14h26.17.836,t1_Paradigm,2021.1.4,59.987741460574746,
H,right,Target,0,7,7,7,2227.647513418342,2229.6492662785167,left,0,3,1.0175626068667043,T18N09,2022-11-23_14h26.17.836,t1_Paradigm,2021.1.4,59.987741460574746,
Y,left,Pretarget,0,8,8,8,2231.147326551378,2233.1491608951765,left,1,3,1.11765592804295,T18N09,2022-11-23_14h26.17.836,t1_Paradigm,2021.1.4,59.987741460574746,
S,left,Distractor,0,9,9,9,2234.6473215789592,2236.6487796224246,left,1,3,1.1061773244000506,T18N09,2022-11-23_14h26.17.836,t1_Paradigm,2021.1.4,59.987741460574746,
P,left,Distractor,0,10,10,10,2238.1473053784575,2240.149306539126,left,1,3,0.9174493959581014,T18N09,2022-11-23_14h26.17.836,t1_Paradigm,2021.1.4,59.987741460574746,
Y,right,Target,0,11,11,11,2241.6472554938227,2243.6485515324457,right,1,3,0.4904284017102327,T18N09,2022-11-23_14h26.17.836,t1_Paradigm,2021.1.4,59.987741460574746,
H,left,Lure,0,12,12,12,2245.147369538783,2247.1493504889368,left,1,3,0.8137663043453358,T18N09,2022-11-23_14h26.17.836,t1_Paradigm,2021.1.4,59.987741460574746,
Q,left,Distractor,0,13,13,13,2248.6473462806607,2250.6491867197037,left,1,3,0.7856615138589405,T18N09,2022-11-23_14h26.17.836,t1_Paradigm,2021.1.4,59.987741460574746,
V,left,Pretarget,0,14,14,14,2252.147406110191,2254.1492417372065,left,1,3,0.6779247726371977,T18N09,2022-11-23_14h26.17.836,t1_Paradigm,2021.1.4,59.987741460574746,
G,left,Distractor,0,15,15,15,2255.647376756824,2257.648967932997,left,1,3,0.7141076693951618,T18N09,2022-11-23_14h26.17.836,t1_Paradigm,2021.1.4,59.987741460574746,
Z,left,Pretarget,0,16,16,16,2259.147348365892,2261.148324244481,left,1,3,0.7504605909634847,T18N09,2022-11-23_14h26.17.836,t1_Paradigm,2021.1.4,59.987741460574746,
V,right,Target,0,17,17,17,2262.6473834936623,2264.647631152533,right,1,3,0.8831576249212958,T18N09,2022-11-23_14h26.17.836,t1_Paradigm,2021.1.4,59.987741460574746,
N,left,Distractor,0,18,18,18,2266.1474000149465,2268.1463930186,left,1,3,0.8564079005736858,T18N09,2022-11-23_14h26.17.836,t1_Paradigm,2021.1.4,59.987741460574746,
Z,right,Target,0,19,19,19,2269.6472830827406,2271.6484713320388,left,0,3,0.7942615643260069,T18N09,2022-11-23_14h26.17.836,t1_Paradigm,2021.1.4,59.987741460574746,
R,left,Distractor,0,20,20,20,2273.147337779432,2275.1486716726795,left,1,3,0.7501369021192659,T18N09,2022-11-23_14h26.17.836,t1_Paradigm,2021.1.4,59.987741460574746,
P,left,Distractor,0,21,21,21,2276.6473722656083,2278.6488967150217,left,1,3,1.10602462280076,T18N09,2022-11-23_14h26.17.836,t1_Paradigm,2021.1.4,59.987741460574746,
Z,right,Target,0,22,22,22,2280.14725501262,2282.149081657175,right,1,3,0.6459122973319609,T18N09,2022-11-23_14h26.17.836,t1_Paradigm,2021.1.4,59.987741460574746,
D,left,Pretarget,0,23,23,23,2283.6473032932554,2285.6491825492994,left,1,3,0.6016140814172104,T18N09,2022-11-23_14h26.17.836,t1_Paradigm,2021.1.4,59.987741460574746,
K,left,Distractor,0,24,24,24,2287.1473146817007,2289.1490893564187,left,1,3,1.2618873851315584,T18N09,2022-11-23_14h26.17.836,t1_Paradigm,2021.1.4,59.987741460574746,
W,left,Distractor,0,25,25,25,2290.6472955940117,2292.6490320933226,left,1,3,0.8177541896002367,T18N09,2022-11-23_14h26.17.836,t1_Paradigm,2021.1.4,59.987741460574746,
D,right,Target,0,26,26,26,2294.147306982486,2296.1492523236375,left,0,3,0.6457117963000201,T18N09,2022-11-23_14h26.17.836,t1_Paradigm,2021.1.4,59.987741460574746,
G,left,Pretarget,0,27,27,27,2297.6473356942297,2299.64917035884,left,1,3,0.8896971664507873,T18N09,2022-11-23_14h26.17.836,t1_Paradigm,2021.1.4,59.987741460574746,
V,left,Distractor,0,28,28,28,2301.1472883759707,2303.148901366658,left,1,3,0.6059968734916765,T18N09,2022-11-23_14h26.17.836,t1_Paradigm,2021.1.4,59.987741460574746,
D,right,Target,0,29,29,29,2304.647245869768,2306.649194098136,right,1,3,0.7375637232325971,T18N09,2022-11-23_14h26.17.836,t1_Paradigm,2021.1.4,59.987741460574746,
G,right,Target,0,30,30,30,2308.1471700001566,2310.1488651160616,right,1,3,0.613994458457455,T18N09,2022-11-23_14h26.17.836,t1_Paradigm,2021.1.4,59.987741460574746,
B,left,Pretarget,0,31,31,31,2311.647304897255,2313.6484344398486,left,1,3,0.6503486632718705,T18N09,2022-11-23_14h26.17.836,t1_Paradigm,2021.1.4,59.987741460574746,
N,left,Distractor,0,32,32,32,2315.1472829223494,2317.149155441555,left,1,3,0.8777976710407529,T18N09,2022-11-23_14h26.17.836,t1_Paradigm,2021.1.4,59.987741460574746,
F,left,Distractor,0,33,33,33,2318.647237849713,2320.6490215068625,left,1,3,0.9459163715073373,T18N09,2022-11-23_14h26.17.836,t1_Paradigm,2021.1.4,59.987741460574746,
B,right,Target,0,34,34,34,2322.1472980000253,2324.148554259271,left,0,3,0.7899256093078293,T18N09,2022-11-23_14h26.17.836,t1_Paradigm,2021.1.4,59.987741460574746,
Q,left,Pretarget,0,35,35,35,2325.646299504908,2327.648942268861,left,1,3,0.6337635390518699,T18N09,2022-11-23_14h26.17.836,t1_Paradigm,2021.1.4,59.987741460574746,
S,left,Pretarget,0,36,36,36,2329.1472469925648,2331.1486909207597,left,1,3,0.6221720132161863,T18N09,2022-11-23_14h26.17.836,t1_Paradigm,2021.1.4,59.987741460574746,
W,left,Distractor,0,37,37,37,2332.647201919928,2334.649096253648,left,1,3,0.8336399662366603,T18N09,2022-11-23_14h26.17.836,t1_Paradigm,2021.1.4,59.987741460574746,
Q,right,Target,0,38,38,38,2336.1471645465354,2338.1488368855207,right,1,3,0.646072698145872,T18N09,2022-11-23_14h26.17.836,t1_Paradigm,2021.1.4,59.987741460574746,
S,right,Target,0,39,39,39,2339.647284686769,2341.6490397925663,right,1,3,1.049699553201208,T18N09,2022-11-23_14h26.17.836,t1_Paradigm,2021.1.4,59.987741460574746,
T,left,Distractor,0,40,40,40,2343.1472081755637,2345.1488631912507,left,1,3,0.89402638465981,T18N09,2022-11-23_14h26.17.836,t1_Paradigm,2021.1.4,59.987741460574746,
G,left,Distractor,0,41,41,41,2346.6471967871184,2348.648654830584,left,1,3,0.7700833859562408,T18N09,2022-11-23_14h26.17.836,t1_Paradigm,2021.1.4,59.987741460574746,
D,left,Distractor,0,42,42,42,2350.147276185511,2352.148301788373,left,1,3,0.8864253104839008,T18N09,2022-11-23_14h26.17.836,t1_Paradigm,2021.1.4,59.987741460574746,
S,left,Lure,0,43,43,43,2353.6471749726043,2355.663444428006,left,1,3,0.5233416880655568,T18N09,2022-11-23_14h26.17.836,t1_Paradigm,2021.1.4,59.987741460574746,
Z,left,Pretarget,0,44,44,44,2357.1471343911835,2359.1489629605494,left,1,3,0.5578727771353442,T18N09,2022-11-23_14h26.17.836,t1_Paradigm,2021.1.4,59.987741460574746,
J,left,Distractor,0,45,45,45,2360.6470989426016,2362.6490792511613,left,1,3,0.6737309327581897,T18N09,2022-11-23_14h26.17.836,t1_Paradigm,2021.1.4,59.987741460574746,
M,left,Pretarget,0,46,46,46,2364.1472521254036,2366.149030970526,left,1,3,0.7736590410931967,T18N09,2022-11-23_14h26.17.836,t1_Paradigm,2021.1.4,59.987741460574746,
Z,right,Target,0,47,47,47,2367.647199674335,2369.6487395222066,left,0,3,0.6019547727482859,T18N09,2022-11-23_14h26.17.836,t1_Paradigm,2021.1.4,59.987741460574746,
P,left,Distractor,0,48,48,48,2371.147238010133,2373.1492186394753,left,1,3,0.5580954134638887,T18N09,2022-11-23_14h26.17.836,t1_Paradigm,2021.1.4,59.987741460574746,
M,right,Target,0,49,49,49,2374.6471021506295,2376.6491280129994,right,1,3,0.5297458512941375,T18N09,2022-11-23_14h26.17.836,t1_Paradigm,2021.1.4,59.987741460574746,
K,left,Distractor,0,50,50,50,2378.1473573483236,2380.1487156224903,left,1,3,0.5499775278440211,T18N09,2022-11-23_14h26.17.836,t1_Paradigm,2021.1.4,59.987741460574746,
Y,left,Distractor,0,51,51,51,2381.647181388631,2383.6489839730784,left,1,3,0.6016971690405626,T18N09,2022-11-23_14h26.17.836,t1_Paradigm,2021.1.4,59.987741460574746,
X,left,Distractor,0,52,52,52,2385.147162300942,2387.1473416290537,left,1,3,0.7835028395638801,T18N09,2022-11-23_14h26.17.836,t1_Paradigm,2021.1.4,59.987741460574746,
F,left,Pretarget,0,53,53,53,2388.647176255792,2390.6491812660825,left,1,3,0.8014635612489656,T18N09,2022-11-23_14h26.17.836,t1_Paradigm,2021.1.4,59.987741460574746,
M,left,Lure,0,54,54,54,2392.1469358149625,2394.1488375271147,right,0,3,1.2218304877751507,T18N09,2022-11-23_14h26.17.836,t1_Paradigm,2021.1.4,59.987741460574746,
V,left,Distractor,0,55,55,55,2395.6471897294687,2397.648923341563,left,1,3,1.1299352525966242,T18N09,2022-11-23_14h26.17.836,t1_Paradigm,2021.1.4,59.987741460574746,
F,right,Target,0,56,56,56,2399.147204967536,2401.1490405945515,left,0,3,0.9577510649687611,T18N09,2022-11-23_14h26.17.836,t1_Paradigm,2021.1.4,59.987741460574746,
S,left,Distractor,0,57,57,57,2402.647139363602,2404.648344615387,left,1,3,0.946511458576424,T18N09,2022-11-23_14h26.17.836,t1_Paradigm,2021.1.4,59.987741460574746,
D,left,Distractor,0,58,58,58,2406.1472716942953,2408.1487813868443,left,1,3,0.6300630920741241,T18N09,2022-11-23_14h26.17.836,t1_Paradigm,2021.1.4,59.987741460574746,
F,right,Target,0,59,59,59,2409.6471140202775,2411.6487096876663,right,1,3,0.553965413098922,T18N09,2022-11-23_14h26.17.836,t1_Paradigm,2021.1.4,59.987741460574746,
V,left,Pretarget,0,60,60,60,2413.1471956642927,2415.1483884048066,left,1,3,0.7825917629234027,T18N09,2022-11-23_14h26.17.836,t1_Paradigm,2021.1.4,59.987741460574746,
J,left,Distractor,0,61,61,61,2416.6471614989277,2418.6489996923483,left,1,3,1.0737186139740516,T18N09,2022-11-23_14h26.17.836,t1_Paradigm,2021.1.4,59.987741460574746,
V,left,Lure,0,62,62,62,2420.146834762447,2422.1482818986697,None,0,3,,T18N09,2022-11-23_14h26.17.836,t1_Paradigm,2021.1.4,59.987741460574746,
V,right,Target,0,63,63,63,2423.647011042951,2425.647168235766,right,1,3,0.8755754780431744,T18N09,2022-11-23_14h26.17.836,t1_Paradigm,2021.1.4,59.987741460574746,
R,left,Distractor,0,0,0,0,2500.3613609175663,2502.3655075996357,left,1,4,0.5251458765123971,T18N09,2022-11-23_14h26.17.836,t1_Paradigm,2021.1.4,59.987741460574746,
F,left,Distractor,0,1,1,1,2503.863669887418,2505.8654034994834,left,1,4,0.5293432452599518,T18N09,2022-11-23_14h26.17.836,t1_Paradigm,2021.1.4,59.987741460574746,
P,left,Pretarget,0,2,2,2,2507.363654970133,2509.365311269037,left,1,4,0.5812008311331738,T18N09,2022-11-23_14h26.17.836,t1_Paradigm,2021.1.4,59.987741460574746,
H,left,Distractor,0,3,3,3,2510.863666037796,2512.8652754996438,left,1,4,0.6973701643582899,T18N09,2022-11-23_14h26.17.836,t1_Paradigm,2021.1.4,59.987741460574746,
Z,left,Distractor,0,4,4,4,2514.3636411756743,2516.365234276629,left,1,4,0.7492800409090705,T18N09,2022-11-23_14h26.17.836,t1_Paradigm,2021.1.4,59.987741460574746,
T,left,Distractor,0,5,5,5,2517.8636519225256,2519.8652825572644,left,1,4,0.657481687841937,T18N09,2022-11-23_14h26.17.836,t1_Paradigm,2021.1.4,59.987741460574746,
P,right,Target,0,6,6,6,2521.3637800827855,2523.365549303853,left,0,4,1.0451576435298193,T18N09,2022-11-23_14h26.17.836,t1_Paradigm,2021.1.4,59.987741460574746,
G,left,Distractor,0,7,7,7,2524.8628726953175,2526.8654981359723,left,1,4,0.9051206679432653,T18N09,2022-11-23_14h26.17.836,t1_Paradigm,2021.1.4,59.987741460574746,
L,left,Distractor,0,8,8,8,2528.3627419686527,2530.3642930446076,left,1,4,1.0542276684427634,T18N09,2022-11-23_14h26.17.836,t1_Paradigm,2021.1.4,59.987741460574746,
P,left,Lure,0,9,9,9,2531.863708062796,2533.8657146770856,right,0,4,1.2811906617425848,T18N09,2022-11-23_14h26.17.836,t1_Paradigm,2021.1.4,59.987741460574746,
Q,left,Pretarget,0,10,10,10,2535.363666839781,2537.3653760709567,left,1,4,1.1892274166166317,T18N09,2022-11-23_14h26.17.836,t1_Paradigm,2021.1.4,59.987741460574746,
D,left,Distractor,0,11,11,11,2538.863538358739,2540.8649444323382,left,1,4,0.5056299084681086,T18N09,2022-11-23_14h26.17.836,t1_Paradigm,2021.1.4,59.987741460574746,
M,left,Pretarget,0,12,12,12,2542.3636347596184,2544.3652878504945,left,1,4,0.7653676017944235,T18N09,2022-11-23_14h26.17.836,t1_Paradigm,2021.1.4,59.987741460574746,
C,left,Distractor,0,13,13,13,2545.8636336368218,2547.8654240308097,left,1,4,0.7211021076363977,T18N09,2022-11-23_14h26.17.836,t1_Paradigm,2021.1.4,59.987741460574746,
Q,right,Target,0,14,14,14,2549.3636892959184,2551.3656699252606,right,1,4,0.5327819180674851,T18N09,2022-11-23_14h26.17.836,t1_Paradigm,2021.1.4,59.987741460574746,
R,left,Distractor,0,15,15,15,2552.8636249751726,2554.865460923,left,1,4,0.7452196544909384,T18N09,2022-11-23_14h26.17.836,t1_Paradigm,2021.1.4,59.987741460574746,
M,right,Target,0,16,16,16,2556.3636071707006,2558.365501183609,right,1,4,0.6208034734008834,T18N09,2022-11-23_14h26.17.836,t1_Paradigm,2021.1.4,59.987741460574746,
S,left,Distractor,0,17,17,17,2559.8635823085497,2561.8652719708334,left,1,4,0.7852069379296154,T18N09,2022-11-23_14h26.17.836,t1_Paradigm,2021.1.4,59.987741460574746,
Z,left,Distractor,0,18,18,18,2563.3636559325387,2565.364698858699,left,1,4,0.8377876107115299,T18N09,2022-11-23_14h26.17.836,t1_Paradigm,2021.1.4,59.987741460574746,
L,left,Pretarget,0,19,19,19,2566.8636756618507,2568.863956042478,left,1,4,0.9066412677348126,T18N09,2022-11-23_14h26.17.836,t1_Paradigm,2021.1.4,59.987741460574746,
M,right,Target,0,20,20,20,2570.363513496617,2572.3652628279815,left,0,4,1.1652747617918067,T18N09,2022-11-23_14h26.17.836,t1_Paradigm,2021.1.4,59.987741460574746,
P,left,Distractor,0,21,21,21,2573.8635255266563,2575.865299880563,left,1,4,0.8491096631623805,T18N09,2022-11-23_14h26.17.836,t1_Paradigm,2021.1.4,59.987741460574746,
F,left,Distractor,0,22,22,22,2577.363534669508,2579.3651588882494,left,1,4,0.6133987298235297,T18N09,2022-11-23_14h26.17.836,t1_Paradigm,2021.1.4,59.987741460574746,
L,right,Target,0,23,23,23,2580.863590970199,2582.8650108382863,left,0,4,0.6174061839701608,T18N09,2022-11-23_14h26.17.836,t1_Paradigm,2021.1.4,59.987741460574746,
L,left,Lure,0,24,24,24,2584.3637380577566,2586.3636216067534,left,1,4,0.7988993937324267,T18N09,2022-11-23_14h26.17.836,t1_Paradigm,2021.1.4,59.987741460574746,
V,left,Pretarget,0,25,25,25,2587.8634770856297,2589.8650496552873,left,1,4,0.8656116997590289,T18N09,2022-11-23_14h26.17.836,t1_Paradigm,2021.1.4,59.987741460574746,
Z,left,Distractor,0,26,26,26,2591.3635532760236,2593.36511333441,left,1,4,0.789437349216314,T18N09,2022-11-23_14h26.17.836,t1_Paradigm,2021.1.4,59.987741460574746,
H,left,Distractor,0,27,27,27,2594.863605406281,2596.8656126621645,left,1,4,0.616842856281437,T18N09,2022-11-23_14h26.17.836,t1_Paradigm,2021.1.4,59.987741460574746,
X,left,Distractor,0,28,28,28,2598.3637091856217,2600.365466857824,left,1,4,0.5887178552802652,T18N09,2022-11-23_14h26.17.836,t1_Paradigm,2021.1.4,59.987741460574746,
V,right,Target,0,29,29,29,2601.863333366491,2603.8637715815275,right,1,4,1.314877400844125,T18N09,2022-11-23_14h26.17.836,t1_Paradigm,2021.1.4,59.987741460574746,
C,left,Distractor,0,30,30,30,2605.3633296772605,2607.3653898654156,right,0,4,1.3651335449249018,T18N09,2022-11-23_14h26.17.836,t1_Paradigm,2021.1.4,59.987741460574746,
S,left,Pretarget,0,31,31,31,2608.8635021081427,2610.8762292718166,left,1,4,0.830350786971394,T18N09,2022-11-23_14h26.17.836,t1_Paradigm,2021.1.4,59.987741460574746,
D,left,Distractor,0,32,32,32,2612.3635847145633,2614.365426116012,left,1,4,0.6851046342635527,T18N09,2022-11-23_14h26.17.836,t1_Paradigm,2021.1.4,59.987741460574746,
V,left,Distractor,0,33,33,33,2615.8636073310918,2617.8643060370814,left,1,4,0.7062871668604203,T18N09,2022-11-23_14h26.17.836,t1_Paradigm,2021.1.4,59.987741460574746,
R,left,Distractor,0,34,34,34,2619.3633351308818,2621.365472311445,left,1,4,0.9009425473050214,T18N09,2022-11-23_14h26.17.836,t1_Paradigm,2021.1.4,59.987741460574746,
S,right,Target,0,35,35,35,2622.8635736469296,2624.865171880723,right,1,4,0.5852451774699148,T18N09,2022-11-23_14h26.17.836,t1_Paradigm,2021.1.4,59.987741460574746,
Y,left,Distractor,0,36,36,36,2626.363572524104,2628.3648085728346,left,1,4,0.7015806859417353,T18N09,2022-11-23_14h26.17.836,t1_Paradigm,2021.1.4,59.987741460574746,
N,left,Pretarget,0,37,37,37,2629.8632547700836,2631.865583469218,left,1,4,0.7688861542264931,T18N09,2022-11-23_14h26.17.836,t1_Paradigm,2021.1.4,59.987741460574746,
Z,left,Pretarget,0,38,38,38,2633.3636716518085,2635.3648579762958,left,1,4,0.741577914217487,T18N09,2022-11-23_14h26.17.836,t1_Paradigm,2021.1.4,59.987741460574746,
P,left,Pretarget,0,39,39,39,2636.863481897657,2638.8656213238137,left,1,4,0.744980978051899,T18N09,2022-11-23_14h26.17.836,t1_Paradigm,2021.1.4,59.987741460574746,
M,left,Distractor,0,40,40,40,2640.3634750003985,2642.365434136067,left,1,4,0.65293528692564,T18N09,2022-11-23_14h26.17.836,t1_Paradigm,2021.1.4,59.987741460574746,
N,right,Target,0,41,41,41,2643.863451742305,2645.8649418659334,left,0,4,0.6255952875653747,T18N09,2022-11-23_14h26.17.836,t1_Paradigm,2021.1.4,59.987741460574746,
Z,right,Target,0,42,42,42,2647.363614869915,2649.365402697498,left,0,4,0.7890873546130024,T18N09,2022-11-23_14h26.17.836,t1_Paradigm,2021.1.4,59.987741460574746,
P,right,Target,0,43,43,43,2650.863548945199,2652.864664051711,left,0,4,1.0497232925263233,T18N09,2022-11-23_14h26.17.836,t1_Paradigm,2021.1.4,59.987741460574746,
X,left,Pretarget,0,44,44,44,2654.363470829994,2656.3647723222675,left,1,4,0.7016018588619772,T18N09,2022-11-23_14h26.17.836,t1_Paradigm,2021.1.4,59.987741460574746,
Z,left,Lure,0,45,45,45,2657.863527130685,2659.8647971843893,left,1,4,1.3776412802399136,T18N09,2022-11-23_14h26.17.836,t1_Paradigm,2021.1.4,59.987741460574746,
R,left,Pretarget,0,46,46,46,2661.363664594188,2663.3638991001935,left,1,4,0.8544561433664057,T18N09,2022-11-23_14h26.17.836,t1_Paradigm,2021.1.4,59.987741460574746,
K,left,Distractor,0,47,47,47,2664.8635309803067,2666.864466117084,left,1,4,0.8260568569530733,T18N09,2022-11-23_14h26.17.836,t1_Paradigm,2021.1.4,59.987741460574746,
X,right,Target,0,48,48,48,2668.3637755915406,2670.364682497806,right,1,4,1.2138893638330046,T18N09,2022-11-23_14h26.17.836,t1_Paradigm,2021.1.4,59.987741460574746,
B,left,Distractor,0,49,49,49,2671.863376033114,2673.865280953265,left,1,4,0.9132857114018407,T18N09,2022-11-23_14h26.17.836,t1_Paradigm,2021.1.4,59.987741460574746,
R,right,Target,0,50,50,50,2675.363440353831,2677.3649641616503,left,0,4,0.8054267447732855,T18N09,2022-11-23_14h26.17.836,t1_Paradigm,2021.1.4,59.987741460574746,
Y,left,Pretarget,0,51,51,51,2678.863411000493,2680.8638399122865,left,1,4,0.6505145177070517,T18N09,2022-11-23_14h26.17.836,t1_Paradigm,2021.1.4,59.987741460574746,
W,left,Pretarget,0,52,52,52,2682.3634294465883,2684.365244863089,left,1,4,0.7170131698658224,T18N09,2022-11-23_14h26.17.836,t1_Paradigm,2021.1.4,59.987741460574746,
Z,left,Distractor,0,53,53,53,2685.8635268098733,2687.8646053450066,left,1,4,0.9299093318113592,T18N09,2022-11-23_14h26.17.836,t1_Paradigm,2021.1.4,59.987741460574746,
Q,left,Distractor,0,54,54,54,2689.3633553413965,2691.365179740358,left,1,4,0.9170949101389851,T18N09,2022-11-23_14h26.17.836,t1_Paradigm,2021.1.4,59.987741460574746,
Y,right,Target,0,55,55,55,2692.8631219581875,2694.864196002105,left,0,4,0.7303094356320798,T18N09,2022-11-23_14h26.17.836,t1_Paradigm,2021.1.4,59.987741460574746,
W,right,Target,0,56,56,56,2696.3634560731007,2698.3655326221487,left,0,4,0.6367187637952156,T18N09,2022-11-23_14h26.17.836,t1_Paradigm,2021.1.4,59.987741460574746,
H,left,Pretarget,0,57,57,57,2699.8631408854853,2701.865340622375,left,1,4,0.5611234602110926,T18N09,2022-11-23_14h26.17.836,t1_Paradigm,2021.1.4,59.987741460574746,
M,left,Distractor,0,58,58,58,2703.3632013566094,2705.3653856950114,left,1,4,0.7570341374666896,T18N09,2022-11-23_14h26.17.836,t1_Paradigm,2021.1.4,59.987741460574746,
R,left,Pretarget,0,59,59,59,2706.8624466707406,2708.864892462472,left,1,4,0.633421885286225,T18N09,2022-11-23_14h26.17.836,t1_Paradigm,2021.1.4,59.987741460574746,
J,left,Distractor,0,60,60,60,2710.363434579398,2712.3654934843653,left,1,4,0.9089119017589837,T18N09,2022-11-23_14h26.17.836,t1_Paradigm,2021.1.4,59.987741460574746,
H,right,Target,0,61,61,61,2713.863428644574,2715.8652398906706,None,0,4,,T18N09,2022-11-23_14h26.17.836,t1_Paradigm,2021.1.4,59.987741460574746,
Z,left,Distractor,0,62,62,62,2717.3635468599678,2719.364704953914,left,1,4,1.0776089754945133,T18N09,2022-11-23_14h26.17.836,t1_Paradigm,2021.1.4,59.987741460574746,
R,right,Target,0,63,63,63,2720.863362238626,2722.864914597798,left,0,4,0.5693950098066125,T18N09,2022-11-23_14h26.17.836,t1_Paradigm,2021.1.4,59.987741460574746,
J,left,Pretarget,0,0,0,0,2760.094399412803,2762.096157726628,left,1,4,0.5381774809502531,T18N09,2022-11-23_14h26.17.836,t1_Paradigm,2021.1.4,59.987741460574746,
G,left,Pretarget,0,1,1,1,2763.5966394103016,2765.598597904318,left,1,4,0.4598572881659493,T18N09,2022-11-23_14h26.17.836,t1_Paradigm,2021.1.4,59.987741460574746,
Z,left,Distractor,0,2,2,2,2767.096591129637,2769.09862469128,left,1,4,0.7037127336952835,T18N09,2022-11-23_14h26.17.836,t1_Paradigm,2021.1.4,59.987741460574746,
F,left,Distractor,0,3,3,3,2770.5966464679223,2772.6130849858164,left,1,4,0.6932667905057315,T18N09,2022-11-23_14h26.17.836,t1_Paradigm,2021.1.4,59.987741460574746,
J,right,Target,0,4,4,4,2774.096637004288,2776.0987966409593,right,1,4,0.47154762092395686,T18N09,2022-11-23_14h26.17.836,t1_Paradigm,2021.1.4,59.987741460574746,
G,right,Target,0,5,5,5,2777.5967122322763,2779.598468942073,right,1,4,0.5078527430596296,T18N09,2022-11-23_14h26.17.836,t1_Paradigm,2021.1.4,59.987741460574746,
H,left,Distractor,0,6,6,6,2781.0964223879855,2783.097723238636,left,1,4,0.8330208190891426,T18N09,2022-11-23_14h26.17.836,t1_Paradigm,2021.1.4,59.987741460574746,
P,left,Distractor,0,7,7,7,2784.5967234603304,2786.598237002472,left,1,4,0.660067669901764,T18N09,2022-11-23_14h26.17.836,t1_Paradigm,2021.1.4,59.987741460574746,
G,left,Lure,0,8,8,8,2788.0966960317746,2790.098504390655,left,1,4,1.1444932312588207,T18N09,2022-11-23_14h26.17.836,t1_Paradigm,2021.1.4,59.987741460574746,
S,left,Distractor,0,9,9,9,2791.596966627956,2793.5985218743444,left,1,4,0.8438145112013444,T18N09,2022-11-23_14h26.17.836,t1_Paradigm,2021.1.4,59.987741460574746,
R,left,Pretarget,0,10,10,10,2795.096815369994,2797.0981807017815,left,1,4,0.8961731892777607,T18N09,2022-11-23_14h26.17.836,t1_Paradigm,2021.1.4,59.987741460574746,
T,left,Pretarget,0,11,11,11,2798.596642297518,2800.598426917044,left,1,4,0.7078886087110732,T18N09,2022-11-23_14h26.17.836,t1_Paradigm,2021.1.4,59.987741460574746,
X,left,Distractor,0,12,12,12,2802.0966139065567,2804.0984405511117,left,1,4,0.6638531292846892,T18N09,2022-11-23_14h26.17.836,t1_Paradigm,2021.1.4,59.987741460574746,
F,left,Pretarget,0,13,13,13,2805.596391109808,2807.598228982446,left,1,4,0.8121552384691313,T18N09,2022-11-23_14h26.17.836,t1_Paradigm,2021.1.4,59.987741460574746,
R,right,Target,0,14,14,14,2809.0966623476124,2811.0980530227243,left,0,4,0.8803150015301071,T18N09,2022-11-23_14h26.17.836,t1_Paradigm,2021.1.4,59.987741460574746,
T,right,Target,0,15,15,15,2812.596572041948,2814.5981102858204,left,0,4,0.6760756719741039,T18N09,2022-11-23_14h26.17.836,t1_Paradigm,2021.1.4,59.987741460574746,
C,left,Distractor,0,16,16,16,2816.0965802223946,2818.0984087917604,left,1,4,1.4639500755583867,T18N09,2022-11-23_14h26.17.836,t1_Paradigm,2021.1.4,59.987741460574746,
F,right,Target,0,17,17,17,2819.5966333150573,2821.597921333654,right,1,4,0.9083598021534272,T18N09,2022-11-23_14h26.17.836,t1_Paradigm,2021.1.4,59.987741460574746,
M,left,Distractor,0,18,18,18,2823.0965920920426,2825.0983215337037,left,1,4,0.6239595199876931,T18N09,2022-11-23_14h26.17.836,t1_Paradigm,2021.1.4,59.987741460574746,
N,left,Distractor,0,19,19,19,2826.5966143877595,2828.5986726511037,left,1,4,0.5797100658819545,T18N09,2022-11-23_14h26.17.836,t1_Paradigm,2021.1.4,59.987741460574746,
R,left,Lure,0,20,20,20,2830.0965750895557,2832.098568230169,right,0,4,0.8713983198394999,T18N09,2022-11-23_14h26.17.836,t1_Paradigm,2021.1.4,59.987741460574746,
F,right,Target,0,21,21,21,2833.596602838894,2835.5985613329394,right,1,4,1.419605664210394,T18N09,2022-11-23_14h26.17.836,t1_Paradigm,2021.1.4,59.987741460574746,
P,left,Distractor,0,22,22,22,2837.0957259276183,2839.0977723212854,left,1,4,0.9762985328561626,T18N09,2022-11-23_14h26.17.836,t1_Paradigm,2021.1.4,59.987741460574746,
L,left,Pretarget,0,23,23,23,2840.5965579266776,2842.598611057212,left,1,4,0.7556505199754611,T18N09,2022-11-23_14h26.17.836,t1_Paradigm,2021.1.4,59.987741460574746,
T,left,Distractor,0,24,24,24,2844.096600112098,2846.0984148870048,left,1,4,1.2877507345401682,T18N09,2022-11-23_14h26.17.836,t1_Paradigm,2021.1.4,59.987741460574746,
F,left,Distractor,0,25,25,25,2847.596548944217,2849.5982713282574,left,1,4,1.0358329021255486,T18N09,2022-11-23_14h26.17.836,t1_Paradigm,2021.1.4,59.987741460574746,
V,left,Distractor,0,26,26,26,2851.0966071697185,2853.098682114767,left,1,4,0.6395969961595256,T18N09,2022-11-23_14h26.17.836,t1_Paradigm,2021.1.4,59.987741460574746,
L,right,Target,0,27,27,27,2854.5963433103752,2856.598285443528,right,1,4,0.515843591245357,T18N09,2022-11-23_14h26.17.836,t1_Paradigm,2021.1.4,59.987741460574746,
S,left,Pretarget,0,28,28,28,2858.0965256860945,2860.098275017488,left,1,4,0.583831083815312,T18N09,2022-11-23_14h26.17.836,t1_Paradigm,2021.1.4,59.987741460574746,
W,left,Distractor,0,29,29,29,2861.596633956651,2863.5956539076287,left,1,4,0.7986636045097839,T18N09,2022-11-23_14h26.17.836,t1_Paradigm,2021.1.4,59.987741460574746,
Q,left,Distractor,0,30,30,30,2865.096598828881,2867.0977498651773,left,1,4,0.6245279804861639,T18N09,2022-11-23_14h26.17.836,t1_Paradigm,2021.1.4,59.987741460574746,
L,right,Target,0,31,31,31,2868.596532583353,2870.5983589070966,left,0,4,1.1398958228819538,T18N09,2022-11-23_14h26.17.836,t1_Paradigm,2021.1.4,59.987741460574746,
S,right,Target,0,32,32,32,2872.0955947197217,2874.09809087732,left,0,4,1.4642063960782252,T18N09,2022-11-23_14h26.17.836,t1_Paradigm,2021.1.4,59.987741460574746,
Z,left,Pretarget,0,33,33,33,2875.5966840017063,2877.598180862202,left,1,4,1.0039349529833999,T18N09,2022-11-23_14h26.17.836,t1_Paradigm,2021.1.4,59.987741460574746,
F,left,Distractor,0,34,34,34,2879.096591129637,2881.098221764405,left,1,4,0.7198740789317526,T18N09,2022-11-23_14h26.17.836,t1_Paradigm,2021.1.4,59.987741460574746,
V,left,Distractor,0,35,35,35,2882.5964626485948,2884.6094060325413,left,1,4,0.6169426256092265,T18N09,2022-11-23_14h26.17.836,t1_Paradigm,2021.1.4,59.987741460574746,
M,left,Distractor,0,36,36,36,2886.0956457271823,2888.098545132467,left,1,4,0.7595142549835145,T18N09,2022-11-23_14h26.17.836,t1_Paradigm,2021.1.4,59.987741460574746,
Z,right,Target,0,37,37,37,2889.5964777262707,2891.5977256446495,right,1,4,0.8286303277418483,T18N09,2022-11-23_14h26.17.836,t1_Paradigm,2021.1.4,59.987741460574746,
H,left,Pretarget,0,38,38,38,2893.096494247555,2895.0976488126616,left,1,4,1.1044661684136372,T18N09,2022-11-23_14h26.17.836,t1_Paradigm,2021.1.4,59.987741460574746,
L,left,Distractor,0,39,39,39,2896.596503711189,2898.598777232459,left,1,4,0.995474772003945,T18N09,2022-11-23_14h26.17.836,t1_Paradigm,2021.1.4,59.987741460574746,
G,left,Distractor,0,40,40,40,2900.096466017014,2902.096744152019,left,1,4,0.953292563703144,T18N09,2022-11-23_14h26.17.836,t1_Paradigm,2021.1.4,59.987741460574746,
K,left,Distractor,0,41,41,41,2903.5966243326257,2905.598114456254,left,1,4,0.9241095588949975,T18N09,2022-11-23_14h26.17.836,t1_Paradigm,2021.1.4,59.987741460574746,
H,right,Target,0,42,42,42,2907.096662026801,2909.0979721807234,left,0,4,1.200115424435353,T18N09,2022-11-23_14h26.17.836,t1_Paradigm,2021.1.4,59.987741460574746,
B,left,Distractor,0,43,43,43,2910.596473876649,2912.598330997367,left,1,4,0.6119586512213573,T18N09,2022-11-23_14h26.17.836,t1_Paradigm,2021.1.4,59.987741460574746,
Z,left,Distractor,0,44,44,44,2914.096506117203,2916.0957538373477,left,1,4,0.5545835978700779,T18N09,2022-11-23_14h26.17.836,t1_Paradigm,2021.1.4,59.987741460574746,
T,left,Pretarget,0,45,45,45,2917.5962720924,2919.598317202879,left,1,4,0.8118963515444193,T18N09,2022-11-23_14h26.17.836,t1_Paradigm,2021.1.4,59.987741460574746,
H,right,Target,0,46,46,46,2921.0962343982246,2923.098000732076,left,0,4,0.8484109571727458,T18N09,2022-11-23_14h26.17.836,t1_Paradigm,2021.1.4,59.987741460574746,
F,left,Distractor,0,47,47,47,2924.5963869394036,2926.598017894954,left,1,4,0.7561570657708216,T18N09,2022-11-23_14h26.17.836,t1_Paradigm,2021.1.4,59.987741460574746,
R,left,Distractor,0,48,48,48,2928.0964907187154,2930.098154075269,left,1,4,0.967953519691946,T18N09,2022-11-23_14h26.17.836,t1_Paradigm,2021.1.4,59.987741460574746,
T,right,Target,0,49,49,49,2931.5962634307507,2933.609207135538,right,1,4,0.5289236367098056,T18N09,2022-11-23_14h26.17.836,t1_Paradigm,2021.1.4,59.987741460574746,
H,right,Target,0,50,50,50,2935.096519911691,2937.0981123710517,right,1,4,0.4960892675444484,T18N09,2022-11-23_14h26.17.836,t1_Paradigm,2021.1.4,59.987741460574746,
Y,left,Pretarget,0,51,51,51,2938.5963567840517,2940.598177654174,left,1,4,0.5800379251595587,T18N09,2022-11-23_14h26.17.836,t1_Paradigm,2021.1.4,59.987741460574746,
H,left,Distractor,0,52,52,52,2942.096398969472,2944.098362596327,left,1,4,0.6479529165953863,T18N09,2022-11-23_14h26.17.836,t1_Paradigm,2021.1.4,59.987741460574746,
S,left,Distractor,0,53,53,53,2945.596426077187,2947.5981260051194,left,1,4,0.6680857861938421,T18N09,2022-11-23_14h26.17.836,t1_Paradigm,2021.1.4,59.987741460574746,
Q,left,Distractor,0,54,54,54,2949.0964429192827,2951.098238766892,left,1,4,0.6718080476857722,T18N09,2022-11-23_14h26.17.836,t1_Paradigm,2021.1.4,59.987741460574746,
Y,right,Target,0,55,55,55,2952.596284603671,2954.598535989615,right,1,4,1.2034880121354945,T18N09,2022-11-23_14h26.17.836,t1_Paradigm,2021.1.4,59.987741460574746,
R,left,Distractor,0,56,56,56,2956.0963935158215,2958.0980668172124,left,1,4,0.8877790934056975,T18N09,2022-11-23_14h26.17.836,t1_Paradigm,2021.1.4,59.987741460574746,
H,left,Pretarget,0,57,57,57,2959.596384052187,2961.59820331831,left,1,4,0.7959797779622022,T18N09,2022-11-23_14h26.17.836,t1_Paradigm,2021.1.4,59.987741460574746,
J,left,Distractor,0,58,58,58,2963.096470829012,2965.0982445413247,left,1,4,0.9756527591671329,T18N09,2022-11-23_14h26.17.836,t1_Paradigm,2021.1.4,59.987741460574746,
V,left,Distractor,0,59,59,59,2966.596374748944,2968.598636079725,left,1,4,0.8515782318136189,T18N09,2022-11-23_14h26.17.836,t1_Paradigm,2021.1.4,59.987741460574746,
Y,left,Lure,0,60,60,60,2970.0964454856876,2972.097714897798,left,1,4,0.7124629193276633,T18N09,2022-11-23_14h26.17.836,t1_Paradigm,2021.1.4,59.987741460574746,
H,right,Target,0,61,61,61,2973.596116824425,2975.5977946170024,right,1,4,0.8923707273497712,T18N09,2022-11-23_14h26.17.836,t1_Paradigm,2021.1.4,59.987741460574746,
L,left,Distractor,0,62,62,62,2977.096380683768,2979.098301964812,left,1,4,0.7357203969731927,T18N09,2022-11-23_14h26.17.836,t1_Paradigm,2021.1.4,59.987741460574746,
P,left,Distractor,0,63,63,63,2980.596447570919,2982.598435578693,left,1,4,0.7716582012653816,T18N09,2022-11-23_14h26.17.836,t1_Paradigm,2021.1.4,59.987741460574746,
