Letter,CorrAnswer,Stimulus,nback_run.thisRepN,nback_run.thisTrialN,nback_run.thisN,nback_run.thisIndex,fixcross.started,nback_trial.started,trial_resp.keys,trial_resp.corr,currentlevel,trial_resp.rt,Participant,date,expName,psychopyVersion,frameRate
H,left,Distractor,0,0,0,0,242.9570817,244.8918591,None,0,1,,T18R03,2022-11-03_14h40.08.948,t1_Paradigm,04.01.2021,59.99946106
Q,left,Pretarget,0,1,1,1,246.3926335,248.3925045,left,1,1,0.469456066,T18R03,2022-11-03_14h40.08.948,t1_Paradigm,04.01.2021,59.99946106
Q,right,Target,0,2,2,2,249.8907834,251.8907433,right,1,1,1.067139487,T18R03,2022-11-03_14h40.08.948,t1_Paradigm,04.01.2021,59.99946106
T,left,Distractor,0,3,3,3,253.3904148,255.3912017,left,1,1,0.526951907,T18R03,2022-11-03_14h40.08.948,t1_Paradigm,04.01.2021,59.99946106
Q,left,Lure,0,4,4,4,256.8902583,258.8907799,left,1,1,1.267134547,T18R03,2022-11-03_14h40.08.948,t1_Paradigm,04.01.2021,59.99946106
L,left,Distractor,0,5,5,5,260.3904876,262.3916322,left,1,1,0.822398564,T18R03,2022-11-03_14h40.08.948,t1_Paradigm,04.01.2021,59.99946106
V,left,Pretarget,0,6,6,6,263.8905803,265.8920172,left,1,1,0.617980599,T18R03,2022-11-03_14h40.08.948,t1_Paradigm,04.01.2021,59.99946106
V,right,Target,0,7,7,7,267.3902669,269.3906291,right,1,1,0.943471379,T18R03,2022-11-03_14h40.08.948,t1_Paradigm,04.01.2021,59.99946106
K,left,Distractor,0,8,8,8,270.8906541,272.8912524,left,1,1,0.818662176,T18R03,2022-11-03_14h40.08.948,t1_Paradigm,04.01.2021,59.99946106
G,left,Pretarget,0,9,9,9,274.3908444,276.3913554,left,1,1,0.630814306,T18R03,2022-11-03_14h40.08.948,t1_Paradigm,04.01.2021,59.99946106
G,right,Target,0,10,10,10,277.8907058,279.8904648,right,1,1,0.971545774,T18R03,2022-11-03_14h40.08.948,t1_Paradigm,04.01.2021,59.99946106
G,right,Target,0,11,11,11,281.3904305,283.3904546,right,1,1,0.751544504,T18R03,2022-11-03_14h40.08.948,t1_Paradigm,04.01.2021,59.99946106
P,left,Pretarget,0,12,12,12,284.890844,286.8920746,left,1,1,0.562074014,T18R03,2022-11-03_14h40.08.948,t1_Paradigm,04.01.2021,59.99946106
P,right,Target,0,13,13,13,288.3904033,290.3904934,left,0,1,0.567425322,T18R03,2022-11-03_14h40.08.948,t1_Paradigm,04.01.2021,59.99946106
G,left,Lure,0,14,14,14,291.8904963,293.8905473,right,0,1,1.227729084,T18R03,2022-11-03_14h40.08.948,t1_Paradigm,04.01.2021,59.99946106
Y,left,Distractor,0,15,15,15,295.3904732,297.3920701,left,1,1,0.685996839,T18R03,2022-11-03_14h40.08.948,t1_Paradigm,04.01.2021,59.99946106
B,left,Distractor,0,16,16,16,298.8907709,300.891067,None,0,1,,T18R03,2022-11-03_14h40.08.948,t1_Paradigm,04.01.2021,59.99946106
T,left,Pretarget,0,17,17,17,302.3904495,304.3909332,left,1,1,0.903078486,T18R03,2022-11-03_14h40.08.948,t1_Paradigm,04.01.2021,59.99946106
T,right,Target,0,18,18,18,305.8904931,307.8907244,right,1,1,0.763507553,T18R03,2022-11-03_14h40.08.948,t1_Paradigm,04.01.2021,59.99946106
S,left,Distractor,0,19,19,19,309.3907828,311.3922504,left,1,1,1.149807743,T18R03,2022-11-03_14h40.08.948,t1_Paradigm,04.01.2021,59.99946106
T,left,Lure,0,20,20,20,312.8908973,314.8911209,left,1,1,0.834880029,T18R03,2022-11-03_14h40.08.948,t1_Paradigm,04.01.2021,59.99946106
J,left,Distractor,0,21,21,21,316.3905133,318.3924878,left,1,1,0.757712575,T18R03,2022-11-03_14h40.08.948,t1_Paradigm,04.01.2021,59.99946106
P,left,Distractor,0,22,22,22,319.890435,321.8907706,left,1,1,0.811319326,T18R03,2022-11-03_14h40.08.948,t1_Paradigm,04.01.2021,59.99946106
F,left,Distractor,0,23,23,23,323.390367,325.3916727,left,1,1,0.734426158,T18R03,2022-11-03_14h40.08.948,t1_Paradigm,04.01.2021,59.99946106
L,left,Distractor,0,24,24,24,326.890573,328.8916412,left,1,1,0.562558426,T18R03,2022-11-03_14h40.08.948,t1_Paradigm,04.01.2021,59.99946106
W,left,Pretarget,0,25,25,25,330.3907645,332.4034702,left,1,1,0.618789984,T18R03,2022-11-03_14h40.08.948,t1_Paradigm,04.01.2021,59.99946106
W,right,Target,0,26,26,26,333.8905258,335.8904645,right,1,1,1.051562918,T18R03,2022-11-03_14h40.08.948,t1_Paradigm,04.01.2021,59.99946106
V,left,Distractor,0,27,27,27,337.3906451,339.3911196,left,1,1,0.639043854,T18R03,2022-11-03_14h40.08.948,t1_Paradigm,04.01.2021,59.99946106
W,left,Lure,0,28,28,28,340.8905858,342.8914581,left,1,1,1.106675517,T18R03,2022-11-03_14h40.08.948,t1_Paradigm,04.01.2021,59.99946106
R,left,Pretarget,0,29,29,29,344.3904642,346.4035568,left,1,1,1.066652188,T18R03,2022-11-03_14h40.08.948,t1_Paradigm,04.01.2021,59.99946106
R,right,Target,0,30,30,30,347.8907561,349.8905078,right,1,1,0.603563411,T18R03,2022-11-03_14h40.08.948,t1_Paradigm,04.01.2021,59.99946106
G,left,Distractor,0,31,31,31,351.3905576,353.3910003,left,1,1,0.575268303,T18R03,2022-11-03_14h40.08.948,t1_Paradigm,04.01.2021,59.99946106
R,left,Lure,0,32,32,32,354.8907934,356.8905418,left,1,1,1.36374392,T18R03,2022-11-03_14h40.08.948,t1_Paradigm,04.01.2021,59.99946106
S,left,Distractor,0,33,33,33,358.390537,360.3908841,left,1,1,0.647386325,T18R03,2022-11-03_14h40.08.948,t1_Paradigm,04.01.2021,59.99946106
R,left,Lure,0,34,34,34,361.8904963,363.8910025,left,1,1,0.603172994,T18R03,2022-11-03_14h40.08.948,t1_Paradigm,04.01.2021,59.99946106
P,left,Pretarget,0,35,35,35,365.3907061,367.3908171,left,1,1,0.735264415,T18R03,2022-11-03_14h40.08.948,t1_Paradigm,04.01.2021,59.99946106
P,right,Target,0,36,36,36,368.8910022,370.890546,right,1,1,0.675692661,T18R03,2022-11-03_14h40.08.948,t1_Paradigm,04.01.2021,59.99946106
Y,left,Pretarget,0,37,37,37,372.3906644,374.3906034,left,1,1,0.647722847,T18R03,2022-11-03_14h40.08.948,t1_Paradigm,04.01.2021,59.99946106
Y,right,Target,0,38,38,38,375.890554,377.890572,right,1,1,0.731797502,T18R03,2022-11-03_14h40.08.948,t1_Paradigm,04.01.2021,59.99946106
J,left,Distractor,0,39,39,39,379.3908578,381.3907828,left,1,1,0.639467314,T18R03,2022-11-03_14h40.08.948,t1_Paradigm,04.01.2021,59.99946106
Y,left,Lure,0,40,40,40,382.8905957,384.9072595,left,1,1,1.202976278,T18R03,2022-11-03_14h40.08.948,t1_Paradigm,04.01.2021,59.99946106
T,left,Distractor,0,41,41,41,386.3905755,388.3915504,left,1,1,0.774719282,T18R03,2022-11-03_14h40.08.948,t1_Paradigm,04.01.2021,59.99946106
V,left,Distractor,0,42,42,42,389.8906551,391.8912312,None,0,1,,T18R03,2022-11-03_14h40.08.948,t1_Paradigm,04.01.2021,59.99946106
N,left,Pretarget,0,43,43,43,393.3906028,395.3925032,left,1,1,0.845852119,T18R03,2022-11-03_14h40.08.948,t1_Paradigm,04.01.2021,59.99946106
N,right,Target,0,44,44,44,396.8907058,398.8909191,right,1,1,0.915452803,T18R03,2022-11-03_14h40.08.948,t1_Paradigm,04.01.2021,59.99946106
N,right,Target,0,45,45,45,400.3905274,402.391023,right,1,1,0.807252191,T18R03,2022-11-03_14h40.08.948,t1_Paradigm,04.01.2021,59.99946106
X,left,Distractor,0,46,46,46,403.8906329,405.8922953,left,1,1,0.905991373,T18R03,2022-11-03_14h40.08.948,t1_Paradigm,04.01.2021,59.99946106
Z,left,Distractor,0,47,47,47,407.3906304,409.3921892,left,1,1,0.765962976,T18R03,2022-11-03_14h40.08.948,t1_Paradigm,04.01.2021,59.99946106
H,left,Pretarget,0,48,48,48,410.8905919,412.8920772,left,1,1,0.738149072,T18R03,2022-11-03_14h40.08.948,t1_Paradigm,04.01.2021,59.99946106
H,right,Target,0,49,49,49,414.3906836,416.3906397,right,1,1,0.711482358,T18R03,2022-11-03_14h40.08.948,t1_Paradigm,04.01.2021,59.99946106
K,left,Distractor,0,50,50,50,417.8905261,419.8909579,left,1,1,0.619211839,T18R03,2022-11-03_14h40.08.948,t1_Paradigm,04.01.2021,59.99946106
V,left,Pretarget,0,51,51,51,421.3906272,423.3909942,left,1,1,0.783337964,T18R03,2022-11-03_14h40.08.948,t1_Paradigm,04.01.2021,59.99946106
V,right,Target,0,52,52,52,424.8905896,426.8907205,right,1,1,0.691593561,T18R03,2022-11-03_14h40.08.948,t1_Paradigm,04.01.2021,59.99946106
R,left,Distractor,0,53,53,53,428.3907038,430.3913955,left,1,1,0.838906743,T18R03,2022-11-03_14h40.08.948,t1_Paradigm,04.01.2021,59.99946106
V,left,Lure,0,54,54,54,431.890912,433.8910917,left,1,1,1.259303435,T18R03,2022-11-03_14h40.08.948,t1_Paradigm,04.01.2021,59.99946106
Y,left,Distractor,0,55,55,55,435.3909794,437.3909884,left,1,1,0.959353352,T18R03,2022-11-03_14h40.08.948,t1_Paradigm,04.01.2021,59.99946106
Q,left,Distractor,0,56,56,56,438.8907504,440.8923274,left,1,1,0.65801676,T18R03,2022-11-03_14h40.08.948,t1_Paradigm,04.01.2021,59.99946106
Z,left,Pretarget,0,57,57,57,442.3906865,444.3930749,left,1,1,1.125470698,T18R03,2022-11-03_14h40.08.948,t1_Paradigm,04.01.2021,59.99946106
Z,right,Target,0,58,58,58,445.8906971,447.8906801,right,1,1,0.747760958,T18R03,2022-11-03_14h40.08.948,t1_Paradigm,04.01.2021,59.99946106
B,left,Distractor,0,59,59,59,449.3907731,451.3907029,left,1,1,1.119599369,T18R03,2022-11-03_14h40.08.948,t1_Paradigm,04.01.2021,59.99946106
S,left,Pretarget,0,60,60,60,452.8909252,454.891083,left,1,1,0.771202002,T18R03,2022-11-03_14h40.08.948,t1_Paradigm,04.01.2021,59.99946106
S,right,Target,0,61,61,61,456.3906333,458.3911321,right,1,1,0.647317673,T18R03,2022-11-03_14h40.08.948,t1_Paradigm,04.01.2021,59.99946106
T,left,Distractor,0,62,62,62,459.8907022,461.8906981,left,1,1,0.587611824,T18R03,2022-11-03_14h40.08.948,t1_Paradigm,04.01.2021,59.99946106
D,left,Distractor,0,63,63,63,463.3907196,465.3925436,left,1,1,0.653804301,T18R03,2022-11-03_14h40.08.948,t1_Paradigm,04.01.2021,59.99946106
R,left,Distractor,0,0,0,0,482.4406079,484.4409521,None,0,1,,T18R03,2022-11-03_14h40.08.948,t1_Paradigm,04.01.2021,59.99946106
V,left,Distractor,0,1,1,1,485.9405854,487.9404667,left,1,1,0.889960548,T18R03,2022-11-03_14h40.08.948,t1_Paradigm,04.01.2021,59.99946106
N,left,Pretarget,0,2,2,2,489.4408395,491.4405283,left,1,1,0.685780298,T18R03,2022-11-03_14h40.08.948,t1_Paradigm,04.01.2021,59.99946106
N,right,Target,0,3,3,3,492.940845,494.9408504,left,0,1,0.881706298,T18R03,2022-11-03_14h40.08.948,t1_Paradigm,04.01.2021,59.99946106
S,left,Distractor,0,4,4,4,496.4408334,498.4427983,left,1,1,0.931577624,T18R03,2022-11-03_14h40.08.948,t1_Paradigm,04.01.2021,59.99946106
N,left,Lure,0,5,5,5,499.9407452,501.9417005,left,1,1,0.936648871,T18R03,2022-11-03_14h40.08.948,t1_Paradigm,04.01.2021,59.99946106
Z,left,Distractor,0,6,6,6,503.4408164,505.4411744,left,1,1,0.941303716,T18R03,2022-11-03_14h40.08.948,t1_Paradigm,04.01.2021,59.99946106
L,left,Pretarget,0,7,7,7,506.9408568,508.9410204,left,1,1,0.849680577,T18R03,2022-11-03_14h40.08.948,t1_Paradigm,04.01.2021,59.99946106
L,right,Target,0,8,8,8,510.4408607,512.4408241,right,1,1,0.597731541,T18R03,2022-11-03_14h40.08.948,t1_Paradigm,04.01.2021,59.99946106
H,left,Distractor,0,9,9,9,513.9408623,515.9410625,left,1,1,0.745667722,T18R03,2022-11-03_14h40.08.948,t1_Paradigm,04.01.2021,59.99946106
L,left,Lure,0,10,10,10,517.4408139,519.4418475,left,1,1,0.780736255,T18R03,2022-11-03_14h40.08.948,t1_Paradigm,04.01.2021,59.99946106
X,left,Pretarget,0,11,11,11,520.9407738,522.9404969,left,1,1,1.105879285,T18R03,2022-11-03_14h40.08.948,t1_Paradigm,04.01.2021,59.99946106
X,right,Target,0,12,12,12,524.4408238,526.4407292,right,1,1,0.597829386,T18R03,2022-11-03_14h40.08.948,t1_Paradigm,04.01.2021,59.99946106
X,right,Target,0,13,13,13,527.9407898,529.9410484,right,1,1,0.761343419,T18R03,2022-11-03_14h40.08.948,t1_Paradigm,04.01.2021,59.99946106
R,left,Distractor,0,14,14,14,531.4408315,533.4412418,left,1,1,0.813396523,T18R03,2022-11-03_14h40.08.948,t1_Paradigm,04.01.2021,59.99946106
T,left,Distractor,0,15,15,15,534.9410901,536.9406291,left,1,1,0.769772506,T18R03,2022-11-03_14h40.08.948,t1_Paradigm,04.01.2021,59.99946106
V,left,Pretarget,0,16,16,16,538.4407083,540.440879,left,1,1,0.741639404,T18R03,2022-11-03_14h40.08.948,t1_Paradigm,04.01.2021,59.99946106
V,right,Target,0,17,17,17,541.9410638,543.9407478,right,1,1,0.665759651,T18R03,2022-11-03_14h40.08.948,t1_Paradigm,04.01.2021,59.99946106
N,left,Distractor,0,18,18,18,545.4409678,547.4419299,left,1,1,0.716539169,T18R03,2022-11-03_14h40.08.948,t1_Paradigm,04.01.2021,59.99946106
B,left,Distractor,0,19,19,19,548.9412113,550.9409107,left,1,1,1.089607216,T18R03,2022-11-03_14h40.08.948,t1_Paradigm,04.01.2021,59.99946106
V,left,Lure,0,20,20,20,552.4408674,554.4410599,left,1,1,0.837413728,T18R03,2022-11-03_14h40.08.948,t1_Paradigm,04.01.2021,59.99946106
P,left,Distractor,0,21,21,21,555.940939,557.9411719,left,1,1,0.713420006,T18R03,2022-11-03_14h40.08.948,t1_Paradigm,04.01.2021,59.99946106
K,left,Pretarget,0,22,22,22,559.4407891,561.4418173,left,1,1,0.668736378,T18R03,2022-11-03_14h40.08.948,t1_Paradigm,04.01.2021,59.99946106
K,right,Target,0,23,23,23,562.9408392,564.941032,right,1,1,1.121469648,T18R03,2022-11-03_14h40.08.948,t1_Paradigm,04.01.2021,59.99946106
J,left,Pretarget,0,24,24,24,566.4409556,568.4432093,left,1,1,0.86730547,T18R03,2022-11-03_14h40.08.948,t1_Paradigm,04.01.2021,59.99946106
J,right,Target,0,25,25,25,569.9408835,571.9409075,right,1,1,0.585568632,T18R03,2022-11-03_14h40.08.948,t1_Paradigm,04.01.2021,59.99946106
H,left,Distractor,0,26,26,26,573.4409601,575.4412877,left,1,1,0.621150449,T18R03,2022-11-03_14h40.08.948,t1_Paradigm,04.01.2021,59.99946106
J,left,Lure,0,27,27,27,576.9409839,578.9407689,left,1,1,0.577929361,T18R03,2022-11-03_14h40.08.948,t1_Paradigm,04.01.2021,59.99946106
V,left,Distractor,0,28,28,28,580.4408049,582.4430113,left,1,1,1.331557156,T18R03,2022-11-03_14h40.08.948,t1_Paradigm,04.01.2021,59.99946106
Z,left,Pretarget,0,29,29,29,583.9412213,585.9422911,left,1,1,0.856273711,T18R03,2022-11-03_14h40.08.948,t1_Paradigm,04.01.2021,59.99946106
Z,right,Target,0,30,30,30,587.4410609,589.4410108,right,1,1,1.101431036,T18R03,2022-11-03_14h40.08.948,t1_Paradigm,04.01.2021,59.99946106
T,left,Distractor,0,31,31,31,590.9408892,592.9415154,left,1,1,0.705076893,T18R03,2022-11-03_14h40.08.948,t1_Paradigm,04.01.2021,59.99946106
Z,left,Lure,0,32,32,32,594.4408857,596.4407814,left,1,1,1.253846262,T18R03,2022-11-03_14h40.08.948,t1_Paradigm,04.01.2021,59.99946106
F,left,Distractor,0,33,33,33,597.9410429,599.9412941,left,1,1,0.825279371,T18R03,2022-11-03_14h40.08.948,t1_Paradigm,04.01.2021,59.99946106
Y,left,Pretarget,0,34,34,34,601.4406945,603.4408155,left,1,1,0.909838437,T18R03,2022-11-03_14h40.08.948,t1_Paradigm,04.01.2021,59.99946106
Y,right,Target,0,35,35,35,604.9407012,606.9407952,right,1,1,0.946050311,T18R03,2022-11-03_14h40.08.948,t1_Paradigm,04.01.2021,59.99946106
Y,right,Target,0,36,36,36,608.440903,610.441033,right,1,1,0.72561724,T18R03,2022-11-03_14h40.08.948,t1_Paradigm,04.01.2021,59.99946106
W,left,Distractor,0,37,37,37,611.9409919,613.9418892,left,1,1,0.552620283,T18R03,2022-11-03_14h40.08.948,t1_Paradigm,04.01.2021,59.99946106
Q,left,Distractor,0,38,38,38,615.4407016,617.441749,left,1,1,0.68496963,T18R03,2022-11-03_14h40.08.948,t1_Paradigm,04.01.2021,59.99946106
P,left,Pretarget,0,39,39,39,618.9411783,620.9407821,left,1,1,0.6259272,T18R03,2022-11-03_14h40.08.948,t1_Paradigm,04.01.2021,59.99946106
P,right,Target,0,40,40,40,622.4410378,624.4411215,right,1,1,0.789524641,T18R03,2022-11-03_14h40.08.948,t1_Paradigm,04.01.2021,59.99946106
J,left,Distractor,0,41,41,41,625.9410856,627.9410198,left,1,1,0.697725702,T18R03,2022-11-03_14h40.08.948,t1_Paradigm,04.01.2021,59.99946106
P,left,Lure,0,42,42,42,629.440877,631.441041,left,1,1,1.229685338,T18R03,2022-11-03_14h40.08.948,t1_Paradigm,04.01.2021,59.99946106
L,left,Distractor,0,43,43,43,632.9410047,634.9412181,left,1,1,0.817423558,T18R03,2022-11-03_14h40.08.948,t1_Paradigm,04.01.2021,59.99946106
Z,left,Distractor,0,44,44,44,636.4408681,638.441193,left,1,1,0.693474427,T18R03,2022-11-03_14h40.08.948,t1_Paradigm,04.01.2021,59.99946106
F,left,Pretarget,0,45,45,45,639.9410545,641.9413916,left,1,1,0.633347042,T18R03,2022-11-03_14h40.08.948,t1_Paradigm,04.01.2021,59.99946106
F,right,Target,0,46,46,46,643.440955,645.4409261,right,1,1,0.750066567,T18R03,2022-11-03_14h40.08.948,t1_Paradigm,04.01.2021,59.99946106
G,left,Pretarget,0,47,47,47,646.9409293,648.9413858,left,1,1,0.737246013,T18R03,2022-11-03_14h40.08.948,t1_Paradigm,04.01.2021,59.99946106
G,right,Target,0,48,48,48,650.441015,652.4413198,right,1,1,0.64578552,T18R03,2022-11-03_14h40.08.948,t1_Paradigm,04.01.2021,59.99946106
V,left,Distractor,0,49,49,49,653.9409579,655.9407811,left,1,1,1.161792286,T18R03,2022-11-03_14h40.08.948,t1_Paradigm,04.01.2021,59.99946106
G,left,Lure,0,50,50,50,657.4411237,659.4414317,left,1,1,1.133326511,T18R03,2022-11-03_14h40.08.948,t1_Paradigm,04.01.2021,59.99946106
Q,left,Pretarget,0,51,51,51,660.9414083,662.9410631,None,0,1,,T18R03,2022-11-03_14h40.08.948,t1_Paradigm,04.01.2021,59.99946106
Q,right,Target,0,52,52,52,664.4411347,666.4409961,right,1,1,0.629762394,T18R03,2022-11-03_14h40.08.948,t1_Paradigm,04.01.2021,59.99946106
Y,left,Distractor,0,53,53,53,667.9407657,669.9409309,left,1,1,0.633688376,T18R03,2022-11-03_14h40.08.948,t1_Paradigm,04.01.2021,59.99946106
V,left,Distractor,0,54,54,54,671.4409325,673.4410458,left,1,1,0.621641919,T18R03,2022-11-03_14h40.08.948,t1_Paradigm,04.01.2021,59.99946106
B,left,Distractor,0,55,55,55,674.941467,676.9413326,left,1,1,1.40943166,T18R03,2022-11-03_14h40.08.948,t1_Paradigm,04.01.2021,59.99946106
J,left,Pretarget,0,56,56,56,678.4410952,680.4410743,left,1,1,0.917537058,T18R03,2022-11-03_14h40.08.948,t1_Paradigm,04.01.2021,59.99946106
J,right,Target,0,57,57,57,681.9409505,683.9410679,right,1,1,1.466109775,T18R03,2022-11-03_14h40.08.948,t1_Paradigm,04.01.2021,59.99946106
H,left,Distractor,0,58,58,58,685.4414513,687.4415373,left,1,1,0.621122219,T18R03,2022-11-03_14h40.08.948,t1_Paradigm,04.01.2021,59.99946106
J,left,Lure,0,59,59,59,688.9411006,690.9410503,left,1,1,0.897872822,T18R03,2022-11-03_14h40.08.948,t1_Paradigm,04.01.2021,59.99946106
D,left,Pretarget,0,60,60,60,692.4410374,694.4413749,left,1,1,0.917269829,T18R03,2022-11-03_14h40.08.948,t1_Paradigm,04.01.2021,59.99946106
D,right,Target,0,61,61,61,695.9410974,697.9411905,right,1,1,0.617486884,T18R03,2022-11-03_14h40.08.948,t1_Paradigm,04.01.2021,59.99946106
R,left,Distractor,0,62,62,62,699.4408549,701.4410528,left,1,1,0.685642032,T18R03,2022-11-03_14h40.08.948,t1_Paradigm,04.01.2021,59.99946106
F,left,Distractor,0,63,63,63,702.9411234,704.9413781,left,1,1,0.657443807,T18R03,2022-11-03_14h40.08.948,t1_Paradigm,04.01.2021,59.99946106
F,left,Distractor,0,0,0,0,813.1047671,815.1080453,None,0,2,,T18R03,2022-11-03_14h40.08.948,t1_Paradigm,04.01.2021,59.99946106
N,left,Pretarget,0,1,1,1,816.6079744,818.6077435,left,1,2,0.97523757,T18R03,2022-11-03_14h40.08.948,t1_Paradigm,04.01.2021,59.99946106
V,left,Distractor,0,2,2,2,820.1079821,822.1079504,left,1,2,1.23499045,T18R03,2022-11-03_14h40.08.948,t1_Paradigm,04.01.2021,59.99946106
N,right,Target,0,3,3,3,823.6081743,825.5930334,right,1,2,0.869940863,T18R03,2022-11-03_14h40.08.948,t1_Paradigm,04.01.2021,59.99946106
N,left,Lure,0,4,4,4,827.0916985,829.0913145,left,1,2,1.131837345,T18R03,2022-11-03_14h40.08.948,t1_Paradigm,04.01.2021,59.99946106
X,left,Distractor,0,5,5,5,830.5913126,832.5911333,None,0,2,,T18R03,2022-11-03_14h40.08.948,t1_Paradigm,04.01.2021,59.99946106
G,left,Pretarget,0,6,6,6,834.0912892,836.0933385,left,1,2,1.121697418,T18R03,2022-11-03_14h40.08.948,t1_Paradigm,04.01.2021,59.99946106
H,left,Pretarget,0,7,7,7,837.6077717,839.6088345,left,1,2,1.142286848,T18R03,2022-11-03_14h40.08.948,t1_Paradigm,04.01.2021,59.99946106
G,right,Target,0,8,8,8,841.1080832,843.108251,None,0,2,,T18R03,2022-11-03_14h40.08.948,t1_Paradigm,04.01.2021,59.99946106
H,right,Target,0,9,9,9,844.6079427,846.6085099,None,0,2,,T18R03,2022-11-03_14h40.08.948,t1_Paradigm,04.01.2021,59.99946106
T,left,Pretarget,0,10,10,10,848.1080004,850.1094918,left,1,2,0.993538074,T18R03,2022-11-03_14h40.08.948,t1_Paradigm,04.01.2021,59.99946106
K,left,Distractor,0,11,11,11,851.6082568,853.6095457,None,0,2,,T18R03,2022-11-03_14h40.08.948,t1_Paradigm,04.01.2021,59.99946106
T,right,Target,0,12,12,12,855.1081172,857.1084855,None,0,2,,T18R03,2022-11-03_14h40.08.948,t1_Paradigm,04.01.2021,59.99946106
T,left,Lure,0,13,13,13,858.6080479,860.6080315,left,1,2,1.311085782,T18R03,2022-11-03_14h40.08.948,t1_Paradigm,04.01.2021,59.99946106
J,left,Distractor,0,14,14,14,862.0916177,864.0922609,None,0,2,,T18R03,2022-11-03_14h40.08.948,t1_Paradigm,04.01.2021,59.99946106
Q,left,Pretarget,0,15,15,15,865.6080508,867.60947,left,1,2,0.885735257,T18R03,2022-11-03_14h40.08.948,t1_Paradigm,04.01.2021,59.99946106
M,left,Distractor,0,16,16,16,869.1083013,871.1209265,left,1,2,0.958094202,T18R03,2022-11-03_14h40.08.948,t1_Paradigm,04.01.2021,59.99946106
Q,right,Target,0,17,17,17,872.6082523,874.6084502,right,1,2,0.798716597,T18R03,2022-11-03_14h40.08.948,t1_Paradigm,04.01.2021,59.99946106
R,left,Distractor,0,18,18,18,876.1080062,878.1084685,left,1,2,0.850463977,T18R03,2022-11-03_14h40.08.948,t1_Paradigm,04.01.2021,59.99946106
W,left,Distractor,0,19,19,19,879.608097,881.6082163,None,0,2,,T18R03,2022-11-03_14h40.08.948,t1_Paradigm,04.01.2021,59.99946106
C,left,Pretarget,0,20,20,20,883.1081252,885.1089362,left,1,2,0.810109901,T18R03,2022-11-03_14h40.08.948,t1_Paradigm,04.01.2021,59.99946106
T,left,Distractor,0,21,21,21,886.60802,888.6084508,left,1,2,0.878875856,T18R03,2022-11-03_14h40.08.948,t1_Paradigm,04.01.2021,59.99946106
C,right,Target,0,22,22,22,890.108115,892.1082924,right,1,2,0.626827051,T18R03,2022-11-03_14h40.08.948,t1_Paradigm,04.01.2021,59.99946106
F,left,Pretarget,0,23,23,23,893.6078124,895.6080662,left,1,2,0.61518705,T18R03,2022-11-03_14h40.08.948,t1_Paradigm,04.01.2021,59.99946106
C,right,Target,0,24,24,24,897.1081034,899.1081486,left,0,2,1.163107576,T18R03,2022-11-03_14h40.08.948,t1_Paradigm,04.01.2021,59.99946106
F,right,Target,0,25,25,25,900.6079526,902.5923542,None,0,2,,T18R03,2022-11-03_14h40.08.948,t1_Paradigm,04.01.2021,59.99946106
H,left,Distractor,0,26,26,26,904.0912757,906.0916289,left,1,2,1.075529757,T18R03,2022-11-03_14h40.08.948,t1_Paradigm,04.01.2021,59.99946106
H,left,Lure,0,27,27,27,907.5914762,909.5914749,None,0,2,,T18R03,2022-11-03_14h40.08.948,t1_Paradigm,04.01.2021,59.99946106
P,left,Distractor,0,28,28,28,911.0913363,913.0912067,None,0,2,,T18R03,2022-11-03_14h40.08.948,t1_Paradigm,04.01.2021,59.99946106
G,left,Pretarget,0,29,29,29,914.5914509,916.5913986,left,1,2,0.895820969,T18R03,2022-11-03_14h40.08.948,t1_Paradigm,04.01.2021,59.99946106
K,left,Distractor,0,30,30,30,918.0915885,920.0916411,left,1,2,0.803273277,T18R03,2022-11-03_14h40.08.948,t1_Paradigm,04.01.2021,59.99946106
G,right,Target,0,31,31,31,921.5915381,923.5919192,left,0,2,1.335263709,T18R03,2022-11-03_14h40.08.948,t1_Paradigm,04.01.2021,59.99946106
M,left,Pretarget,0,32,32,32,925.0913857,927.0918429,None,0,2,,T18R03,2022-11-03_14h40.08.948,t1_Paradigm,04.01.2021,59.99946106
B,left,Distractor,0,33,33,33,928.5914794,930.5914493,left,1,2,1.071714773,T18R03,2022-11-03_14h40.08.948,t1_Paradigm,04.01.2021,59.99946106
M,right,Target,0,34,34,34,932.0918843,934.0918669,left,0,2,1.059407503,T18R03,2022-11-03_14h40.08.948,t1_Paradigm,04.01.2021,59.99946106
M,left,Lure,0,35,35,35,935.591909,937.5916453,left,1,2,1.175642616,T18R03,2022-11-03_14h40.08.948,t1_Paradigm,04.01.2021,59.99946106
T,left,Distractor,0,36,36,36,939.0917842,941.0916478,left,1,2,1.275661158,T18R03,2022-11-03_14h40.08.948,t1_Paradigm,04.01.2021,59.99946106
F,left,Distractor,0,37,37,37,942.5919054,944.591652,left,1,2,0.927727672,T18R03,2022-11-03_14h40.08.948,t1_Paradigm,04.01.2021,59.99946106
X,left,Distractor,0,38,38,38,946.0918615,948.0914797,left,1,2,1.107694706,T18R03,2022-11-03_14h40.08.948,t1_Paradigm,04.01.2021,59.99946106
C,left,Distractor,0,39,39,39,949.5918374,951.5912067,left,1,2,0.951886351,T18R03,2022-11-03_14h40.08.948,t1_Paradigm,04.01.2021,59.99946106
R,left,Distractor,0,40,40,40,953.0913039,955.0917213,left,1,2,1.307540593,T18R03,2022-11-03_14h40.08.948,t1_Paradigm,04.01.2021,59.99946106
B,left,Pretarget,0,41,41,41,956.5913626,958.5932445,left,1,2,1.198192149,T18R03,2022-11-03_14h40.08.948,t1_Paradigm,04.01.2021,59.99946106
H,left,Distractor,0,42,42,42,960.1081749,962.1079696,left,1,2,1.379270123,T18R03,2022-11-03_14h40.08.948,t1_Paradigm,04.01.2021,59.99946106
B,right,Target,0,43,43,43,963.6080681,965.6081589,right,1,2,0.839099546,T18R03,2022-11-03_14h40.08.948,t1_Paradigm,04.01.2021,59.99946106
W,left,Pretarget,0,44,44,44,967.0918153,969.0933349,left,1,2,1.417924587,T18R03,2022-11-03_14h40.08.948,t1_Paradigm,04.01.2021,59.99946106
L,left,Pretarget,0,45,45,45,970.6082051,972.6087094,left,1,2,1.374658586,T18R03,2022-11-03_14h40.08.948,t1_Paradigm,04.01.2021,59.99946106
W,right,Target,0,46,46,46,974.1083033,976.1086571,None,0,2,,T18R03,2022-11-03_14h40.08.948,t1_Paradigm,04.01.2021,59.99946106
L,right,Target,0,47,47,47,977.6083857,979.6088727,right,1,2,1.206375181,T18R03,2022-11-03_14h40.08.948,t1_Paradigm,04.01.2021,59.99946106
W,right,Target,0,48,48,48,981.0918329,983.0924004,None,0,2,,T18R03,2022-11-03_14h40.08.948,t1_Paradigm,04.01.2021,59.99946106
X,left,Distractor,0,49,49,49,984.6078464,986.5918111,left,1,2,1.24760986,T18R03,2022-11-03_14h40.08.948,t1_Paradigm,04.01.2021,59.99946106
R,left,Distractor,0,50,50,50,988.0915035,990.0918618,left,1,2,1.17139551,T18R03,2022-11-03_14h40.08.948,t1_Paradigm,04.01.2021,59.99946106
V,left,Pretarget,0,51,51,51,991.5919738,993.591618,None,0,2,,T18R03,2022-11-03_14h40.08.948,t1_Paradigm,04.01.2021,59.99946106
Z,left,Distractor,0,52,52,52,995.0915561,997.0917823,left,1,2,1.355391825,T18R03,2022-11-03_14h40.08.948,t1_Paradigm,04.01.2021,59.99946106
V,right,Target,0,53,53,53,998.59179,1000.591887,right,1,2,0.879463888,T18R03,2022-11-03_14h40.08.948,t1_Paradigm,04.01.2021,59.99946106
V,left,Lure,0,54,54,54,1002.091511,1004.091793,left,1,2,1.235438932,T18R03,2022-11-03_14h40.08.948,t1_Paradigm,04.01.2021,59.99946106
N,left,Distractor,0,55,55,55,1005.59167,1007.592148,left,1,2,1.287111564,T18R03,2022-11-03_14h40.08.948,t1_Paradigm,04.01.2021,59.99946106
B,left,Distractor,0,56,56,56,1009.09158,1011.092235,left,1,2,1.419025581,T18R03,2022-11-03_14h40.08.948,t1_Paradigm,04.01.2021,59.99946106
V,left,Lure,0,57,57,57,1012.591853,1014.592044,None,0,2,,T18R03,2022-11-03_14h40.08.948,t1_Paradigm,04.01.2021,59.99946106
J,left,Distractor,0,58,58,58,1016.09189,1018.091899,None,0,2,,T18R03,2022-11-03_14h40.08.948,t1_Paradigm,04.01.2021,59.99946106
H,left,Distractor,0,59,59,59,1019.591682,1021.592083,None,0,2,,T18R03,2022-11-03_14h40.08.948,t1_Paradigm,04.01.2021,59.99946106
X,left,Pretarget,0,60,60,60,1023.091736,1025.092367,left,1,2,0.906942232,T18R03,2022-11-03_14h40.08.948,t1_Paradigm,04.01.2021,59.99946106
P,left,Distractor,0,61,61,61,1026.591824,1028.59163,left,1,2,1.055638394,T18R03,2022-11-03_14h40.08.948,t1_Paradigm,04.01.2021,59.99946106
X,right,Target,0,62,62,62,1030.091637,1032.091471,right,1,2,0.627948897,T18R03,2022-11-03_14h40.08.948,t1_Paradigm,04.01.2021,59.99946106
Q,left,Distractor,0,63,63,63,1033.591899,1035.59375,left,1,2,0.981590424,T18R03,2022-11-03_14h40.08.948,t1_Paradigm,04.01.2021,59.99946106
B,left,Pretarget,0,0,0,0,1064.201056,1066.193472,None,0,2,,T18R03,2022-11-03_14h40.08.948,t1_Paradigm,04.01.2021,59.99946106
F,left,Distractor,0,1,1,1,1067.691629,1069.693725,left,1,2,1.057805415,T18R03,2022-11-03_14h40.08.948,t1_Paradigm,04.01.2021,59.99946106
B,right,Target,0,2,2,2,1071.192042,1073.191749,right,1,2,0.887631521,T18R03,2022-11-03_14h40.08.948,t1_Paradigm,04.01.2021,59.99946106
V,left,Distractor,0,3,3,3,1074.691815,1076.691757,left,1,2,1.083606925,T18R03,2022-11-03_14h40.08.948,t1_Paradigm,04.01.2021,59.99946106
G,left,Pretarget,0,4,4,4,1078.191693,1080.191972,left,1,2,1.103542238,T18R03,2022-11-03_14h40.08.948,t1_Paradigm,04.01.2021,59.99946106
B,left,Lure,0,5,5,5,1081.692049,1083.691961,None,0,2,,T18R03,2022-11-03_14h40.08.948,t1_Paradigm,04.01.2021,59.99946106
G,right,Target,0,6,6,6,1085.191871,1087.191931,right,1,2,1.079560962,T18R03,2022-11-03_14h40.08.948,t1_Paradigm,04.01.2021,59.99946106
Y,left,Pretarget,0,7,7,7,1088.69175,1090.692011,left,1,2,1.035334478,T18R03,2022-11-03_14h40.08.948,t1_Paradigm,04.01.2021,59.99946106
P,left,Distractor,0,8,8,8,1092.191704,1094.193125,None,0,2,,T18R03,2022-11-03_14h40.08.948,t1_Paradigm,04.01.2021,59.99946106
Y,right,Target,0,9,9,9,1095.691859,1097.692198,right,1,2,0.931412731,T18R03,2022-11-03_14h40.08.948,t1_Paradigm,04.01.2021,59.99946106
X,left,Distractor,0,10,10,10,1099.192043,1101.193533,left,1,2,0.869860021,T18R03,2022-11-03_14h40.08.948,t1_Paradigm,04.01.2021,59.99946106
Y,right,Target,0,11,11,11,1102.692054,1104.692602,right,1,2,0.826986682,T18R03,2022-11-03_14h40.08.948,t1_Paradigm,04.01.2021,59.99946106
N,left,Distractor,0,12,12,12,1106.191795,1108.192429,left,1,2,1.023106768,T18R03,2022-11-03_14h40.08.948,t1_Paradigm,04.01.2021,59.99946106
Y,right,Target,0,13,13,13,1109.691766,1111.691583,right,1,2,1.107973805,T18R03,2022-11-03_14h40.08.948,t1_Paradigm,04.01.2021,59.99946106
Y,left,Lure,0,14,14,14,1113.192085,1115.192073,left,1,2,1.031538742,T18R03,2022-11-03_14h40.08.948,t1_Paradigm,04.01.2021,59.99946106
K,left,Distractor,0,15,15,15,1116.691796,1118.691928,left,1,2,0.907633241,T18R03,2022-11-03_14h40.08.948,t1_Paradigm,04.01.2021,59.99946106
T,left,Pretarget,0,16,16,16,1120.191723,1122.191572,left,1,2,1.103852454,T18R03,2022-11-03_14h40.08.948,t1_Paradigm,04.01.2021,59.99946106
J,left,Distractor,0,17,17,17,1123.691663,1125.692334,left,1,2,0.835102025,T18R03,2022-11-03_14h40.08.948,t1_Paradigm,04.01.2021,59.99946106
T,right,Target,0,18,18,18,1127.191875,1129.192321,right,1,2,0.999398495,T18R03,2022-11-03_14h40.08.948,t1_Paradigm,04.01.2021,59.99946106
S,left,Pretarget,0,19,19,19,1130.691858,1132.691631,left,1,2,1.116022741,T18R03,2022-11-03_14h40.08.948,t1_Paradigm,04.01.2021,59.99946106
R,left,Distractor,0,20,20,20,1134.191939,1136.193201,left,1,2,1.230487023,T18R03,2022-11-03_14h40.08.948,t1_Paradigm,04.01.2021,59.99946106
S,right,Target,0,21,21,21,1137.691823,1139.693402,right,1,2,1.186210494,T18R03,2022-11-03_14h40.08.948,t1_Paradigm,04.01.2021,59.99946106
Q,left,Distractor,0,22,22,22,1141.191761,1143.191717,left,1,2,1.000304121,T18R03,2022-11-03_14h40.08.948,t1_Paradigm,04.01.2021,59.99946106
D,left,Distractor,0,23,23,23,1144.692092,1146.692763,left,1,2,1.25880587,T18R03,2022-11-03_14h40.08.948,t1_Paradigm,04.01.2021,59.99946106
F,left,Distractor,0,24,24,24,1148.191704,1150.193912,left,1,2,0.989748433,T18R03,2022-11-03_14h40.08.948,t1_Paradigm,04.01.2021,59.99946106
Z,left,Distractor,0,25,25,25,1151.691853,1153.691798,left,1,2,1.395734994,T18R03,2022-11-03_14h40.08.948,t1_Paradigm,04.01.2021,59.99946106
P,left,Distractor,0,26,26,26,1155.192125,1157.192117,left,1,2,1.17553643,T18R03,2022-11-03_14h40.08.948,t1_Paradigm,04.01.2021,59.99946106
H,left,Distractor,0,27,27,27,1158.691849,1160.692187,left,1,2,1.051232491,T18R03,2022-11-03_14h40.08.948,t1_Paradigm,04.01.2021,59.99946106
Z,left,Pretarget,0,28,28,28,1162.191736,1164.191727,left,1,2,1.087760997,T18R03,2022-11-03_14h40.08.948,t1_Paradigm,04.01.2021,59.99946106
J,left,Pretarget,0,29,29,29,1165.691737,1167.692745,None,0,2,,T18R03,2022-11-03_14h40.08.948,t1_Paradigm,04.01.2021,59.99946106
Z,right,Target,0,30,30,30,1169.191916,1171.192255,right,1,2,0.935755435,T18R03,2022-11-03_14h40.08.948,t1_Paradigm,04.01.2021,59.99946106
J,right,Target,0,31,31,31,1172.691735,1174.693371,left,0,2,0.842280303,T18R03,2022-11-03_14h40.08.948,t1_Paradigm,04.01.2021,59.99946106
V,left,Pretarget,0,32,32,32,1176.191876,1178.192566,left,1,2,1.086985296,T18R03,2022-11-03_14h40.08.948,t1_Paradigm,04.01.2021,59.99946106
Z,left,Lure,0,33,33,33,1179.691874,1181.692107,left,1,2,0.963567735,T18R03,2022-11-03_14h40.08.948,t1_Paradigm,04.01.2021,59.99946106
V,right,Target,0,34,34,34,1183.191902,1185.19289,right,1,2,1.046879842,T18R03,2022-11-03_14h40.08.948,t1_Paradigm,04.01.2021,59.99946106
X,left,Distractor,0,35,35,35,1186.691903,1188.691757,left,1,2,1.003854122,T18R03,2022-11-03_14h40.08.948,t1_Paradigm,04.01.2021,59.99946106
S,left,Distractor,0,36,36,36,1190.191813,1192.192312,left,1,2,1.103290408,T18R03,2022-11-03_14h40.08.948,t1_Paradigm,04.01.2021,59.99946106
Q,left,Distractor,0,37,37,37,1193.691973,1195.692402,left,1,2,1.091193264,T18R03,2022-11-03_14h40.08.948,t1_Paradigm,04.01.2021,59.99946106
P,left,Distractor,0,38,38,38,1197.192053,1199.191892,left,1,2,1.319851391,T18R03,2022-11-03_14h40.08.948,t1_Paradigm,04.01.2021,59.99946106
S,left,Lure,0,39,39,39,1200.692052,1202.693258,left,1,2,1.354391242,T18R03,2022-11-03_14h40.08.948,t1_Paradigm,04.01.2021,59.99946106
K,left,Pretarget,0,40,40,40,1204.19235,1206.192465,left,1,2,1.32724974,T18R03,2022-11-03_14h40.08.948,t1_Paradigm,04.01.2021,59.99946106
L,left,Distractor,0,41,41,41,1207.692018,1209.692797,left,1,2,1.363006716,T18R03,2022-11-03_14h40.08.948,t1_Paradigm,04.01.2021,59.99946106
K,right,Target,0,42,42,42,1211.191925,1213.192731,right,1,2,0.854936927,T18R03,2022-11-03_14h40.08.948,t1_Paradigm,04.01.2021,59.99946106
B,left,Distractor,0,43,43,43,1214.69195,1216.692607,left,1,2,0.923116777,T18R03,2022-11-03_14h40.08.948,t1_Paradigm,04.01.2021,59.99946106
N,left,Distractor,0,44,44,44,1218.191923,1220.192322,left,1,2,0.927412002,T18R03,2022-11-03_14h40.08.948,t1_Paradigm,04.01.2021,59.99946106
S,left,Pretarget,0,45,45,45,1221.691738,1223.691348,right,0,2,1.060459094,T18R03,2022-11-03_14h40.08.948,t1_Paradigm,04.01.2021,59.99946106
Z,left,Distractor,0,46,46,46,1225.192119,1227.192252,left,1,2,1.031557028,T18R03,2022-11-03_14h40.08.948,t1_Paradigm,04.01.2021,59.99946106
S,right,Target,0,47,47,47,1228.691749,1230.692391,left,0,2,1.179427124,T18R03,2022-11-03_14h40.08.948,t1_Paradigm,04.01.2021,59.99946106
C,left,Distractor,0,48,48,48,1232.192013,1234.192566,None,0,2,,T18R03,2022-11-03_14h40.08.948,t1_Paradigm,04.01.2021,59.99946106
T,left,Pretarget,0,49,49,49,1235.692272,1237.691856,left,1,2,1.331972917,T18R03,2022-11-03_14h40.08.948,t1_Paradigm,04.01.2021,59.99946106
S,left,Lure,0,50,50,50,1239.191985,1241.192041,right,0,2,0.775650251,T18R03,2022-11-03_14h40.08.948,t1_Paradigm,04.01.2021,59.99946106
T,right,Target,0,51,51,51,1242.692034,1244.692813,right,1,2,1.018889176,T18R03,2022-11-03_14h40.08.948,t1_Paradigm,04.01.2021,59.99946106
N,left,Pretarget,0,52,52,52,1246.192412,1248.19228,left,1,2,1.007546239,T18R03,2022-11-03_14h40.08.948,t1_Paradigm,04.01.2021,59.99946106
B,left,Distractor,0,53,53,53,1249.692248,1251.694277,left,1,2,1.137498869,T18R03,2022-11-03_14h40.08.948,t1_Paradigm,04.01.2021,59.99946106
N,right,Target,0,54,54,54,1253.19206,1255.19236,right,1,2,1.031535855,T18R03,2022-11-03_14h40.08.948,t1_Paradigm,04.01.2021,59.99946106
N,left,Lure,0,55,55,55,1256.691961,1258.6922,left,1,2,0.939603462,T18R03,2022-11-03_14h40.08.948,t1_Paradigm,04.01.2021,59.99946106
X,left,Distractor,0,56,56,56,1260.192166,1262.191794,left,1,2,0.911909218,T18R03,2022-11-03_14h40.08.948,t1_Paradigm,04.01.2021,59.99946106
W,left,Distractor,0,57,57,57,1263.691423,1265.692027,left,1,2,0.995801336,T18R03,2022-11-03_14h40.08.948,t1_Paradigm,04.01.2021,59.99946106
S,left,Distractor,0,58,58,58,1267.192091,1269.192067,left,1,2,1.303673959,T18R03,2022-11-03_14h40.08.948,t1_Paradigm,04.01.2021,59.99946106
L,left,Distractor,0,59,59,59,1270.692005,1272.692738,None,0,2,,T18R03,2022-11-03_14h40.08.948,t1_Paradigm,04.01.2021,59.99946106
K,left,Pretarget,0,60,60,60,1274.192384,1276.192393,None,0,2,,T18R03,2022-11-03_14h40.08.948,t1_Paradigm,04.01.2021,59.99946106
V,left,Pretarget,0,61,61,61,1277.691991,1279.692454,left,1,2,1.251229476,T18R03,2022-11-03_14h40.08.948,t1_Paradigm,04.01.2021,59.99946106
K,right,Target,0,62,62,62,1281.192096,1283.192417,right,1,2,1.063422668,T18R03,2022-11-03_14h40.08.948,t1_Paradigm,04.01.2021,59.99946106
V,right,Target,0,63,63,63,1284.692036,1286.693428,left,0,2,0.794437733,T18R03,2022-11-03_14h40.08.948,t1_Paradigm,04.01.2021,59.99946106
R,left,Distractor,0,0,0,0,1380.122592,1382.127073,None,0,3,,T18R03,2022-11-03_14h40.08.948,t1_Paradigm,04.01.2021,59.99946106
P,left,Lure,0,1,1,1,1383.625525,1385.625466,left,1,3,0.534390036,T18R03,2022-11-03_14h40.08.948,t1_Paradigm,04.01.2021,59.99946106
V,left,Distractor,0,2,2,2,1387.125482,1389.125792,left,1,3,0.890250874,T18R03,2022-11-03_14h40.08.948,t1_Paradigm,04.01.2021,59.99946106
P,left,Pretarget,0,3,3,3,1390.625528,1392.627672,left,1,3,1.276199144,T18R03,2022-11-03_14h40.08.948,t1_Paradigm,04.01.2021,59.99946106
Z,left,Distractor,0,4,4,4,1394.125504,1396.125801,left,1,3,1.154211721,T18R03,2022-11-03_14h40.08.948,t1_Paradigm,04.01.2021,59.99946106
L,left,Pretarget,0,5,5,5,1397.609186,1399.610299,left,1,3,1.189744455,T18R03,2022-11-03_14h40.08.948,t1_Paradigm,04.01.2021,59.99946106
P,right,Target,0,6,6,6,1401.125453,1403.110532,left,0,3,1.273509856,T18R03,2022-11-03_14h40.08.948,t1_Paradigm,04.01.2021,59.99946106
S,left,Distractor,0,7,7,7,1404.62562,1406.62648,left,1,3,1.149390379,T18R03,2022-11-03_14h40.08.948,t1_Paradigm,04.01.2021,59.99946106
L,right,Target,0,8,8,8,1408.125539,1410.126925,left,0,3,1.009208317,T18R03,2022-11-03_14h40.08.948,t1_Paradigm,04.01.2021,59.99946106
D,left,Distractor,0,9,9,9,1411.625948,1413.626346,left,1,3,0.869612682,T18R03,2022-11-03_14h40.08.948,t1_Paradigm,04.01.2021,59.99946106
G,left,Distractor,0,10,10,10,1415.125554,1417.12602,left,1,3,0.809767604,T18R03,2022-11-03_14h40.08.948,t1_Paradigm,04.01.2021,59.99946106
M,left,Pretarget,0,11,11,11,1418.625299,1420.62544,left,1,3,0.910787371,T18R03,2022-11-03_14h40.08.948,t1_Paradigm,04.01.2021,59.99946106
Y,left,Distractor,0,12,12,12,1422.125872,1424.125885,left,1,3,1.13810294,T18R03,2022-11-03_14h40.08.948,t1_Paradigm,04.01.2021,59.99946106
V,left,Distractor,0,13,13,13,1425.625459,1427.625915,left,1,3,0.694170247,T18R03,2022-11-03_14h40.08.948,t1_Paradigm,04.01.2021,59.99946106
M,right,Target,0,14,14,14,1429.125586,1431.125903,right,1,3,1.354084875,T18R03,2022-11-03_14h40.08.948,t1_Paradigm,04.01.2021,59.99946106
S,left,Pretarget,0,15,15,15,1432.625974,1434.62545,left,1,3,1.150598842,T18R03,2022-11-03_14h40.08.948,t1_Paradigm,04.01.2021,59.99946106
Q,left,Distractor,0,16,16,16,1436.109256,1438.110838,left,1,3,1.18531353,T18R03,2022-11-03_14h40.08.948,t1_Paradigm,04.01.2021,59.99946106
R,left,Pretarget,0,17,17,17,1439.625935,1441.609335,left,1,3,1.014886522,T18R03,2022-11-03_14h40.08.948,t1_Paradigm,04.01.2021,59.99946106
S,right,Target,0,18,18,18,1443.108964,1445.109113,left,0,3,1.147012269,T18R03,2022-11-03_14h40.08.948,t1_Paradigm,04.01.2021,59.99946106
F,left,Distractor,0,19,19,19,1446.609055,1448.609353,left,1,3,0.990745487,T18R03,2022-11-03_14h40.08.948,t1_Paradigm,04.01.2021,59.99946106
R,right,Target,0,20,20,20,1450.108985,1452.109278,left,0,3,0.994702908,T18R03,2022-11-03_14h40.08.948,t1_Paradigm,04.01.2021,59.99946106
P,left,Distractor,0,21,21,21,1453.60886,1455.609307,left,1,3,1.158861112,T18R03,2022-11-03_14h40.08.948,t1_Paradigm,04.01.2021,59.99946106
L,left,Distractor,0,22,22,22,1457.109295,1459.110847,left,1,3,1.161430099,T18R03,2022-11-03_14h40.08.948,t1_Paradigm,04.01.2021,59.99946106
R,right,Target,0,23,23,23,1460.625646,1462.62541,left,0,3,1.262835792,T18R03,2022-11-03_14h40.08.948,t1_Paradigm,04.01.2021,59.99946106
H,left,Pretarget,0,24,24,24,1464.125716,1466.125626,left,1,3,1.122592136,T18R03,2022-11-03_14h40.08.948,t1_Paradigm,04.01.2021,59.99946106
G,left,Pretarget,0,25,25,25,1467.609321,1469.610579,left,1,3,0.93351495,T18R03,2022-11-03_14h40.08.948,t1_Paradigm,04.01.2021,59.99946106
T,left,Distractor,0,26,26,26,1471.109251,1473.109174,left,1,3,0.762998118,T18R03,2022-11-03_14h40.08.948,t1_Paradigm,04.01.2021,59.99946106
H,right,Target,0,27,27,27,1474.609056,1476.609439,left,0,3,1.279181966,T18R03,2022-11-03_14h40.08.948,t1_Paradigm,04.01.2021,59.99946106
G,right,Target,0,28,28,28,1478.109097,1480.108506,None,0,3,,T18R03,2022-11-03_14h40.08.948,t1_Paradigm,04.01.2021,59.99946106
D,left,Distractor,0,29,29,29,1481.609105,1483.609554,left,1,3,0.726597292,T18R03,2022-11-03_14h40.08.948,t1_Paradigm,04.01.2021,59.99946106
N,left,Pretarget,0,30,30,30,1485.109004,1487.109273,right,0,3,0.747029529,T18R03,2022-11-03_14h40.08.948,t1_Paradigm,04.01.2021,59.99946106
V,left,Distractor,0,31,31,31,1488.60888,1490.609471,left,1,3,0.87871353,T18R03,2022-11-03_14h40.08.948,t1_Paradigm,04.01.2021,59.99946106
R,left,Distractor,0,32,32,32,1492.109055,1494.109296,right,0,3,0.962894691,T18R03,2022-11-03_14h40.08.948,t1_Paradigm,04.01.2021,59.99946106
N,right,Target,0,33,33,33,1495.608973,1497.609205,left,0,3,0.40690566,T18R03,2022-11-03_14h40.08.948,t1_Paradigm,04.01.2021,59.99946106
Z,left,Distractor,0,34,34,34,1499.10903,1501.109699,left,1,3,0.28241726,T18R03,2022-11-03_14h40.08.948,t1_Paradigm,04.01.2021,59.99946106
N,left,Lure,0,35,35,35,1502.60913,1504.609548,left,1,3,0.446694482,T18R03,2022-11-03_14h40.08.948,t1_Paradigm,04.01.2021,59.99946106
Y,left,Pretarget,0,36,36,36,1506.109073,1508.109434,right,0,3,0.322787056,T18R03,2022-11-03_14h40.08.948,t1_Paradigm,04.01.2021,59.99946106
Y,left,Lure,0,37,37,37,1509.609052,1511.609053,left,1,3,0.295531348,T18R03,2022-11-03_14h40.08.948,t1_Paradigm,04.01.2021,59.99946106
B,left,Distractor,0,38,38,38,1513.109014,1515.109085,left,1,3,0.235011623,T18R03,2022-11-03_14h40.08.948,t1_Paradigm,04.01.2021,59.99946106
Y,right,Target,0,39,39,39,1516.609152,1518.6095,left,0,3,0.318427349,T18R03,2022-11-03_14h40.08.948,t1_Paradigm,04.01.2021,59.99946106
J,left,Distractor,0,40,40,40,1520.109414,1522.108998,left,1,3,0.611146863,T18R03,2022-11-03_14h40.08.948,t1_Paradigm,04.01.2021,59.99946106
X,left,Distractor,0,41,41,41,1523.609306,1525.609028,left,1,3,0.79121912,T18R03,2022-11-03_14h40.08.948,t1_Paradigm,04.01.2021,59.99946106
W,left,Pretarget,0,42,42,42,1527.109166,1529.110191,left,1,3,0.538067075,T18R03,2022-11-03_14h40.08.948,t1_Paradigm,04.01.2021,59.99946106
S,left,Pretarget,0,43,43,43,1530.625805,1532.625597,left,1,3,0.894700406,T18R03,2022-11-03_14h40.08.948,t1_Paradigm,04.01.2021,59.99946106
R,left,Distractor,0,44,44,44,1534.125778,1536.11067,left,1,3,0.929672377,T18R03,2022-11-03_14h40.08.948,t1_Paradigm,04.01.2021,59.99946106
W,right,Target,0,45,45,45,1537.609378,1539.609675,right,1,3,0.822555757,T18R03,2022-11-03_14h40.08.948,t1_Paradigm,04.01.2021,59.99946106
S,right,Target,0,46,46,46,1541.109411,1543.109928,right,1,3,0.858169655,T18R03,2022-11-03_14h40.08.948,t1_Paradigm,04.01.2021,59.99946106
D,left,Distractor,0,47,47,47,1544.609191,1546.609005,left,1,3,0.655223853,T18R03,2022-11-03_14h40.08.948,t1_Paradigm,04.01.2021,59.99946106
T,left,Distractor,0,48,48,48,1548.109135,1550.109332,left,1,3,0.786941539,T18R03,2022-11-03_14h40.08.948,t1_Paradigm,04.01.2021,59.99946106
S,right,Target,0,49,49,49,1551.609226,1553.609544,right,1,3,0.934607925,T18R03,2022-11-03_14h40.08.948,t1_Paradigm,04.01.2021,59.99946106
K,left,Distractor,0,50,50,50,1555.109141,1557.109515,right,0,3,1.130896431,T18R03,2022-11-03_14h40.08.948,t1_Paradigm,04.01.2021,59.99946106
S,left,Lure,0,51,51,51,1558.609193,1560.610129,left,1,3,0.878260236,T18R03,2022-11-03_14h40.08.948,t1_Paradigm,04.01.2021,59.99946106
T,left,Pretarget,0,52,52,52,1562.109136,1564.108923,left,1,3,0.755337674,T18R03,2022-11-03_14h40.08.948,t1_Paradigm,04.01.2021,59.99946106
V,left,Distractor,0,53,53,53,1565.609225,1567.609125,left,1,3,0.711349225,T18R03,2022-11-03_14h40.08.948,t1_Paradigm,04.01.2021,59.99946106
B,left,Distractor,0,54,54,54,1569.109239,1571.110784,left,1,3,0.569472363,T18R03,2022-11-03_14h40.08.948,t1_Paradigm,04.01.2021,59.99946106
T,right,Target,0,55,55,55,1572.625843,1574.609453,right,1,3,0.510856601,T18R03,2022-11-03_14h40.08.948,t1_Paradigm,04.01.2021,59.99946106
Y,left,Pretarget,0,56,56,56,1576.109396,1578.109373,right,0,3,0.978947331,T18R03,2022-11-03_14h40.08.948,t1_Paradigm,04.01.2021,59.99946106
T,left,Lure,0,57,57,57,1579.609241,1581.609409,left,1,3,0.663047265,T18R03,2022-11-03_14h40.08.948,t1_Paradigm,04.01.2021,59.99946106
P,left,Pretarget,0,58,58,58,1583.109152,1585.109421,left,1,3,0.666813167,T18R03,2022-11-03_14h40.08.948,t1_Paradigm,04.01.2021,59.99946106
Y,right,Target,0,59,59,59,1586.60952,1588.611315,left,0,3,0.877442511,T18R03,2022-11-03_14h40.08.948,t1_Paradigm,04.01.2021,59.99946106
R,left,Distractor,0,60,60,60,1590.125947,1592.125802,right,0,3,0.722475941,T18R03,2022-11-03_14h40.08.948,t1_Paradigm,04.01.2021,59.99946106
P,right,Target,0,61,61,61,1593.609331,1595.609152,right,1,3,0.919238915,T18R03,2022-11-03_14h40.08.948,t1_Paradigm,04.01.2021,59.99946106
L,left,Distractor,0,62,62,62,1597.109218,1599.109218,left,1,3,0.842908114,T18R03,2022-11-03_14h40.08.948,t1_Paradigm,04.01.2021,59.99946106
V,left,Distractor,0,63,63,63,1600.609237,1602.625772,left,1,3,0.87844149,T18R03,2022-11-03_14h40.08.948,t1_Paradigm,04.01.2021,59.99946106
H,left,Lure,0,0,0,0,1609.422026,1611.425732,None,0,3,,T18R03,2022-11-03_14h40.08.948,t1_Paradigm,04.01.2021,59.99946106
B,left,Distractor,0,1,1,1,1612.925851,1614.926106,left,1,3,0.610332345,T18R03,2022-11-03_14h40.08.948,t1_Paradigm,04.01.2021,59.99946106
T,left,Distractor,0,2,2,2,1616.42592,1618.426143,left,1,3,0.870293746,T18R03,2022-11-03_14h40.08.948,t1_Paradigm,04.01.2021,59.99946106
R,left,Distractor,0,3,3,3,1619.926006,1621.926253,left,1,3,1.066093671,T18R03,2022-11-03_14h40.08.948,t1_Paradigm,04.01.2021,59.99946106
H,left,Pretarget,0,4,4,4,1623.425768,1625.425273,None,0,3,,T18R03,2022-11-03_14h40.08.948,t1_Paradigm,04.01.2021,59.99946106
K,left,Distractor,0,5,5,5,1626.925997,1628.926118,left,1,3,1.186185471,T18R03,2022-11-03_14h40.08.948,t1_Paradigm,04.01.2021,59.99946106
G,left,Distractor,0,6,6,6,1630.425785,1632.425856,left,1,3,0.726632259,T18R03,2022-11-03_14h40.08.948,t1_Paradigm,04.01.2021,59.99946106
H,right,Target,0,7,7,7,1633.926046,1635.942451,left,0,3,0.858036201,T18R03,2022-11-03_14h40.08.948,t1_Paradigm,04.01.2021,59.99946106
Y,left,Pretarget,0,8,8,8,1637.426013,1639.425838,left,1,3,0.86252872,T18R03,2022-11-03_14h40.08.948,t1_Paradigm,04.01.2021,59.99946106
S,left,Distractor,0,9,9,9,1640.926188,1642.926821,left,1,3,1.425680631,T18R03,2022-11-03_14h40.08.948,t1_Paradigm,04.01.2021,59.99946106
P,left,Distractor,0,10,10,10,1644.426079,1646.426185,left,1,3,0.950104935,T18R03,2022-11-03_14h40.08.948,t1_Paradigm,04.01.2021,59.99946106
Y,right,Target,0,11,11,11,1647.925903,1649.92641,right,1,3,0.601935659,T18R03,2022-11-03_14h40.08.948,t1_Paradigm,04.01.2021,59.99946106
H,left,Lure,0,12,12,12,1651.425835,1653.427094,left,1,3,0.909312,T18R03,2022-11-03_14h40.08.948,t1_Paradigm,04.01.2021,59.99946106
Q,left,Distractor,0,13,13,13,1654.925233,1656.9266,left,1,3,0.833751446,T18R03,2022-11-03_14h40.08.948,t1_Paradigm,04.01.2021,59.99946106
V,left,Pretarget,0,14,14,14,1658.425963,1660.425974,right,0,3,0.374530586,T18R03,2022-11-03_14h40.08.948,t1_Paradigm,04.01.2021,59.99946106
G,left,Distractor,0,15,15,15,1661.92605,1663.926348,left,1,3,0.378057168,T18R03,2022-11-03_14h40.08.948,t1_Paradigm,04.01.2021,59.99946106
Z,left,Pretarget,0,16,16,16,1665.426061,1667.42675,left,1,3,0.333578533,T18R03,2022-11-03_14h40.08.948,t1_Paradigm,04.01.2021,59.99946106
V,right,Target,0,17,17,17,1668.92587,1670.926491,right,1,3,0.290024772,T18R03,2022-11-03_14h40.08.948,t1_Paradigm,04.01.2021,59.99946106
N,left,Distractor,0,18,18,18,1672.426199,1674.426815,right,0,3,0.933524254,T18R03,2022-11-03_14h40.08.948,t1_Paradigm,04.01.2021,59.99946106
Z,right,Target,0,19,19,19,1675.925722,1677.926409,left,0,3,1.082329168,T18R03,2022-11-03_14h40.08.948,t1_Paradigm,04.01.2021,59.99946106
R,left,Distractor,0,20,20,20,1679.426028,1681.425982,left,1,3,0.734384133,T18R03,2022-11-03_14h40.08.948,t1_Paradigm,04.01.2021,59.99946106
P,left,Distractor,0,21,21,21,1682.926069,1684.926455,left,1,3,1.1860209,T18R03,2022-11-03_14h40.08.948,t1_Paradigm,04.01.2021,59.99946106
Z,right,Target,0,22,22,22,1686.4263,1688.425965,right,1,3,0.69460686,T18R03,2022-11-03_14h40.08.948,t1_Paradigm,04.01.2021,59.99946106
D,left,Pretarget,0,23,23,23,1689.926022,1691.926407,left,1,3,0.633988968,T18R03,2022-11-03_14h40.08.948,t1_Paradigm,04.01.2021,59.99946106
K,left,Distractor,0,24,24,24,1693.426385,1695.426455,left,1,3,0.990093617,T18R03,2022-11-03_14h40.08.948,t1_Paradigm,04.01.2021,59.99946106
W,left,Distractor,0,25,25,25,1696.926394,1698.925933,left,1,3,0.754499096,T18R03,2022-11-03_14h40.08.948,t1_Paradigm,04.01.2021,59.99946106
D,right,Target,0,26,26,26,1700.425974,1702.425961,left,0,3,1.110661168,T18R03,2022-11-03_14h40.08.948,t1_Paradigm,04.01.2021,59.99946106
G,left,Pretarget,0,27,27,27,1703.925941,1705.926162,right,0,3,0.762380573,T18R03,2022-11-03_14h40.08.948,t1_Paradigm,04.01.2021,59.99946106
V,left,Distractor,0,28,28,28,1707.426064,1709.426048,left,1,3,0.84677603,T18R03,2022-11-03_14h40.08.948,t1_Paradigm,04.01.2021,59.99946106
D,right,Target,0,29,29,29,1710.926413,1712.925913,right,1,3,0.882668064,T18R03,2022-11-03_14h40.08.948,t1_Paradigm,04.01.2021,59.99946106
G,right,Target,0,30,30,30,1714.426446,1716.426385,right,1,3,1.126070919,T18R03,2022-11-03_14h40.08.948,t1_Paradigm,04.01.2021,59.99946106
B,left,Pretarget,0,31,31,31,1717.92586,1719.927399,left,1,3,1.016929393,T18R03,2022-11-03_14h40.08.948,t1_Paradigm,04.01.2021,59.99946106
N,left,Distractor,0,32,32,32,1721.425932,1723.426369,right,0,3,0.318099809,T18R03,2022-11-03_14h40.08.948,t1_Paradigm,04.01.2021,59.99946106
F,left,Distractor,0,33,33,33,1724.926338,1726.926652,left,1,3,0.433912746,T18R03,2022-11-03_14h40.08.948,t1_Paradigm,04.01.2021,59.99946106
B,right,Target,0,34,34,34,1728.426047,1730.426038,left,0,3,0.758569759,T18R03,2022-11-03_14h40.08.948,t1_Paradigm,04.01.2021,59.99946106
Q,left,Pretarget,0,35,35,35,1731.926072,1733.926265,right,0,3,1.258409037,T18R03,2022-11-03_14h40.08.948,t1_Paradigm,04.01.2021,59.99946106
S,left,Pretarget,0,36,36,36,1735.426009,1737.426034,left,1,3,0.974661409,T18R03,2022-11-03_14h40.08.948,t1_Paradigm,04.01.2021,59.99946106
W,left,Distractor,0,37,37,37,1738.926436,1740.926294,left,1,3,0.978192804,T18R03,2022-11-03_14h40.08.948,t1_Paradigm,04.01.2021,59.99946106
Q,right,Target,0,38,38,38,1742.426169,1744.426154,right,1,3,1.046553265,T18R03,2022-11-03_14h40.08.948,t1_Paradigm,04.01.2021,59.99946106
S,right,Target,0,39,39,39,1745.926395,1747.92647,right,1,3,0.698304109,T18R03,2022-11-03_14h40.08.948,t1_Paradigm,04.01.2021,59.99946106
T,left,Distractor,0,40,40,40,1749.425863,1751.42614,left,1,3,0.878451755,T18R03,2022-11-03_14h40.08.948,t1_Paradigm,04.01.2021,59.99946106
G,left,Distractor,0,41,41,41,1752.926511,1754.927591,left,1,3,0.705050587,T18R03,2022-11-03_14h40.08.948,t1_Paradigm,04.01.2021,59.99946106
D,left,Distractor,0,42,42,42,1756.426125,1758.42652,left,1,3,0.710178937,T18R03,2022-11-03_14h40.08.948,t1_Paradigm,04.01.2021,59.99946106
S,left,Lure,0,43,43,43,1759.925821,1761.926928,right,0,3,0.95373257,T18R03,2022-11-03_14h40.08.948,t1_Paradigm,04.01.2021,59.99946106
Z,left,Pretarget,0,44,44,44,1763.426152,1765.426347,left,1,3,0.750178206,T18R03,2022-11-03_14h40.08.948,t1_Paradigm,04.01.2021,59.99946106
J,left,Distractor,0,45,45,45,1766.926102,1768.925859,left,1,3,0.722806368,T18R03,2022-11-03_14h40.08.948,t1_Paradigm,04.01.2021,59.99946106
M,left,Pretarget,0,46,46,46,1770.426119,1772.4263,left,1,3,0.694415341,T18R03,2022-11-03_14h40.08.948,t1_Paradigm,04.01.2021,59.99946106
Z,right,Target,0,47,47,47,1773.92612,1775.926477,left,0,3,0.746288475,T18R03,2022-11-03_14h40.08.948,t1_Paradigm,04.01.2021,59.99946106
P,left,Distractor,0,48,48,48,1777.42619,1779.426027,left,1,3,0.942717814,T18R03,2022-11-03_14h40.08.948,t1_Paradigm,04.01.2021,59.99946106
M,right,Target,0,49,49,49,1780.925569,1782.927107,right,1,3,0.929676868,T18R03,2022-11-03_14h40.08.948,t1_Paradigm,04.01.2021,59.99946106
K,left,Distractor,0,50,50,50,1784.426176,1786.427864,left,1,3,1.028968472,T18R03,2022-11-03_14h40.08.948,t1_Paradigm,04.01.2021,59.99946106
Y,left,Distractor,0,51,51,51,1787.92655,1789.926325,left,1,3,0.778265754,T18R03,2022-11-03_14h40.08.948,t1_Paradigm,04.01.2021,59.99946106
X,left,Distractor,0,52,52,52,1791.426222,1793.426146,left,1,3,0.862786966,T18R03,2022-11-03_14h40.08.948,t1_Paradigm,04.01.2021,59.99946106
F,left,Pretarget,0,53,53,53,1794.926055,1796.939174,left,1,3,0.853653075,T18R03,2022-11-03_14h40.08.948,t1_Paradigm,04.01.2021,59.99946106
M,left,Lure,0,54,54,54,1798.426269,1800.425987,right,0,3,0.774734359,T18R03,2022-11-03_14h40.08.948,t1_Paradigm,04.01.2021,59.99946106
V,left,Distractor,0,55,55,55,1801.926066,1803.92833,left,1,3,0.712607413,T18R03,2022-11-03_14h40.08.948,t1_Paradigm,04.01.2021,59.99946106
F,right,Target,0,56,56,56,1805.426195,1807.427069,left,0,3,0.957762171,T18R03,2022-11-03_14h40.08.948,t1_Paradigm,04.01.2021,59.99946106
S,left,Distractor,0,57,57,57,1808.926486,1810.926478,left,1,3,0.802129616,T18R03,2022-11-03_14h40.08.948,t1_Paradigm,04.01.2021,59.99946106
D,left,Distractor,0,58,58,58,1812.426493,1814.426087,left,1,3,0.630738597,T18R03,2022-11-03_14h40.08.948,t1_Paradigm,04.01.2021,59.99946106
F,right,Target,0,59,59,59,1815.926133,1817.926529,right,1,3,0.922125497,T18R03,2022-11-03_14h40.08.948,t1_Paradigm,04.01.2021,59.99946106
V,left,Pretarget,0,60,60,60,1819.426323,1821.427203,left,1,3,1.181673383,T18R03,2022-11-03_14h40.08.948,t1_Paradigm,04.01.2021,59.99946106
J,left,Distractor,0,61,61,61,1822.926221,1824.926189,left,1,3,0.802449777,T18R03,2022-11-03_14h40.08.948,t1_Paradigm,04.01.2021,59.99946106
V,left,Lure,0,62,62,62,1826.426217,1828.426425,right,0,3,1.366768447,T18R03,2022-11-03_14h40.08.948,t1_Paradigm,04.01.2021,59.99946106
V,right,Target,0,63,63,63,1829.92665,1831.926176,left,0,3,0.890617551,T18R03,2022-11-03_14h40.08.948,t1_Paradigm,04.01.2021,59.99946106
R,left,Distractor,0,0,0,0,1901.091777,1903.093282,None,0,4,,T18R03,2022-11-03_14h40.08.948,t1_Paradigm,04.01.2021,59.99946106
F,left,Distractor,0,1,1,1,1904.592993,1906.593326,left,1,4,0.591652011,T18R03,2022-11-03_14h40.08.948,t1_Paradigm,04.01.2021,59.99946106
P,left,Pretarget,0,2,2,2,1908.092486,1910.093358,left,1,4,1.043588408,T18R03,2022-11-03_14h40.08.948,t1_Paradigm,04.01.2021,59.99946106
H,left,Distractor,0,3,3,3,1911.592932,1913.593279,left,1,4,0.855727385,T18R03,2022-11-03_14h40.08.948,t1_Paradigm,04.01.2021,59.99946106
Z,left,Distractor,0,4,4,4,1915.093089,1917.093078,left,1,4,1.180043065,T18R03,2022-11-03_14h40.08.948,t1_Paradigm,04.01.2021,59.99946106
T,left,Distractor,0,5,5,5,1918.593124,1920.593394,left,1,4,1.423608888,T18R03,2022-11-03_14h40.08.948,t1_Paradigm,04.01.2021,59.99946106
P,right,Target,0,6,6,6,1922.093087,1924.0934,left,0,4,1.155469267,T18R03,2022-11-03_14h40.08.948,t1_Paradigm,04.01.2021,59.99946106
G,left,Distractor,0,7,7,7,1925.593117,1927.593513,left,1,4,0.71140697,T18R03,2022-11-03_14h40.08.948,t1_Paradigm,04.01.2021,59.99946106
L,left,Distractor,0,8,8,8,1929.093333,1931.093034,left,1,4,0.843809569,T18R03,2022-11-03_14h40.08.948,t1_Paradigm,04.01.2021,59.99946106
P,left,Lure,0,9,9,9,1932.593145,1934.593369,right,0,4,1.007613928,T18R03,2022-11-03_14h40.08.948,t1_Paradigm,04.01.2021,59.99946106
Q,left,Pretarget,0,10,10,10,1936.093109,1938.093294,right,0,4,0.963828869,T18R03,2022-11-03_14h40.08.948,t1_Paradigm,04.01.2021,59.99946106
D,left,Distractor,0,11,11,11,1939.593234,1941.593141,left,1,4,0.775887324,T18R03,2022-11-03_14h40.08.948,t1_Paradigm,04.01.2021,59.99946106
M,left,Pretarget,0,12,12,12,1943.093402,1945.093651,left,1,4,1.195367162,T18R03,2022-11-03_14h40.08.948,t1_Paradigm,04.01.2021,59.99946106
C,left,Distractor,0,13,13,13,1946.593124,1948.593349,left,1,4,1.039606606,T18R03,2022-11-03_14h40.08.948,t1_Paradigm,04.01.2021,59.99946106
Q,right,Target,0,14,14,14,1950.093032,1952.095034,right,1,4,0.70597482,T18R03,2022-11-03_14h40.08.948,t1_Paradigm,04.01.2021,59.99946106
R,left,Distractor,0,15,15,15,1953.593416,1955.594914,left,1,4,0.934011874,T18R03,2022-11-03_14h40.08.948,t1_Paradigm,04.01.2021,59.99946106
M,right,Target,0,16,16,16,1957.093265,1959.094506,left,0,4,1.050359267,T18R03,2022-11-03_14h40.08.948,t1_Paradigm,04.01.2021,59.99946106
S,left,Distractor,0,17,17,17,1960.592876,1962.593477,left,1,4,0.559541599,T18R03,2022-11-03_14h40.08.948,t1_Paradigm,04.01.2021,59.99946106
Z,left,Distractor,0,18,18,18,1964.093099,1966.094009,right,0,4,1.107008189,T18R03,2022-11-03_14h40.08.948,t1_Paradigm,04.01.2021,59.99946106
L,left,Pretarget,0,19,19,19,1967.592936,1969.5949,left,1,4,1.19022213,T18R03,2022-11-03_14h40.08.948,t1_Paradigm,04.01.2021,59.99946106
M,right,Target,0,20,20,20,1971.093154,1973.094363,right,1,4,1.018679371,T18R03,2022-11-03_14h40.08.948,t1_Paradigm,04.01.2021,59.99946106
P,left,Distractor,0,21,21,21,1974.593273,1976.595247,left,1,4,0.845902806,T18R03,2022-11-03_14h40.08.948,t1_Paradigm,04.01.2021,59.99946106
F,left,Distractor,0,22,22,22,1978.09313,1980.095501,left,1,4,0.817440881,T18R03,2022-11-03_14h40.08.948,t1_Paradigm,04.01.2021,59.99946106
L,right,Target,0,23,23,23,1981.593209,1983.593566,left,0,4,0.791507522,T18R03,2022-11-03_14h40.08.948,t1_Paradigm,04.01.2021,59.99946106
L,left,Lure,0,24,24,24,1985.093124,1987.093418,right,0,4,1.227585685,T18R03,2022-11-03_14h40.08.948,t1_Paradigm,04.01.2021,59.99946106
V,left,Pretarget,0,25,25,25,1988.593109,1990.594229,left,1,4,1.182839501,T18R03,2022-11-03_14h40.08.948,t1_Paradigm,04.01.2021,59.99946106
Z,left,Distractor,0,26,26,26,1992.093355,1994.093883,right,0,4,1.171162608,T18R03,2022-11-03_14h40.08.948,t1_Paradigm,04.01.2021,59.99946106
H,left,Distractor,0,27,27,27,1995.593196,1997.593478,left,1,4,1.383400135,T18R03,2022-11-03_14h40.08.948,t1_Paradigm,04.01.2021,59.99946106
X,left,Distractor,0,28,28,28,1999.093336,2001.093022,left,1,4,1.020060426,T18R03,2022-11-03_14h40.08.948,t1_Paradigm,04.01.2021,59.99946106
V,right,Target,0,29,29,29,2002.593134,2004.593591,left,0,4,1.039552391,T18R03,2022-11-03_14h40.08.948,t1_Paradigm,04.01.2021,59.99946106
C,left,Distractor,0,30,30,30,2006.093288,2008.095292,left,1,4,1.265671045,T18R03,2022-11-03_14h40.08.948,t1_Paradigm,04.01.2021,59.99946106
S,left,Pretarget,0,31,31,31,2009.593171,2011.59319,left,1,4,1.144007953,T18R03,2022-11-03_14h40.08.948,t1_Paradigm,04.01.2021,59.99946106
D,left,Distractor,0,32,32,32,2013.093501,2015.093851,left,1,4,0.85895947,T18R03,2022-11-03_14h40.08.948,t1_Paradigm,04.01.2021,59.99946106
V,left,Distractor,0,33,33,33,2016.593218,2018.593357,right,0,4,0.911652897,T18R03,2022-11-03_14h40.08.948,t1_Paradigm,04.01.2021,59.99946106
R,left,Distractor,0,34,34,34,2020.093481,2022.092987,right,0,4,0.996240194,T18R03,2022-11-03_14h40.08.948,t1_Paradigm,04.01.2021,59.99946106
S,right,Target,0,35,35,35,2023.59299,2025.593694,left,0,4,1.367263124,T18R03,2022-11-03_14h40.08.948,t1_Paradigm,04.01.2021,59.99946106
Y,left,Distractor,0,36,36,36,2027.093342,2029.093421,left,1,4,1.339725752,T18R03,2022-11-03_14h40.08.948,t1_Paradigm,04.01.2021,59.99946106
N,left,Pretarget,0,37,37,37,2030.593286,2032.593418,right,0,4,1.200198128,T18R03,2022-11-03_14h40.08.948,t1_Paradigm,04.01.2021,59.99946106
Z,left,Pretarget,0,38,38,38,2034.093602,2036.093024,left,1,4,1.460122957,T18R03,2022-11-03_14h40.08.948,t1_Paradigm,04.01.2021,59.99946106
P,left,Pretarget,0,39,39,39,2037.593235,2039.59483,left,1,4,1.350169159,T18R03,2022-11-03_14h40.08.948,t1_Paradigm,04.01.2021,59.99946106
M,left,Distractor,0,40,40,40,2041.093266,2043.093198,right,0,4,1.24406018,T18R03,2022-11-03_14h40.08.948,t1_Paradigm,04.01.2021,59.99946106
N,right,Target,0,41,41,41,2044.593475,2046.593676,left,0,4,0.943493194,T18R03,2022-11-03_14h40.08.948,t1_Paradigm,04.01.2021,59.99946106
Z,right,Target,0,42,42,42,2048.093157,2050.094966,None,0,4,,T18R03,2022-11-03_14h40.08.948,t1_Paradigm,04.01.2021,59.99946106
P,right,Target,0,43,43,43,2051.593359,2053.595102,left,0,4,1.126132513,T18R03,2022-11-03_14h40.08.948,t1_Paradigm,04.01.2021,59.99946106
X,left,Pretarget,0,44,44,44,2055.093285,2057.093668,left,1,4,1.05139995,T18R03,2022-11-03_14h40.08.948,t1_Paradigm,04.01.2021,59.99946106
Z,left,Lure,0,45,45,45,2058.593326,2060.596002,right,0,4,1.197516539,T18R03,2022-11-03_14h40.08.948,t1_Paradigm,04.01.2021,59.99946106
R,left,Pretarget,0,46,46,46,2062.093589,2064.094256,right,0,4,1.314959152,T18R03,2022-11-03_14h40.08.948,t1_Paradigm,04.01.2021,59.99946106
K,left,Distractor,0,47,47,47,2065.593323,2067.593507,right,0,4,1.207672186,T18R03,2022-11-03_14h40.08.948,t1_Paradigm,04.01.2021,59.99946106
X,right,Target,0,48,48,48,2069.093107,2071.093505,right,1,4,0.971586837,T18R03,2022-11-03_14h40.08.948,t1_Paradigm,04.01.2021,59.99946106
B,left,Distractor,0,49,49,49,2072.593252,2074.593194,left,1,4,0.94403952,T18R03,2022-11-03_14h40.08.948,t1_Paradigm,04.01.2021,59.99946106
R,right,Target,0,50,50,50,2076.09372,2078.093107,right,1,4,1.027997724,T18R03,2022-11-03_14h40.08.948,t1_Paradigm,04.01.2021,59.99946106
Y,left,Pretarget,0,51,51,51,2079.593296,2081.59334,left,1,4,1.143881236,T18R03,2022-11-03_14h40.08.948,t1_Paradigm,04.01.2021,59.99946106
W,left,Pretarget,0,52,52,52,2083.093275,2085.093348,left,1,4,1.419825663,T18R03,2022-11-03_14h40.08.948,t1_Paradigm,04.01.2021,59.99946106
Z,left,Distractor,0,53,53,53,2086.593647,2088.593409,None,0,4,,T18R03,2022-11-03_14h40.08.948,t1_Paradigm,04.01.2021,59.99946106
Q,left,Distractor,0,54,54,54,2090.093402,2092.093996,left,1,4,1.05929843,T18R03,2022-11-03_14h40.08.948,t1_Paradigm,04.01.2021,59.99946106
Y,right,Target,0,55,55,55,2093.593486,2095.593568,left,0,4,1.079749915,T18R03,2022-11-03_14h40.08.948,t1_Paradigm,04.01.2021,59.99946106
W,right,Target,0,56,56,56,2097.093383,2099.094266,left,0,4,1.210888553,T18R03,2022-11-03_14h40.08.948,t1_Paradigm,04.01.2021,59.99946106
H,left,Pretarget,0,57,57,57,2100.593618,2102.593553,right,0,4,0.575757527,T18R03,2022-11-03_14h40.08.948,t1_Paradigm,04.01.2021,59.99946106
M,left,Distractor,0,58,58,58,2104.093508,2106.093287,left,1,4,0.467821577,T18R03,2022-11-03_14h40.08.948,t1_Paradigm,04.01.2021,59.99946106
R,left,Pretarget,0,59,59,59,2107.593338,2109.593466,left,1,4,0.839833542,T18R03,2022-11-03_14h40.08.948,t1_Paradigm,04.01.2021,59.99946106
J,left,Distractor,0,60,60,60,2111.093421,2113.095138,right,0,4,0.650101919,T18R03,2022-11-03_14h40.08.948,t1_Paradigm,04.01.2021,59.99946106
H,right,Target,0,61,61,61,2114.593677,2116.593779,left,0,4,0.719442111,T18R03,2022-11-03_14h40.08.948,t1_Paradigm,04.01.2021,59.99946106
Z,left,Distractor,0,62,62,62,2118.093524,2120.09386,right,0,4,0.915566688,T18R03,2022-11-03_14h40.08.948,t1_Paradigm,04.01.2021,59.99946106
R,right,Target,0,63,63,63,2121.593271,2123.593887,left,0,4,0.663466554,T18R03,2022-11-03_14h40.08.948,t1_Paradigm,04.01.2021,59.99946106
J,left,Pretarget,0,0,0,0,2128.907132,2130.910462,None,0,4,,T18R03,2022-11-03_14h40.08.948,t1_Paradigm,04.01.2021,59.99946106
G,left,Pretarget,0,1,1,1,2132.410436,2134.410523,left,1,4,1.062936973,T18R03,2022-11-03_14h40.08.948,t1_Paradigm,04.01.2021,59.99946106
Z,left,Distractor,0,2,2,2,2135.910214,2137.911242,left,1,4,0.922141537,T18R03,2022-11-03_14h40.08.948,t1_Paradigm,04.01.2021,59.99946106
F,left,Distractor,0,3,3,3,2139.409988,2141.410463,left,1,4,1.358810618,T18R03,2022-11-03_14h40.08.948,t1_Paradigm,04.01.2021,59.99946106
J,right,Target,0,4,4,4,2142.91007,2144.910472,right,1,4,0.802783091,T18R03,2022-11-03_14h40.08.948,t1_Paradigm,04.01.2021,59.99946106
G,right,Target,0,5,5,5,2146.410263,2148.410678,right,1,4,0.934597659,T18R03,2022-11-03_14h40.08.948,t1_Paradigm,04.01.2021,59.99946106
H,left,Distractor,0,6,6,6,2149.910411,2151.910365,left,1,4,0.747256978,T18R03,2022-11-03_14h40.08.948,t1_Paradigm,04.01.2021,59.99946106
P,left,Distractor,0,7,7,7,2153.410463,2155.411141,left,1,4,0.766109261,T18R03,2022-11-03_14h40.08.948,t1_Paradigm,04.01.2021,59.99946106
G,left,Lure,0,8,8,8,2156.910086,2158.910438,right,0,4,1.090983138,T18R03,2022-11-03_14h40.08.948,t1_Paradigm,04.01.2021,59.99946106
S,left,Distractor,0,9,9,9,2160.410439,2162.410709,left,1,4,1.254568389,T18R03,2022-11-03_14h40.08.948,t1_Paradigm,04.01.2021,59.99946106
R,left,Pretarget,0,10,10,10,2163.910143,2165.910287,left,1,4,0.971064891,T18R03,2022-11-03_14h40.08.948,t1_Paradigm,04.01.2021,59.99946106
T,left,Pretarget,0,11,11,11,2167.410358,2169.410485,left,1,4,1.246976596,T18R03,2022-11-03_14h40.08.948,t1_Paradigm,04.01.2021,59.99946106
X,left,Distractor,0,12,12,12,2170.91012,2172.912093,left,1,4,0.9452945,T18R03,2022-11-03_14h40.08.948,t1_Paradigm,04.01.2021,59.99946106
F,left,Pretarget,0,13,13,13,2174.410067,2176.410671,left,1,4,1.078825041,T18R03,2022-11-03_14h40.08.948,t1_Paradigm,04.01.2021,59.99946106
R,right,Target,0,14,14,14,2177.909947,2179.909857,right,1,4,0.619502807,T18R03,2022-11-03_14h40.08.948,t1_Paradigm,04.01.2021,59.99946106
T,right,Target,0,15,15,15,2181.410054,2183.41037,right,1,4,1.407506844,T18R03,2022-11-03_14h40.08.948,t1_Paradigm,04.01.2021,59.99946106
C,left,Distractor,0,16,16,16,2184.910195,2186.911135,left,1,4,0.962411563,T18R03,2022-11-03_14h40.08.948,t1_Paradigm,04.01.2021,59.99946106
F,right,Target,0,17,17,17,2188.410346,2190.410179,left,0,4,1.223285326,T18R03,2022-11-03_14h40.08.948,t1_Paradigm,04.01.2021,59.99946106
M,left,Distractor,0,18,18,18,2191.910234,2193.910996,left,1,4,1.098668926,T18R03,2022-11-03_14h40.08.948,t1_Paradigm,04.01.2021,59.99946106
N,left,Distractor,0,19,19,19,2195.41011,2197.410333,left,1,4,1.375108993,T18R03,2022-11-03_14h40.08.948,t1_Paradigm,04.01.2021,59.99946106
R,left,Lure,0,20,20,20,2198.910111,2200.911725,right,0,4,1.378048507,T18R03,2022-11-03_14h40.08.948,t1_Paradigm,04.01.2021,59.99946106
F,right,Target,0,21,21,21,2202.410077,2204.410437,None,0,4,,T18R03,2022-11-03_14h40.08.948,t1_Paradigm,04.01.2021,59.99946106
P,left,Distractor,0,22,22,22,2205.910062,2207.911947,None,0,4,,T18R03,2022-11-03_14h40.08.948,t1_Paradigm,04.01.2021,59.99946106
L,left,Pretarget,0,23,23,23,2209.410128,2211.410783,left,1,4,1.214888961,T18R03,2022-11-03_14h40.08.948,t1_Paradigm,04.01.2021,59.99946106
T,left,Distractor,0,24,24,24,2212.910305,2214.910547,right,0,4,1.010863017,T18R03,2022-11-03_14h40.08.948,t1_Paradigm,04.01.2021,59.99946106
F,left,Distractor,0,25,25,25,2216.41019,2218.410796,left,1,4,1.158715147,T18R03,2022-11-03_14h40.08.948,t1_Paradigm,04.01.2021,59.99946106
V,left,Distractor,0,26,26,26,2219.910108,2221.912562,left,1,4,0.936873112,T18R03,2022-11-03_14h40.08.948,t1_Paradigm,04.01.2021,59.99946106
L,right,Target,0,27,27,27,2223.4102,2225.412404,left,0,4,0.909035469,T18R03,2022-11-03_14h40.08.948,t1_Paradigm,04.01.2021,59.99946106
S,left,Pretarget,0,28,28,28,2226.910149,2228.911028,left,1,4,1.154402598,T18R03,2022-11-03_14h40.08.948,t1_Paradigm,04.01.2021,59.99946106
W,left,Distractor,0,29,29,29,2230.41011,2232.411056,right,0,4,1.334389522,T18R03,2022-11-03_14h40.08.948,t1_Paradigm,04.01.2021,59.99946106
Q,left,Distractor,0,30,30,30,2233.910255,2235.910453,left,1,4,1.291100423,T18R03,2022-11-03_14h40.08.948,t1_Paradigm,04.01.2021,59.99946106
L,right,Target,0,31,31,31,2237.410154,2239.410053,left,0,4,1.103418087,T18R03,2022-11-03_14h40.08.948,t1_Paradigm,04.01.2021,59.99946106
S,right,Target,0,32,32,32,2240.910682,2242.910836,left,0,4,1.458748318,T18R03,2022-11-03_14h40.08.948,t1_Paradigm,04.01.2021,59.99946106
Z,left,Pretarget,0,33,33,33,2244.410352,2246.412052,left,1,4,0.965280821,T18R03,2022-11-03_14h40.08.948,t1_Paradigm,04.01.2021,59.99946106
F,left,Distractor,0,34,34,34,2247.910136,2249.91235,right,0,4,0.809077237,T18R03,2022-11-03_14h40.08.948,t1_Paradigm,04.01.2021,59.99946106
V,left,Distractor,0,35,35,35,2251.410072,2253.411874,left,1,4,0.253524177,T18R03,2022-11-03_14h40.08.948,t1_Paradigm,04.01.2021,59.99946106
M,left,Distractor,0,36,36,36,2254.910302,2256.910928,right,0,4,0.690671895,T18R03,2022-11-03_14h40.08.948,t1_Paradigm,04.01.2021,59.99946106
Z,right,Target,0,37,37,37,2258.410497,2260.411693,right,1,4,0.949706177,T18R03,2022-11-03_14h40.08.948,t1_Paradigm,04.01.2021,59.99946106
H,left,Pretarget,0,38,38,38,2261.910164,2263.910931,left,1,4,0.682672362,T18R03,2022-11-03_14h40.08.948,t1_Paradigm,04.01.2021,59.99946106
L,left,Distractor,0,39,39,39,2265.410289,2267.410858,left,1,4,0.766805724,T18R03,2022-11-03_14h40.08.948,t1_Paradigm,04.01.2021,59.99946106
G,left,Distractor,0,40,40,40,2268.910646,2270.911383,right,0,4,0.770110311,T18R03,2022-11-03_14h40.08.948,t1_Paradigm,04.01.2021,59.99946106
K,left,Distractor,0,41,41,41,2272.41011,2274.410748,left,1,4,0.774905668,T18R03,2022-11-03_14h40.08.948,t1_Paradigm,04.01.2021,59.99946106
H,right,Target,0,42,42,42,2275.910522,2277.910256,left,0,4,0.49136592,T18R03,2022-11-03_14h40.08.948,t1_Paradigm,04.01.2021,59.99946106
B,left,Distractor,0,43,43,43,2279.410287,2281.409674,left,1,4,0.735752997,T18R03,2022-11-03_14h40.08.948,t1_Paradigm,04.01.2021,59.99946106
Z,left,Distractor,0,44,44,44,2282.910289,2284.91066,right,0,4,0.899253557,T18R03,2022-11-03_14h40.08.948,t1_Paradigm,04.01.2021,59.99946106
T,left,Pretarget,0,45,45,45,2286.410245,2288.41029,left,1,4,0.711298538,T18R03,2022-11-03_14h40.08.948,t1_Paradigm,04.01.2021,59.99946106
H,right,Target,0,46,46,46,2289.910764,2291.91203,left,0,4,0.633491403,T18R03,2022-11-03_14h40.08.948,t1_Paradigm,04.01.2021,59.99946106
F,left,Distractor,0,47,47,47,2293.410409,2295.410907,left,1,4,0.79895367,T18R03,2022-11-03_14h40.08.948,t1_Paradigm,04.01.2021,59.99946106
R,left,Distractor,0,48,48,48,2296.910295,2298.910717,left,1,4,0.834809774,T18R03,2022-11-03_14h40.08.948,t1_Paradigm,04.01.2021,59.99946106
T,right,Target,0,49,49,49,2300.410724,2302.410606,right,1,4,1.047077777,T18R03,2022-11-03_14h40.08.948,t1_Paradigm,04.01.2021,59.99946106
H,right,Target,0,50,50,50,2303.910463,2305.911023,left,0,4,0.810564799,T18R03,2022-11-03_14h40.08.948,t1_Paradigm,04.01.2021,59.99946106
Y,left,Pretarget,0,51,51,51,2307.410284,2309.410132,right,0,4,0.863561383,T18R03,2022-11-03_14h40.08.948,t1_Paradigm,04.01.2021,59.99946106
H,left,Distractor,0,52,52,52,2310.910443,2312.910896,left,1,4,0.674813983,T18R03,2022-11-03_14h40.08.948,t1_Paradigm,04.01.2021,59.99946106
S,left,Distractor,0,53,53,53,2314.410577,2316.410894,left,1,4,0.64694073,T18R03,2022-11-03_14h40.08.948,t1_Paradigm,04.01.2021,59.99946106
Q,left,Distractor,0,54,54,54,2317.910749,2319.912809,left,1,4,0.840902135,T18R03,2022-11-03_14h40.08.948,t1_Paradigm,04.01.2021,59.99946106
Y,right,Target,0,55,55,55,2321.410418,2323.410835,left,0,4,0.798968106,T18R03,2022-11-03_14h40.08.948,t1_Paradigm,04.01.2021,59.99946106
R,left,Distractor,0,56,56,56,2324.910445,2326.910593,left,1,4,0.69111332,T18R03,2022-11-03_14h40.08.948,t1_Paradigm,04.01.2021,59.99946106
H,left,Pretarget,0,57,57,57,2328.410808,2330.412609,right,0,4,0.805142594,T18R03,2022-11-03_14h40.08.948,t1_Paradigm,04.01.2021,59.99946106
J,left,Distractor,0,58,58,58,2331.910398,2333.910928,left,1,4,0.634662012,T18R03,2022-11-03_14h40.08.948,t1_Paradigm,04.01.2021,59.99946106
V,left,Distractor,0,59,59,59,2335.410681,2337.423295,left,1,4,0.642342988,T18R03,2022-11-03_14h40.08.948,t1_Paradigm,04.01.2021,59.99946106
Y,left,Lure,0,60,60,60,2338.910438,2340.910355,right,0,4,0.659345524,T18R03,2022-11-03_14h40.08.948,t1_Paradigm,04.01.2021,59.99946106
H,right,Target,0,61,61,61,2342.41042,2344.410786,left,0,4,0.75897365,T18R03,2022-11-03_14h40.08.948,t1_Paradigm,04.01.2021,59.99946106
L,left,Distractor,0,62,62,62,2345.910492,2347.910877,left,1,4,0.778853464,T18R03,2022-11-03_14h40.08.948,t1_Paradigm,04.01.2021,59.99946106
P,left,Distractor,0,63,63,63,2349.410272,2351.410176,left,1,4,0.575284023,T18R03,2022-11-03_14h40.08.948,t1_Paradigm,04.01.2021,59.99946106
