Letter,CorrAnswer,Stimulus,nback_run.thisRepN,nback_run.thisTrialN,nback_run.thisN,nback_run.thisIndex,fixcross.started,nback_trial.started,trial_resp.keys,trial_resp.corr,currentlevel,trial_resp.rt,Participant,date,expName,psychopyVersion,frameRate,
H,left,Distractor,0,0,0,0,242.95708174887113,244.8918590573594,None,0,1,,T&18R03,2022-11-03_14h40.08.948,t1_Paradigm,2021.1.4,59.99946106243685,
Q,left,Pretarget,0,1,1,1,246.39263347472297,248.39250451209955,left,1,1,0.4694560664356686,T&18R03,2022-11-03_14h40.08.948,t1_Paradigm,2021.1.4,59.99946106243685,
Q,right,Target,0,2,2,2,249.8907834063284,251.89074330596486,right,1,1,1.067139486898668,T&18R03,2022-11-03_14h40.08.948,t1_Paradigm,2021.1.4,59.99946106243685,
T,left,Distractor,0,3,3,3,253.390414804162,255.39120173285482,left,1,1,0.5269519072026014,T&18R03,2022-11-03_14h40.08.948,t1_Paradigm,2021.1.4,59.99946106243685,
Q,left,Lure,0,4,4,4,256.8902582525043,258.89077987748897,left,1,1,1.2671345465350896,T&18R03,2022-11-03_14h40.08.948,t1_Paradigm,2021.1.4,59.99946106243685,
L,left,Distractor,0,5,5,5,260.3904876263696,262.3916322499281,left,1,1,0.8223985638469458,T&18R03,2022-11-03_14h40.08.948,t1_Paradigm,2021.1.4,59.99946106243685,
V,left,Pretarget,0,6,6,6,263.8905803383095,265.8920172129874,left,1,1,0.617980599112343,T&18R03,2022-11-03_14h40.08.948,t1_Paradigm,2021.1.4,59.99946106243685,
V,right,Target,0,7,7,7,267.3902669141535,269.39062910026405,right,1,1,0.943471378996037,T&18R03,2022-11-03_14h40.08.948,t1_Paradigm,2021.1.4,59.99946106243685,
K,left,Distractor,0,8,8,8,270.89065412286436,272.8912524196785,left,1,1,0.8186621762579307,T&18R03,2022-11-03_14h40.08.948,t1_Paradigm,2021.1.4,59.99946106243685,
G,left,Pretarget,0,9,9,9,274.3908443587716,276.39135539729614,left,1,1,0.6308143059723079,T&18R03,2022-11-03_14h40.08.948,t1_Paradigm,2021.1.4,59.99946106243685,
G,right,Target,0,10,10,10,277.8907057720935,279.8904648493626,right,1,1,0.9715457743732259,T&18R03,2022-11-03_14h40.08.948,t1_Paradigm,2021.1.4,59.99946106243685,
G,right,Target,0,11,11,11,281.39043052349007,283.3904545836849,right,1,1,0.7515445039607584,T&18R03,2022-11-03_14h40.08.948,t1_Paradigm,2021.1.4,59.99946106243685,
P,left,Pretarget,0,12,12,12,284.89084403798915,286.89207463664934,left,1,1,0.5620740143349394,T&18R03,2022-11-03_14h40.08.948,t1_Paradigm,2021.1.4,59.99946106243685,
P,right,Target,0,13,13,13,288.3904032552382,290.39049340080237,left,0,1,0.5674253219622187,T&18R03,2022-11-03_14h40.08.948,t1_Paradigm,2021.1.4,59.99946106243685,
G,left,Lure,0,14,14,14,291.89049628801877,293.89054729562486,right,0,1,1.2277290835045278,T&18R03,2022-11-03_14h40.08.948,t1_Paradigm,2021.1.4,59.99946106243685,
Y,left,Distractor,0,15,15,15,295.3904731902294,297.39207014540443,left,1,1,0.6859968394273892,T&18R03,2022-11-03_14h40.08.948,t1_Paradigm,2021.1.4,59.99946106243685,
B,left,Distractor,0,16,16,16,298.89077089499915,300.8910669957986,None,0,1,,T&18R03,2022-11-03_14h40.08.948,t1_Paradigm,2021.1.4,59.99946106243685,
T,left,Pretarget,0,17,17,17,302.39044945081696,304.39093322108965,left,1,1,0.9030784856295213,T&18R03,2022-11-03_14h40.08.948,t1_Paradigm,2021.1.4,59.99946106243685,
T,right,Target,0,18,18,18,305.89049307996174,307.89072437863797,right,1,1,0.7635075526777655,T&18R03,2022-11-03_14h40.08.948,t1_Paradigm,2021.1.4,59.99946106243685,
S,left,Distractor,0,19,19,19,309.39078276470536,311.39225043647457,left,1,1,1.149807743029669,T&18R03,2022-11-03_14h40.08.948,t1_Paradigm,2021.1.4,59.99946106243685,
T,left,Lure,0,20,20,20,312.8908972912468,314.8911208906211,left,1,1,0.8348800294334069,T&18R03,2022-11-03_14h40.08.948,t1_Paradigm,2021.1.4,59.99946106243685,
J,left,Distractor,0,21,21,21,316.3905132905347,318.392487830366,left,1,1,0.7577125749667175,T&18R03,2022-11-03_14h40.08.948,t1_Paradigm,2021.1.4,59.99946106243685,
P,left,Distractor,0,22,22,22,319.890435014735,321.89077057421673,left,1,1,0.8113193262252025,T&18R03,2022-11-03_14h40.08.948,t1_Paradigm,2021.1.4,59.99946106243685,
F,left,Distractor,0,23,23,23,323.3903670045547,325.39167267101584,left,1,1,0.7344261580146849,T&18R03,2022-11-03_14h40.08.948,t1_Paradigm,2021.1.4,59.99946106243685,
L,left,Distractor,0,24,24,24,326.8905729598482,328.8916412323597,left,1,1,0.5625584261142649,T&18R03,2022-11-03_14h40.08.948,t1_Paradigm,2021.1.4,59.99946106243685,
W,left,Pretarget,0,25,25,25,330.3907644789433,332.4034701855853,left,1,1,0.6187899840297177,T&18R03,2022-11-03_14h40.08.948,t1_Paradigm,2021.1.4,59.99946106243685,
W,right,Target,0,26,26,26,333.890525801864,335.8904645285802,right,1,1,1.0515629180008546,T&18R03,2022-11-03_14h40.08.948,t1_Paradigm,2021.1.4,59.99946106243685,
V,left,Distractor,0,27,27,27,337.39064514037455,339.3911196074332,left,1,1,0.6390438543166965,T&18R03,2022-11-03_14h40.08.948,t1_Paradigm,2021.1.4,59.99946106243685,
W,left,Lure,0,28,28,28,340.8905857919017,342.89145805413136,left,1,1,1.1066755165229551,T&18R03,2022-11-03_14h40.08.948,t1_Paradigm,2021.1.4,59.99946106243685,
R,left,Pretarget,0,29,29,29,344.39046420773957,346.40355680231005,left,1,1,1.0666521877865307,T&18R03,2022-11-03_14h40.08.948,t1_Paradigm,2021.1.4,59.99946106243685,
R,right,Target,0,30,30,30,347.89075613807654,349.89050783688435,right,1,1,0.6035634108120576,T&18R03,2022-11-03_14h40.08.948,t1_Paradigm,2021.1.4,59.99946106243685,
G,left,Distractor,0,31,31,31,351.39055756130256,353.39100026886445,left,1,1,0.5752683032187633,T&18R03,2022-11-03_14h40.08.948,t1_Paradigm,2021.1.4,59.99946106243685,
R,left,Lure,0,32,32,32,354.8907933511655,356.8905418419745,left,1,1,1.3637439199956134,T&18R03,2022-11-03_14h40.08.948,t1_Paradigm,2021.1.4,59.99946106243685,
S,left,Distractor,0,33,33,33,358.39053702994715,360.3908841382945,left,1,1,0.647386325232219,T&18R03,2022-11-03_14h40.08.948,t1_Paradigm,2021.1.4,59.99946106243685,
R,left,Lure,0,34,34,34,361.89049628801877,363.8910025144578,left,1,1,0.6031729941023514,T&18R03,2022-11-03_14h40.08.948,t1_Paradigm,2021.1.4,59.99946106243685,
P,left,Pretarget,0,35,35,35,365.3907060928759,367.3908170905779,left,1,1,0.7352644150960259,T&18R03,2022-11-03_14h40.08.948,t1_Paradigm,2021.1.4,59.99946106243685,
P,right,Target,0,36,36,36,368.8910021936754,370.89054601243697,right,1,1,0.6756926609086804,T&18R03,2022-11-03_14h40.08.948,t1_Paradigm,2021.1.4,59.99946106243685,
Y,left,Pretarget,0,37,37,37,372.39066438854206,374.3906034360407,left,1,1,0.6477228471194394,T&18R03,2022-11-03_14h40.08.948,t1_Paradigm,2021.1.4,59.99946106243685,
Y,right,Target,0,38,38,38,375.8905540324631,377.89057199744275,right,1,1,0.7317975017358549,T&18R03,2022-11-03_14h40.08.948,t1_Paradigm,2021.1.4,59.99946106243685,
J,left,Distractor,0,39,39,39,379.3908578325063,381.39078276470536,left,1,1,0.6394673137692735,T&18R03,2022-11-03_14h40.08.948,t1_Paradigm,2021.1.4,59.99946106243685,
Y,left,Lure,0,40,40,40,382.89059573679697,384.90725950553315,left,1,1,1.202976277912967,T&18R03,2022-11-03_14h40.08.948,t1_Paradigm,2021.1.4,59.99946106243685,
T,left,Distractor,0,41,41,41,386.390575526224,388.3915504452307,left,1,1,0.774719281704165,T&18R03,2022-11-03_14h40.08.948,t1_Paradigm,2021.1.4,59.99946106243685,
V,left,Distractor,0,42,42,42,389.8906550852698,391.89123124670004,None,0,1,,T&18R03,2022-11-03_14h40.08.948,t1_Paradigm,2021.1.4,59.99946106243685,
N,left,Pretarget,0,43,43,43,393.39060279447585,395.39250322891166,left,1,1,0.8458521190332249,T&18R03,2022-11-03_14h40.08.948,t1_Paradigm,2021.1.4,59.99946106243685,
N,right,Target,0,44,44,44,396.8907057720935,398.8909191057901,right,1,1,0.9154528031940572,T&18R03,2022-11-03_14h40.08.948,t1_Paradigm,2021.1.4,59.99946106243685,
N,right,Target,0,45,45,45,400.3905274058343,402.3910230458132,right,1,1,0.8072521912399679,T&18R03,2022-11-03_14h40.08.948,t1_Paradigm,2021.1.4,59.99946106243685,
X,left,Distractor,0,46,46,46,403.8906329498859,405.89229534880724,left,1,1,0.9059913729433902,T&18R03,2022-11-03_14h40.08.948,t1_Paradigm,2021.1.4,59.99946106243685,
Z,left,Distractor,0,47,47,47,407.39063038351014,409.3921891631908,left,1,1,0.7659629755653441,T&18R03,2022-11-03_14h40.08.948,t1_Paradigm,2021.1.4,59.99946106243685,
H,left,Pretarget,0,48,48,48,410.8905918871751,412.8920772030833,left,1,1,0.738149071810767,T&18R03,2022-11-03_14h40.08.948,t1_Paradigm,2021.1.4,59.99946106243685,
H,right,Target,0,49,49,49,414.3906836367096,416.3906396867824,right,1,1,0.7114823581068777,T&18R03,2022-11-03_14h40.08.948,t1_Paradigm,2021.1.4,59.99946106243685,
K,left,Distractor,0,50,50,50,417.8905261226464,419.89095792290755,left,1,1,0.6192118393955752,T&18R03,2022-11-03_14h40.08.948,t1_Paradigm,2021.1.4,59.99946106243685,
V,left,Pretarget,0,51,51,51,421.3906271754531,423.390994173591,left,1,1,0.783337963570375,T&18R03,2022-11-03_14h40.08.948,t1_Paradigm,2021.1.4,59.99946106243685,
V,right,Target,0,52,52,52,424.89058964158176,426.8907205290161,right,1,1,0.691593561146874,T&18R03,2022-11-03_14h40.08.948,t1_Paradigm,2021.1.4,59.99946106243685,
R,left,Distractor,0,53,53,53,428.39070384728257,430.3913954976015,left,1,1,0.838906743330881,T&18R03,2022-11-03_14h40.08.948,t1_Paradigm,2021.1.4,59.99946106243685,
V,left,Lure,0,54,54,54,431.8909120481694,433.8910916975583,left,1,1,1.2593034349847585,T&18R03,2022-11-03_14h40.08.948,t1_Paradigm,2021.1.4,59.99946106243685,
Y,left,Distractor,0,55,55,55,435.3909794166684,437.39098839915823,left,1,1,0.9593533518491313,T&18R03,2022-11-03_14h40.08.948,t1_Paradigm,2021.1.4,59.99946106243685,
Q,left,Distractor,0,56,56,56,438.89075036364375,440.89232742908644,left,1,1,0.6580167599604465,T&18R03,2022-11-03_14h40.08.948,t1_Paradigm,2021.1.4,59.99946106243685,
Z,left,Pretarget,0,57,57,57,442.390686523926,444.393074899097,left,1,1,1.1254706975305453,T&18R03,2022-11-03_14h40.08.948,t1_Paradigm,2021.1.4,59.99946106243685,
Z,right,Target,0,58,58,58,445.8906971104443,447.89068010787014,right,1,1,0.7477609584457241,T&18R03,2022-11-03_14h40.08.948,t1_Paradigm,2021.1.4,59.99946106243685,
B,left,Distractor,0,59,59,59,449.3907731406507,451.3907028848771,left,1,1,1.1195993689470924,T&18R03,2022-11-03_14h40.08.948,t1_Paradigm,2021.1.4,59.99946106243685,
S,left,Pretarget,0,60,60,60,452.8909252010635,454.8910830359091,left,1,1,0.7712020023609512,T&18R03,2022-11-03_14h40.08.948,t1_Paradigm,2021.1.4,59.99946106243685,
S,right,Target,0,61,61,61,456.39063327072654,458.39113211870426,right,1,1,0.6473176734289154,T&18R03,2022-11-03_14h40.08.948,t1_Paradigm,2021.1.4,59.99946106243685,
T,left,Distractor,0,62,62,62,459.89070224325405,461.8906980728498,left,1,1,0.5876118237501942,T&18R03,2022-11-03_14h40.08.948,t1_Paradigm,2021.1.4,59.99946106243685,
D,left,Distractor,0,63,63,63,463.39071956661064,465.3925436499994,left,1,1,0.6538043014588766,T&18R03,2022-11-03_14h40.08.948,t1_Paradigm,2021.1.4,59.99946106243685,
R,left,Distractor,0,0,0,0,482.44060789520154,484.4409521163907,None,0,1,,T&18R03,2022-11-03_14h40.08.948,t1_Paradigm,2021.1.4,59.99946106243685,
V,left,Distractor,0,1,1,1,485.9405854390352,487.9404667420895,left,1,1,0.8899605477345176,T&18R03,2022-11-03_14h40.08.948,t1_Paradigm,2021.1.4,59.99946106243685,
N,left,Pretarget,0,2,2,2,489.4408395146602,491.4405283362139,left,1,1,0.6857802977319807,T&18R03,2022-11-03_14h40.08.948,t1_Paradigm,2021.1.4,59.99946106243685,
N,right,Target,0,3,3,3,492.94084496831056,494.94085042196093,left,0,1,0.8817062975722365,T&18R03,2022-11-03_14h40.08.948,t1_Paradigm,2021.1.4,59.99946106243685,
S,left,Distractor,0,4,4,4,496.44083341944497,498.4427983351634,left,1,1,0.931577623647172,T&18R03,2022-11-03_14h40.08.948,t1_Paradigm,2021.1.4,59.99946106243685,
N,left,Lure,0,5,5,5,499.94074519874994,501.9417005488067,left,1,1,0.936648870643694,T&18R03,2022-11-03_14h40.08.948,t1_Paradigm,2021.1.4,59.99946106243685,
Z,left,Distractor,0,6,6,6,503.4408164168708,505.4411744325771,left,1,1,0.94130371598294,T&18R03,2022-11-03_14h40.08.948,t1_Paradigm,2021.1.4,59.99946106243685,
L,left,Pretarget,0,7,7,7,506.94085683801677,508.94102044735337,left,1,1,0.8496805768809281,T&18R03,2022-11-03_14h40.08.948,t1_Paradigm,2021.1.4,59.99946106243685,
L,right,Target,0,8,8,8,510.44086068763863,512.4408241161727,right,1,1,0.597731540852692,T&18R03,2022-11-03_14h40.08.948,t1_Paradigm,2021.1.4,59.99946106243685,
H,left,Distractor,0,9,9,9,513.9408622916671,515.9410624724696,left,1,1,0.745667721668724,T&18R03,2022-11-03_14h40.08.948,t1_Paradigm,2021.1.4,59.99946106243685,
L,left,Lure,0,10,10,10,517.440813850495,519.4418474763515,left,1,1,0.7807362547609955,T&18R03,2022-11-03_14h40.08.948,t1_Paradigm,2021.1.4,59.99946106243685,
X,left,Pretarget,0,11,11,11,520.9407737501315,522.9404968975578,left,1,1,1.1058792845578864,T&18R03,2022-11-03_14h40.08.948,t1_Paradigm,2021.1.4,59.99946106243685,
X,right,Target,0,12,12,12,524.4408237953321,526.4407291585812,right,1,1,0.5978293856023811,T&18R03,2022-11-03_14h40.08.948,t1_Paradigm,2021.1.4,59.99946106243685,
X,right,Target,0,13,13,13,527.9407897903002,529.9410483571701,right,1,1,0.7613434185041115,T&18R03,2022-11-03_14h40.08.948,t1_Paradigm,2021.1.4,59.99946106243685,
R,left,Distractor,0,14,14,14,531.440831494634,533.4412418011343,left,1,1,0.8133965228917077,T&18R03,2022-11-03_14h40.08.948,t1_Paradigm,2021.1.4,59.99946106243685,
T,left,Distractor,0,15,15,15,534.9410900615039,536.94062906818,left,1,1,0.7697725060861558,T&18R03,2022-11-03_14h40.08.948,t1_Paradigm,2021.1.4,59.99946106243685,
V,left,Pretarget,0,16,16,16,538.4407083064434,540.4408789734007,left,1,1,0.7416394038009457,T&18R03,2022-11-03_14h40.08.948,t1_Paradigm,2021.1.4,59.99946106243685,
V,right,Target,0,17,17,17,541.9410637556575,543.9407477651257,right,1,1,0.6657596508739516,T&18R03,2022-11-03_14h40.08.948,t1_Paradigm,2021.1.4,59.99946106243685,
N,left,Distractor,0,18,18,18,545.4409678357188,547.4419299226138,left,1,1,0.7165391690796241,T&18R03,2022-11-03_14h40.08.948,t1_Paradigm,2021.1.4,59.99946106243685,
B,left,Distractor,0,19,19,19,548.9412113248836,550.9409107328393,left,1,1,1.0896072157192975,T&18R03,2022-11-03_14h40.08.948,t1_Paradigm,2021.1.4,59.99946106243685,
V,left,Lure,0,20,20,20,552.4408674244769,554.4410599060357,left,1,1,0.8374137281789444,T&18R03,2022-11-03_14h40.08.948,t1_Paradigm,2021.1.4,59.99946106243685,
P,left,Distractor,0,21,21,21,555.9409389634966,557.9411718661431,left,1,1,0.7134200056316331,T&18R03,2022-11-03_14h40.08.948,t1_Paradigm,2021.1.4,59.99946106243685,
K,left,Pretarget,0,22,22,22,559.4407891486771,561.4418173209415,left,1,1,0.6687363779055886,T&18R03,2022-11-03_14h40.08.948,t1_Paradigm,2021.1.4,59.99946106243685,
K,right,Target,0,23,23,23,562.9408391938778,564.941031996219,right,1,1,1.1214696479146369,T&18R03,2022-11-03_14h40.08.948,t1_Paradigm,2021.1.4,59.99946106243685,
J,left,Pretarget,0,24,24,24,566.4409556452301,568.4432092832867,left,1,1,0.8673054701066576,T&18R03,2022-11-03_14h40.08.948,t1_Paradigm,2021.1.4,59.99946106243685,
J,right,Target,0,25,25,25,569.9408834646456,571.9409075248404,right,1,1,0.5855686321738176,T&18R03,2022-11-03_14h40.08.948,t1_Paradigm,2021.1.4,59.99946106243685,
H,left,Distractor,0,26,26,26,573.440960136475,575.4412876758724,left,1,1,0.6211504493840039,T&18R03,2022-11-03_14h40.08.948,t1_Paradigm,2021.1.4,59.99946106243685,
J,left,Lure,0,27,27,27,576.9409838758293,578.9407689381042,left,1,1,0.5779293605592102,T&18R03,2022-11-03_14h40.08.948,t1_Paradigm,2021.1.4,59.99946106243685,
V,left,Distractor,0,28,28,28,580.4408048680052,582.4430113480776,left,1,1,1.3315571564016864,T&18R03,2022-11-03_14h40.08.948,t1_Paradigm,2021.1.4,59.99946106243685,
Z,left,Pretarget,0,29,29,29,583.9412212697207,585.9422911463189,left,1,1,0.8562737113097683,T&18R03,2022-11-03_14h40.08.948,t1_Paradigm,2021.1.4,59.99946106243685,
Z,right,Target,0,30,30,30,587.4410608684411,589.4410108232405,right,1,1,1.1014310360769741,T&18R03,2022-11-03_14h40.08.948,t1_Paradigm,2021.1.4,59.99946106243685,
T,left,Distractor,0,31,31,31,590.9408892390784,592.9415154457092,left,1,1,0.7050768931512721,T&18R03,2022-11-03_14h40.08.948,t1_Paradigm,2021.1.4,59.99946106243685,
Z,left,Lure,0,32,32,32,594.440885710239,596.4407814494334,left,1,1,1.2538462624070235,T&18R03,2022-11-03_14h40.08.948,t1_Paradigm,2021.1.4,59.99946106243685,
F,left,Distractor,0,33,33,33,597.9410429035197,599.9412940919283,left,1,1,0.8252793709398247,T&18R03,2022-11-03_14h40.08.948,t1_Paradigm,2021.1.4,59.99946106243685,
Y,left,Pretarget,0,34,34,34,601.4406945119263,603.4408154544653,left,1,1,0.9098384373937733,T&18R03,2022-11-03_14h40.08.948,t1_Paradigm,2021.1.4,59.99946106243685,
Y,right,Target,0,35,35,35,604.9407012487645,606.9407952439506,right,1,1,0.9460503108566627,T&18R03,2022-11-03_14h40.08.948,t1_Paradigm,2021.1.4,59.99946106243685,
Y,right,Target,0,36,36,36,608.4409030335955,610.4410329586244,right,1,1,0.7256172401830554,T&18R03,2022-11-03_14h40.08.948,t1_Paradigm,2021.1.4,59.99946106243685,
W,left,Distractor,0,37,37,37,611.9409918959136,613.9418891806854,left,1,1,0.5526202833279967,T&18R03,2022-11-03_14h40.08.948,t1_Paradigm,2021.1.4,59.99946106243685,
Q,left,Distractor,0,38,38,38,615.440701569547,617.4417489899788,left,1,1,0.6849696296267211,T&18R03,2022-11-03_14h40.08.948,t1_Paradigm,2021.1.4,59.99946106243685,
P,left,Pretarget,0,39,39,39,618.941178282199,620.9407820909983,left,1,1,0.6259271996095777,T&18R03,2022-11-03_14h40.08.948,t1_Paradigm,2021.1.4,59.99946106243685,
P,right,Target,0,40,40,40,622.4410377706517,624.4411215001601,right,1,1,0.789524641179014,T&18R03,2022-11-03_14h40.08.948,t1_Paradigm,2021.1.4,59.99946106243685,
J,left,Distractor,0,41,41,41,625.941085570259,627.9410198057303,left,1,1,0.6977257022517733,T&18R03,2022-11-03_14h40.08.948,t1_Paradigm,2021.1.4,59.99946106243685,
P,left,Lure,0,42,42,42,629.4408770485898,631.4410409787088,left,1,1,1.2296853375737555,T&18R03,2022-11-03_14h40.08.948,t1_Paradigm,2021.1.4,59.99946106243685,
L,left,Distractor,0,43,43,43,632.9410047280253,634.9412180617219,left,1,1,0.8174235575716011,T&18R03,2022-11-03_14h40.08.948,t1_Paradigm,2021.1.4,59.99946106243685,
Z,left,Distractor,0,44,44,44,636.4408680660999,638.4411930391216,left,1,1,0.6934744265745394,T&18R03,2022-11-03_14h40.08.948,t1_Paradigm,2021.1.4,59.99946106243685,
F,left,Pretarget,0,45,45,45,639.9410544523853,641.9413916158956,left,1,1,0.6333470423123799,T&18R03,2022-11-03_14h40.08.948,t1_Paradigm,2021.1.4,59.99946106243685,
F,right,Target,0,46,46,46,643.4409550036071,645.4409261313849,right,1,1,0.7500665665138513,T&18R03,2022-11-03_14h40.08.948,t1_Paradigm,2021.1.4,59.99946106243685,
G,left,Pretarget,0,47,47,47,646.9409293393837,648.9413858414628,left,1,1,0.7372460126061924,T&18R03,2022-11-03_14h40.08.948,t1_Paradigm,2021.1.4,59.99946106243685,
G,right,Target,0,48,48,48,650.441014993703,652.4413197561516,right,1,1,0.6457855203771032,T&18R03,2022-11-03_14h40.08.948,t1_Paradigm,2021.1.4,59.99946106243685,
V,left,Distractor,0,49,49,49,653.9409578908235,655.9407811285928,left,1,1,1.1617922855075449,T&18R03,2022-11-03_14h40.08.948,t1_Paradigm,2021.1.4,59.99946106243685,
G,left,Lure,0,50,50,50,657.4411237457534,659.4414317162009,left,1,1,1.133326510898769,T&18R03,2022-11-03_14h40.08.948,t1_Paradigm,2021.1.4,59.99946106243685,
Q,left,Pretarget,0,51,51,51,660.9414082976291,662.9410631140927,None,0,1,,T&18R03,2022-11-03_14h40.08.948,t1_Paradigm,2021.1.4,59.99946106243685,
Q,right,Target,0,52,52,52,664.4411346530542,666.4409960663179,right,1,1,0.6297623943537474,T&18R03,2022-11-03_14h40.08.948,t1_Paradigm,2021.1.4,59.99946106243685,
Y,left,Distractor,0,53,53,53,667.9407657301053,669.9409309434122,left,1,1,0.6336883762269281,T&18R03,2022-11-03_14h40.08.948,t1_Paradigm,2021.1.4,59.99946106243685,
V,left,Distractor,0,54,54,54,671.4409325474408,673.4410457907361,left,1,1,0.6216419189004228,T&18R03,2022-11-03_14h40.08.948,t1_Paradigm,2021.1.4,59.99946106243685,
B,left,Distractor,0,55,55,55,674.9414670045371,676.9413325882051,left,1,1,1.409431659791153,T&18R03,2022-11-03_14h40.08.948,t1_Paradigm,2021.1.4,59.99946106243685,
J,left,Pretarget,0,56,56,56,678.4410951943137,680.4410743421759,left,1,1,0.9175370575394481,T&18R03,2022-11-03_14h40.08.948,t1_Paradigm,2021.1.4,59.99946106243685,
J,right,Target,0,57,57,57,681.9409505123622,683.94106792612,right,1,1,1.466109774832148,T&18R03,2022-11-03_14h40.08.948,t1_Paradigm,2021.1.4,59.99946106243685,
H,left,Distractor,0,58,58,58,685.441451285209,687.4415372602525,left,1,1,0.6211222187266685,T&18R03,2022-11-03_14h40.08.948,t1_Paradigm,2021.1.4,59.99946106243685,
J,left,Lure,0,59,59,59,688.941100647964,690.941050281981,left,1,1,0.8978728223009966,T&18R03,2022-11-03_14h40.08.948,t1_Paradigm,2021.1.4,59.99946106243685,
D,left,Pretarget,0,60,60,60,692.4410374498693,694.441374934162,left,1,1,0.9172698289621621,T&18R03,2022-11-03_14h40.08.948,t1_Paradigm,2021.1.4,59.99946106243685,
D,right,Target,0,61,61,61,695.9410974399652,697.9411904726876,right,1,1,0.6174868839443661,T&18R03,2022-11-03_14h40.08.948,t1_Paradigm,2021.1.4,59.99946106243685,
R,left,Distractor,0,62,62,62,699.4408549132058,701.441052848415,left,1,1,0.6856420318363234,T&18R03,2022-11-03_14h40.08.948,t1_Paradigm,2021.1.4,59.99946106243685,
F,left,Distractor,0,63,63,63,702.941123424971,704.941378142219,left,1,1,0.6574438066454604,T&18R03,2022-11-03_14h40.08.948,t1_Paradigm,2021.1.4,59.99946106243685,
F,left,Distractor,0,0,0,0,813.104767062061,815.1080453435425,None,0,2,,T&18R03,2022-11-03_14h40.08.948,t1_Paradigm,2021.1.4,59.99946106243685,
N,left,Pretarget,0,1,1,1,816.6079744461458,818.6077434683102,left,1,2,0.9752375703537837,T&18R03,2022-11-03_14h40.08.948,t1_Paradigm,2021.1.4,59.99946106243685,
V,left,Distractor,0,2,2,2,820.1079821454477,822.107950385951,left,1,2,1.234990449680481,T&18R03,2022-11-03_14h40.08.948,t1_Paradigm,2021.1.4,59.99946106243685,
N,right,Target,0,3,3,3,823.6081743061659,825.5930333872093,right,1,2,0.8699408632237464,T&18R03,2022-11-03_14h40.08.948,t1_Paradigm,2021.1.4,59.99946106243685,
N,left,Lure,0,4,4,4,827.0916985277436,829.0913145270315,left,1,2,1.1318373454269022,T&18R03,2022-11-03_14h40.08.948,t1_Paradigm,2021.1.4,59.99946106243685,
X,left,Distractor,0,5,5,5,830.5913126022206,832.5911332736141,None,0,2,,T&18R03,2022-11-03_14h40.08.948,t1_Paradigm,2021.1.4,59.99946106243685,
G,left,Pretarget,0,6,6,6,834.0912891836488,836.0933384704404,left,1,2,1.1216974176932126,T&18R03,2022-11-03_14h40.08.948,t1_Paradigm,2021.1.4,59.99946106243685,
H,left,Pretarget,0,7,7,7,837.6077716989676,839.6088345178869,left,1,2,1.142286847520154,T&18R03,2022-11-03_14h40.08.948,t1_Paradigm,2021.1.4,59.99946106243685,
G,right,Target,0,8,8,8,841.1080831982545,843.1082509779953,None,0,2,,T&18R03,2022-11-03_14h40.08.948,t1_Paradigm,2021.1.4,59.99946106243685,
H,right,Target,0,9,9,9,844.6079426867072,846.6085098656476,None,0,2,,T&18R03,2022-11-03_14h40.08.948,t1_Paradigm,2021.1.4,59.99946106243685,
T,left,Pretarget,0,10,10,10,848.1080004311516,850.1094918423332,left,1,2,0.993538073846139,T&18R03,2022-11-03_14h40.08.948,t1_Paradigm,2021.1.4,59.99946106243685,
K,left,Distractor,0,11,11,11,851.6082567524281,853.6095457371557,None,0,2,,T&18R03,2022-11-03_14h40.08.948,t1_Paradigm,2021.1.4,59.99946106243685,
T,right,Target,0,12,12,12,855.1081172032864,857.1084854846704,None,0,2,,T&18R03,2022-11-03_14h40.08.948,t1_Paradigm,2021.1.4,59.99946106243685,
T,left,Lure,0,13,13,13,858.6080479099764,860.6080315490253,left,1,2,1.3110857819556259,T&18R03,2022-11-03_14h40.08.948,t1_Paradigm,2021.1.4,59.99946106243685,
J,left,Distractor,0,14,14,14,862.0916176854516,864.0922608946566,None,0,2,,T&18R03,2022-11-03_14h40.08.948,t1_Paradigm,2021.1.4,59.99946106243685,
Q,left,Pretarget,0,15,15,15,865.6080507971928,867.6094700277317,left,1,2,0.8857352570048533,T&18R03,2022-11-03_14h40.08.948,t1_Paradigm,2021.1.4,59.99946106243685,
M,left,Distractor,0,16,16,16,869.1083013439784,871.1209265291691,left,1,2,0.9580942017491907,T&18R03,2022-11-03_14h40.08.948,t1_Paradigm,2021.1.4,59.99946106243685,
Q,right,Target,0,17,17,17,872.6082522611832,874.6084501963924,right,1,2,0.798716597200837,T&18R03,2022-11-03_14h40.08.948,t1_Paradigm,2021.1.4,59.99946106243685,
R,left,Distractor,0,18,18,18,876.1080062056426,878.1084684821544,left,1,2,0.8504639767343178,T&18R03,2022-11-03_14h40.08.948,t1_Paradigm,2021.1.4,59.99946106243685,
W,left,Distractor,0,19,19,19,879.6080969927716,881.6082163312822,None,0,2,,T&18R03,2022-11-03_14h40.08.948,t1_Paradigm,2021.1.4,59.99946106243685,
C,left,Pretarget,0,20,20,20,883.1081252233707,885.1089362122584,left,1,2,0.8101099005434662,T&18R03,2022-11-03_14h40.08.948,t1_Paradigm,2021.1.4,59.99946106243685,
T,left,Distractor,0,21,21,21,886.6080200001597,888.6084508379572,left,1,2,0.8788758564624004,T&18R03,2022-11-03_14h40.08.948,t1_Paradigm,2021.1.4,59.99946106243685,
C,right,Target,0,22,22,22,890.108114957693,892.1082923614886,right,1,2,0.6268270508735441,T&18R03,2022-11-03_14h40.08.948,t1_Paradigm,2021.1.4,59.99946106243685,
F,left,Pretarget,0,23,23,23,893.6078124408959,895.6080661956803,left,1,2,0.6151870503672399,T&18R03,2022-11-03_14h40.08.948,t1_Paradigm,2021.1.4,59.99946106243685,
C,right,Target,0,24,24,24,897.1081034088274,899.1081486419425,left,0,2,1.1631075760233216,T&18R03,2022-11-03_14h40.08.948,t1_Paradigm,2021.1.4,59.99946106243685,
F,right,Target,0,25,25,25,900.6079526316025,902.5923542481614,None,0,2,,T&18R03,2022-11-03_14h40.08.948,t1_Paradigm,2021.1.4,59.99946106243685,
H,left,Distractor,0,26,26,26,904.091275709914,906.091628913593,left,1,2,1.075529757363256,T&18R03,2022-11-03_14h40.08.948,t1_Paradigm,2021.1.4,59.99946106243685,
H,left,Lure,0,27,27,27,907.5914762115572,909.5914749283111,None,0,2,,T&18R03,2022-11-03_14h40.08.948,t1_Paradigm,2021.1.4,59.99946106243685,
P,left,Distractor,0,28,28,28,911.091336341633,913.0912067373865,None,0,2,,T&18R03,2022-11-03_14h40.08.948,t1_Paradigm,2021.1.4,59.99946106243685,
G,left,Pretarget,0,29,29,29,914.5914508681162,916.5913985773223,left,1,2,0.8958209690754302,T&18R03,2022-11-03_14h40.08.948,t1_Paradigm,2021.1.4,59.99946106243685,
K,left,Distractor,0,30,30,30,918.091588492447,920.0916411040816,left,1,2,0.803273276949767,T&18R03,2022-11-03_14h40.08.948,t1_Paradigm,2021.1.4,59.99946106243685,
G,right,Target,0,31,31,31,921.591538126464,923.5919192399015,left,0,2,1.3352637093048543,T&18R03,2022-11-03_14h40.08.948,t1_Paradigm,2021.1.4,59.99946106243685,
M,left,Pretarget,0,32,32,32,925.0913857452106,927.0918428888544,None,0,2,,T&18R03,2022-11-03_14h40.08.948,t1_Paradigm,2021.1.4,59.99946106243685,
B,left,Distractor,0,33,33,33,928.591479419556,930.5914492641459,left,1,2,1.0717147731338628,T&18R03,2022-11-03_14h40.08.948,t1_Paradigm,2021.1.4,59.99946106243685,
M,right,Target,0,34,34,34,932.0918842724059,934.0918669490493,left,0,2,1.0594075033441186,T&18R03,2022-11-03_14h40.08.948,t1_Paradigm,2021.1.4,59.99946106243685,
M,left,Lure,0,35,35,35,935.5919089742238,937.5916452744859,left,1,2,1.1756426156498492,T&18R03,2022-11-03_14h40.08.948,t1_Paradigm,2021.1.4,59.99946106243685,
T,left,Distractor,0,36,36,36,939.0917841820046,941.0916478409199,left,1,2,1.275661158026196,T&18R03,2022-11-03_14h40.08.948,t1_Paradigm,2021.1.4,59.99946106243685,
F,left,Distractor,0,37,37,37,942.5919054453843,944.5916520113242,left,1,2,0.9277276719803922,T&18R03,2022-11-03_14h40.08.948,t1_Paradigm,2021.1.4,59.99946106243685,
X,left,Distractor,0,38,38,38,946.0918614954571,948.0914797403966,left,1,2,1.1076947063556872,T&18R03,2022-11-03_14h40.08.948,t1_Paradigm,2021.1.4,59.99946106243685,
C,left,Distractor,0,39,39,39,949.5918374352623,951.5912067373865,left,1,2,0.9518863512203097,T&18R03,2022-11-03_14h40.08.948,t1_Paradigm,2021.1.4,59.99946106243685,
R,left,Distractor,0,40,40,40,953.0913039405714,955.0917213046923,left,1,2,1.3075405927957036,T&18R03,2022-11-03_14h40.08.948,t1_Paradigm,2021.1.4,59.99946106243685,
B,left,Pretarget,0,41,41,41,956.5913626474212,958.5932444753125,left,1,2,1.1981921491678804,T&18R03,2022-11-03_14h40.08.948,t1_Paradigm,2021.1.4,59.99946106243685,
H,left,Distractor,0,42,42,42,960.1081749477889,962.1079696341185,left,1,2,1.3792701227939688,T&18R03,2022-11-03_14h40.08.948,t1_Paradigm,2021.1.4,59.99946106243685,
B,right,Target,0,43,43,43,963.6080681204912,965.6081589076202,right,1,2,0.8390995456720702,T&18R03,2022-11-03_14h40.08.948,t1_Paradigm,2021.1.4,59.99946106243685,
W,left,Pretarget,0,44,44,44,967.0918152998784,969.0933349416591,left,1,2,1.4179245870327577,T&18R03,2022-11-03_14h40.08.948,t1_Paradigm,2021.1.4,59.99946106243685,
L,left,Pretarget,0,45,45,45,970.608205103199,972.6087094048853,left,1,2,1.374658585875295,T&18R03,2022-11-03_14h40.08.948,t1_Paradigm,2021.1.4,59.99946106243685,
W,right,Target,0,46,46,46,974.1083032687893,976.1086571140331,None,0,2,,T&18R03,2022-11-03_14h40.08.948,t1_Paradigm,2021.1.4,59.99946106243685,
L,right,Target,0,47,47,47,977.6083857150516,979.6088726933813,right,1,2,1.206375181209296,T&18R03,2022-11-03_14h40.08.948,t1_Paradigm,2021.1.4,59.99946106243685,
W,right,Target,0,48,48,48,981.0918329440174,983.0924004437402,None,0,2,,T&18R03,2022-11-03_14h40.08.948,t1_Paradigm,2021.1.4,59.99946106243685,
X,left,Distractor,0,49,49,49,984.6078464459279,986.5918111294159,left,1,2,1.2476098604383878,T&18R03,2022-11-03_14h40.08.948,t1_Paradigm,2021.1.4,59.99946106243685,
R,left,Distractor,0,50,50,50,988.0915034797508,990.0918618162395,left,1,2,1.1713955104351044,T&18R03,2022-11-03_14h40.08.948,t1_Paradigm,2021.1.4,59.99946106243685,
V,left,Pretarget,0,51,51,51,991.591973776347,993.5916180062923,None,0,2,,T&18R03,2022-11-03_14h40.08.948,t1_Paradigm,2021.1.4,59.99946106243685,
Z,left,Distractor,0,52,52,52,995.0915560913854,997.0917822571937,left,1,2,1.3553918250836432,T&18R03,2022-11-03_14h40.08.948,t1_Paradigm,2021.1.4,59.99946106243685,
V,right,Target,0,53,53,53,998.5917899564374,1000.5918865180574,right,1,2,0.8794638875988312,T&18R03,2022-11-03_14h40.08.948,t1_Paradigm,2021.1.4,59.99946106243685,
V,left,Lure,0,54,54,54,1002.0915108582121,1004.0917928436538,left,1,2,1.2354389317333698,T&18R03,2022-11-03_14h40.08.948,t1_Paradigm,2021.1.4,59.99946106243685,
N,left,Distractor,0,55,55,55,1005.5916696555214,1007.5921479721437,left,1,2,1.2871115642483346,T&18R03,2022-11-03_14h40.08.948,t1_Paradigm,2021.1.4,59.99946106243685,
B,left,Distractor,0,56,56,56,1009.0915801515803,1011.0922352304333,left,1,2,1.4190255813882686,T&18R03,2022-11-03_14h40.08.948,t1_Paradigm,2021.1.4,59.99946106243685,
V,left,Lure,0,57,57,57,1012.5918531545904,1014.59204371128,None,0,2,,T&18R03,2022-11-03_14h40.08.948,t1_Paradigm,2021.1.4,59.99946106243685,
J,left,Distractor,0,58,58,58,1016.0918897260563,1018.0918987085461,None,0,2,,T&18R03,2022-11-03_14h40.08.948,t1_Paradigm,2021.1.4,59.99946106243685,
H,left,Distractor,0,59,59,59,1019.5916815251694,1021.5920834908029,None,0,2,,T&18R03,2022-11-03_14h40.08.948,t1_Paradigm,2021.1.4,59.99946106243685,
X,left,Pretarget,0,60,60,60,1023.0917360616149,1025.092367080273,left,1,2,0.9069422318134457,T&18R03,2022-11-03_14h40.08.948,t1_Paradigm,2021.1.4,59.99946106243685,
P,left,Distractor,0,61,61,61,1026.5918236407451,1028.591630196781,left,1,2,1.0556383939110674,T&18R03,2022-11-03_14h40.08.948,t1_Paradigm,2021.1.4,59.99946106243685,
X,right,Target,0,62,62,62,1030.0916372544598,1032.0914707579068,right,1,2,0.6279488974250853,T&18R03,2022-11-03_14h40.08.948,t1_Paradigm,2021.1.4,59.99946106243685,
Q,left,Distractor,0,63,63,63,1033.5918990293285,1035.5937503809691,left,1,2,0.9815904236747883,T&18R03,2022-11-03_14h40.08.948,t1_Paradigm,2021.1.4,59.99946106243685,
B,left,Pretarget,0,0,0,0,1064.2010559537448,1066.1934718601988,None,0,2,,T&18R03,2022-11-03_14h40.08.948,t1_Paradigm,2021.1.4,59.99946106243685,
F,left,Distractor,0,1,1,1,1067.691628849425,1069.6937249734183,left,1,2,1.057805415301118,T&18R03,2022-11-03_14h40.08.948,t1_Paradigm,2021.1.4,59.99946106243685,
B,right,Target,0,2,2,2,1071.192042363924,1073.1917494711815,right,1,2,0.8876315210363828,T&18R03,2022-11-03_14h40.08.948,t1_Paradigm,2021.1.4,59.99946106243685,
V,left,Distractor,0,3,3,3,1074.6918149148696,1076.691757491266,left,1,2,1.0836069245124236,T&18R03,2022-11-03_14h40.08.948,t1_Paradigm,2021.1.4,59.99946106243685,
G,left,Pretarget,0,4,4,4,1078.1916926891427,1080.191971787368,left,1,2,1.103542237833608,T&18R03,2022-11-03_14h40.08.948,t1_Paradigm,2021.1.4,59.99946106243685,
B,left,Lure,0,5,5,5,1081.6920491007622,1083.6919608800672,None,0,2,,T&18R03,2022-11-03_14h40.08.948,t1_Paradigm,2021.1.4,59.99946106243685,
G,right,Target,0,6,6,6,1085.1918707345612,1087.191930724599,right,1,2,1.079560962447431,T&18R03,2022-11-03_14h40.08.948,t1_Paradigm,2021.1.4,59.99946106243685,
Y,left,Pretarget,0,7,7,7,1088.691749791964,1090.6920112460502,left,1,2,1.0353344783652574,T&18R03,2022-11-03_14h40.08.948,t1_Paradigm,2021.1.4,59.99946106243685,
P,left,Distractor,0,8,8,8,1092.1917039172258,1094.1931250725756,None,0,2,,T&18R03,2022-11-03_14h40.08.948,t1_Paradigm,2021.1.4,59.99946106243685,
Y,right,Target,0,9,9,9,1095.691858864855,1097.6921976323938,right,1,2,0.9314127311226912,T&18R03,2022-11-03_14h40.08.948,t1_Paradigm,2021.1.4,59.99946106243685,
X,left,Distractor,0,10,10,10,1099.192043005547,1101.1935331334826,left,1,2,0.8698600210482255,T&18R03,2022-11-03_14h40.08.948,t1_Paradigm,2021.1.4,59.99946106243685,
Y,right,Target,0,11,11,11,1102.6920542336302,1104.692602164403,right,1,2,0.8269866821938194,T&18R03,2022-11-03_14h40.08.948,t1_Paradigm,2021.1.4,59.99946106243685,
N,left,Distractor,0,12,12,12,1106.1917950251373,1108.1924286102294,left,1,2,1.0231067675631493,T&18R03,2022-11-03_14h40.08.948,t1_Paradigm,2021.1.4,59.99946106243685,
Y,right,Target,0,13,13,13,1109.691765511292,1111.6915829746285,right,1,2,1.1079738045227714,T&18R03,2022-11-03_14h40.08.948,t1_Paradigm,2021.1.4,59.99946106243685,
Y,left,Lure,0,14,14,14,1113.1920850306633,1115.1920728401747,left,1,2,1.0315387423615903,T&18R03,2022-11-03_14h40.08.948,t1_Paradigm,2021.1.4,59.99946106243685,
K,left,Distractor,0,15,15,15,1116.6917963083251,1118.6919281582232,left,1,2,0.9076332405675203,T&18R03,2022-11-03_14h40.08.948,t1_Paradigm,2021.1.4,59.99946106243685,
T,left,Pretarget,0,16,16,16,1120.1917225237703,1122.1915720673278,left,1,2,1.103852453874424,T&18R03,2022-11-03_14h40.08.948,t1_Paradigm,2021.1.4,59.99946106243685,
J,left,Distractor,0,17,17,17,1123.6916625336744,1125.692333652638,left,1,2,0.835102024837397,T&18R03,2022-11-03_14h40.08.948,t1_Paradigm,2021.1.4,59.99946106243685,
T,right,Target,0,18,18,18,1127.1918749049655,1129.1923214621493,right,1,2,0.9993984951870516,T&18R03,2022-11-03_14h40.08.948,t1_Paradigm,2021.1.4,59.99946106243685,
S,left,Pretarget,0,19,19,19,1130.6918579024496,1132.6916314158007,left,1,2,1.1160227410146035,T&18R03,2022-11-03_14h40.08.948,t1_Paradigm,2021.1.4,59.99946106243685,
R,left,Distractor,0,20,20,20,1134.1919387446833,1136.1932007819996,left,1,2,1.2304870232474059,T&18R03,2022-11-03_14h40.08.948,t1_Paradigm,2021.1.4,59.99946106243685,
S,right,Target,0,21,21,21,1137.6918232557946,1139.6934022460482,right,1,2,1.1862104939646088,T&18R03,2022-11-03_14h40.08.948,t1_Paradigm,2021.1.4,59.99946106243685,
Q,left,Distractor,0,22,22,22,1141.1917610200471,1143.19171707012,left,1,2,1.0003041208256036,T&18R03,2022-11-03_14h40.08.948,t1_Paradigm,2021.1.4,59.99946106243685,
D,left,Distractor,0,23,23,23,1144.6920924091246,1146.6927625656826,left,1,2,1.2588058701949194,T&18R03,2022-11-03_14h40.08.948,t1_Paradigm,2021.1.4,59.99946106243685,
F,left,Distractor,0,24,24,24,1148.1917042380082,1150.193912322109,left,1,2,0.9897484329994768,T&18R03,2022-11-03_14h40.08.948,t1_Paradigm,2021.1.4,59.99946106243685,
Z,left,Distractor,0,25,25,25,1151.6918527695816,1153.6917975915712,left,1,2,1.395734993973747,T&18R03,2022-11-03_14h40.08.948,t1_Paradigm,2021.1.4,59.99946106243685,
P,left,Distractor,0,26,26,26,1155.1921251309686,1157.192117431725,left,1,2,1.1755364299751818,T&18R03,2022-11-03_14h40.08.948,t1_Paradigm,2021.1.4,59.99946106243685,
H,left,Distractor,0,27,27,27,1158.6918489199597,1160.692186725093,left,1,2,1.051232491445262,T&18R03,2022-11-03_14h40.08.948,t1_Paradigm,2021.1.4,59.99946106243685,
Z,left,Pretarget,0,28,28,28,1162.1917363182874,1164.1917273357976,left,1,2,1.0877609969465993,T&18R03,2022-11-03_14h40.08.948,t1_Paradigm,2021.1.4,59.99946106243685,
J,left,Pretarget,0,29,29,29,1165.6917369598523,1167.6927446007612,None,0,2,,T&18R03,2022-11-03_14h40.08.948,t1_Paradigm,2021.1.4,59.99946106243685,
Z,right,Target,0,30,30,30,1169.1919159677345,1171.1922553768381,right,1,2,0.9357554354937747,T&18R03,2022-11-03_14h40.08.948,t1_Paradigm,2021.1.4,59.99946106243685,
J,right,Target,0,31,31,31,1172.691734714259,1174.693370807392,left,0,2,0.8422803031862713,T&18R03,2022-11-03_14h40.08.948,t1_Paradigm,2021.1.4,59.99946106243685,
V,left,Pretarget,0,32,32,32,1176.1918755465886,1178.1925659137196,left,1,2,1.086985296336934,T&18R03,2022-11-03_14h40.08.948,t1_Paradigm,2021.1.4,59.99946106243685,
Z,left,Lure,0,33,33,33,1179.6918742634007,1181.6921074868296,left,1,2,0.96356773521984,T&18R03,2022-11-03_14h40.08.948,t1_Paradigm,2021.1.4,59.99946106243685,
V,right,Target,0,34,34,34,1183.1919024939998,1185.1928899243358,right,1,2,1.0468798421206884,T&18R03,2022-11-03_14h40.08.948,t1_Paradigm,2021.1.4,59.99946106243685,
X,left,Distractor,0,35,35,35,1186.6919034564053,1188.691757491266,left,1,2,1.003854122129269,T&18R03,2022-11-03_14h40.08.948,t1_Paradigm,2021.1.4,59.99946106243685,
S,left,Distractor,0,36,36,36,1190.1918129900587,1192.192311517254,left,1,2,1.1032904078019783,T&18R03,2022-11-03_14h40.08.948,t1_Paradigm,2021.1.4,59.99946106243685,
Q,left,Distractor,0,37,37,37,1193.6919727497734,1195.6924019836006,left,1,2,1.0911932636518031,T&18R03,2022-11-03_14h40.08.948,t1_Paradigm,2021.1.4,59.99946106243685,
P,left,Distractor,0,38,38,38,1197.1920532712247,1199.191891586699,left,1,2,1.3198513914248906,T&18R03,2022-11-03_14h40.08.948,t1_Paradigm,2021.1.4,59.99946106243685,
S,left,Lure,0,39,39,39,1200.6920523088193,1202.6932582056616,left,1,2,1.354391241853591,T&18R03,2022-11-03_14h40.08.948,t1_Paradigm,2021.1.4,59.99946106243685,
K,left,Pretarget,0,40,40,40,1204.1923503343714,1206.1924648609129,left,1,2,1.3272497403086163,T&18R03,2022-11-03_14h40.08.948,t1_Paradigm,2021.1.4,59.99946106243685,
L,left,Distractor,0,41,41,41,1207.692017662106,1209.6927968915552,left,1,2,1.3630067156627774,T&18R03,2022-11-03_14h40.08.948,t1_Paradigm,2021.1.4,59.99946106243685,
K,right,Target,0,42,42,42,1211.1919252710068,1213.1927314478671,right,1,2,0.8549369270331226,T&18R03,2022-11-03_14h40.08.948,t1_Paradigm,2021.1.4,59.99946106243685,
B,left,Distractor,0,43,43,43,1214.6919499727665,1216.692606655648,left,1,2,0.9231167766265571,T&18R03,2022-11-03_14h40.08.948,t1_Paradigm,2021.1.4,59.99946106243685,
N,left,Distractor,0,44,44,44,1218.1919227045728,1220.1923221037723,left,1,2,0.9274120022309944,T&18R03,2022-11-03_14h40.08.948,t1_Paradigm,2021.1.4,59.99946106243685,
S,left,Pretarget,0,45,45,45,1221.6917379222577,1223.691347505548,right,0,2,1.0604590941802599,T&18R03,2022-11-03_14h40.08.948,t1_Paradigm,2021.1.4,59.99946106243685,
Z,left,Distractor,0,46,46,46,1225.1921187149128,1227.1922515272163,left,1,2,1.0315570281236432,T&18R03,2022-11-03_14h40.08.948,t1_Paradigm,2021.1.4,59.99946106243685,
S,right,Target,0,47,47,47,1228.6917494711815,1230.6923907555174,left,0,2,1.1794271236285567,T&18R03,2022-11-03_14h40.08.948,t1_Paradigm,2021.1.4,59.99946106243685,
C,left,Distractor,0,48,48,48,1232.1920131708612,1234.1925659137196,None,0,2,,T&18R03,2022-11-03_14h40.08.948,t1_Paradigm,2021.1.4,59.99946106243685,
T,left,Pretarget,0,49,49,49,1235.692272379354,1237.6918559776386,left,1,2,1.3319729165523313,T&18R03,2022-11-03_14h40.08.948,t1_Paradigm,2021.1.4,59.99946106243685,
S,left,Lure,0,50,50,50,1239.1919846194796,1241.192041080736,right,0,2,0.7756502507254481,T&18R03,2022-11-03_14h40.08.948,t1_Paradigm,2021.1.4,59.99946106243685,
T,right,Target,0,51,51,51,1242.6920340230572,1244.6928126108833,right,1,2,1.0188891761936247,T&18R03,2022-11-03_14h40.08.948,t1_Paradigm,2021.1.4,59.99946106243685,
N,left,Pretarget,0,52,52,52,1246.1924122492783,1248.1922803994385,left,1,2,1.007546238892246,T&18R03,2022-11-03_14h40.08.948,t1_Paradigm,2021.1.4,59.99946106243685,
B,left,Distractor,0,53,53,53,1249.6922479983768,1251.6942770746537,left,1,2,1.1374988691532053,T&18R03,2022-11-03_14h40.08.948,t1_Paradigm,2021.1.4,59.99946106243685,
N,right,Target,0,54,54,54,1253.1920603288454,1255.1923596376437,right,1,2,1.0315358551451936,T&18R03,2022-11-03_14h40.08.948,t1_Paradigm,2021.1.4,59.99946106243685,
N,left,Lure,0,55,55,55,1256.6919605592848,1258.6921995572047,left,1,2,0.9396034623496234,T&18R03,2022-11-03_14h40.08.948,t1_Paradigm,2021.1.4,59.99946106243685,
X,left,Distractor,0,56,56,56,1260.192165872897,1262.1917943835142,left,1,2,0.911909218004439,T&18R03,2022-11-03_14h40.08.948,t1_Paradigm,2021.1.4,59.99946106243685,
W,left,Distractor,0,57,57,57,1263.691422573349,1265.692027286219,left,1,2,0.995801335957367,T&18R03,2022-11-03_14h40.08.948,t1_Paradigm,2021.1.4,59.99946106243685,
S,left,Distractor,0,58,58,58,1267.1920914467191,1269.1920667449012,left,1,2,1.303673959337175,T&18R03,2022-11-03_14h40.08.948,t1_Paradigm,2021.1.4,59.99946106243685,
L,left,Distractor,0,59,59,59,1270.6920054716174,1272.6927375430823,None,0,2,,T&18R03,2022-11-03_14h40.08.948,t1_Paradigm,2021.1.4,59.99946106243685,
K,left,Pretarget,0,60,60,60,1274.1923843394616,1276.1923930011108,None,0,2,,T&18R03,2022-11-03_14h40.08.948,t1_Paradigm,2021.1.4,59.99946106243685,
V,left,Pretarget,0,61,61,61,1277.6919910355355,1279.6924536328297,left,1,2,1.251229475834407,T&18R03,2022-11-03_14h40.08.948,t1_Paradigm,2021.1.4,59.99946106243685,
K,right,Target,0,62,62,62,1281.192095937964,1283.1924173821462,right,1,2,1.0634226682595909,T&18R03,2022-11-03_14h40.08.948,t1_Paradigm,2021.1.4,59.99946106243685,
V,right,Target,0,63,63,63,1284.6920356270857,1286.693427589431,left,0,2,0.7944377325475216,T&18R03,2022-11-03_14h40.08.948,t1_Paradigm,2021.1.4,59.99946106243685,
R,left,Distractor,0,0,0,0,1380.1225921361474,1382.1270727856318,None,0,3,,T&18R03,2022-11-03_14h40.08.948,t1_Paradigm,2021.1.4,59.99946106243685,
P,left,Lure,0,1,1,1,1383.6255249132519,1385.6254662063438,left,1,3,0.534390035609249,T&18R03,2022-11-03_14h40.08.948,t1_Paradigm,2021.1.4,59.99946106243685,
V,left,Distractor,0,2,2,2,1387.1254822464543,1389.125791500148,left,1,3,0.8902508740429766,T&18R03,2022-11-03_14h40.08.948,t1_Paradigm,2021.1.4,59.99946106243685,
P,left,Pretarget,0,3,3,3,1390.625528442033,1392.6276720448514,left,1,3,1.2761991439620033,T&18R03,2022-11-03_14h40.08.948,t1_Paradigm,2021.1.4,59.99946106243685,
Z,left,Distractor,0,4,4,4,1394.1255037402734,1396.1258014450432,left,1,3,1.154211720742751,T&18R03,2022-11-03_14h40.08.948,t1_Paradigm,2021.1.4,59.99946106243685,
L,left,Pretarget,0,5,5,5,1397.6091857966967,1399.6102993023815,left,1,3,1.1897444550995715,T&18R03,2022-11-03_14h40.08.948,t1_Paradigm,2021.1.4,59.99946106243685,
P,right,Target,0,6,6,6,1401.1254527326673,1403.1105318842456,left,0,3,1.2735098560224287,T&18R03,2022-11-03_14h40.08.948,t1_Paradigm,2021.1.4,59.99946106243685,
S,left,Distractor,0,7,7,7,1404.6256195500027,1406.6264802633086,left,1,3,1.1493903789087199,T&18R03,2022-11-03_14h40.08.948,t1_Paradigm,2021.1.4,59.99946106243685,
L,right,Target,0,8,8,8,1408.1255390285514,1410.1269248956232,left,0,3,1.0092083170311525,T&18R03,2022-11-03_14h40.08.948,t1_Paradigm,2021.1.4,59.99946106243685,
D,left,Distractor,0,9,9,9,1411.6259477310232,1413.6263464885997,left,1,3,0.8696126822615042,T&18R03,2022-11-03_14h40.08.948,t1_Paradigm,2021.1.4,59.99946106243685,
G,left,Distractor,0,10,10,10,1415.125553785474,1417.1260202323901,left,1,3,0.8097676042234525,T&18R03,2022-11-03_14h40.08.948,t1_Paradigm,2021.1.4,59.99946106243685,
M,left,Pretarget,0,11,11,11,1418.6252993890084,1420.6254399005556,left,1,3,0.9107873713946901,T&18R03,2022-11-03_14h40.08.948,t1_Paradigm,2021.1.4,59.99946106243685,
Y,left,Distractor,0,12,12,12,1422.1258723423816,1424.1258851744933,left,1,3,1.138102940400131,T&18R03,2022-11-03_14h40.08.948,t1_Paradigm,2021.1.4,59.99946106243685,
V,left,Distractor,0,13,13,13,1425.6254588278825,1427.6259150091792,left,1,3,0.6941702473559417,T&18R03,2022-11-03_14h40.08.948,t1_Paradigm,2021.1.4,59.99946106243685,
M,right,Target,0,14,14,14,1429.1255861865357,1431.1259034602554,right,1,3,1.3540848753764294,T&18R03,2022-11-03_14h40.08.948,t1_Paradigm,2021.1.4,59.99946106243685,
S,left,Pretarget,0,15,15,15,1432.625973716029,1434.6254495246103,left,1,3,1.150598842126783,T&18R03,2022-11-03_14h40.08.948,t1_Paradigm,2021.1.4,59.99946106243685,
Q,left,Distractor,0,16,16,16,1436.1092563732527,1438.1108376090997,left,1,3,1.1853135299752466,T&18R03,2022-11-03_14h40.08.948,t1_Paradigm,2021.1.4,59.99946106243685,
R,left,Pretarget,0,17,17,17,1439.625934578129,1441.609334969893,left,1,3,1.0148865224909969,T&18R03,2022-11-03_14h40.08.948,t1_Paradigm,2021.1.4,59.99946106243685,
S,right,Target,0,18,18,18,1443.1089638012927,1445.109112974489,left,0,3,1.147012269415427,T&18R03,2022-11-03_14h40.08.948,t1_Paradigm,2021.1.4,59.99946106243685,
F,left,Distractor,0,19,19,19,1446.6090552300448,1448.609353255597,left,1,3,0.9907454874482937,T&18R03,2022-11-03_14h40.08.948,t1_Paradigm,2021.1.4,59.99946106243685,
R,right,Target,0,20,20,20,1450.1089849742712,1452.109278187796,left,0,3,0.9947029079776257,T&18R03,2022-11-03_14h40.08.948,t1_Paradigm,2021.1.4,59.99946106243685,
P,left,Distractor,0,21,21,21,1453.6088595404872,1455.6093070600764,left,1,3,1.1588611123734154,T&18R03,2022-11-03_14h40.08.948,t1_Paradigm,2021.1.4,59.99946106243685,
L,left,Distractor,0,22,22,22,1457.1092948695295,1459.1108465915895,left,1,3,1.1614300993969664,T&18R03,2022-11-03_14h40.08.948,t1_Paradigm,2021.1.4,59.99946106243685,
R,right,Target,0,23,23,23,1460.6256461765734,1462.625410065928,left,0,3,1.2628357920912094,T&18R03,2022-11-03_14h40.08.948,t1_Paradigm,2021.1.4,59.99946106243685,
H,left,Pretarget,0,24,24,24,1464.1257161115645,1466.125626286841,left,1,3,1.1225921360892244,T&18R03,2022-11-03_14h40.08.948,t1_Paradigm,2021.1.4,59.99946106243685,
G,left,Pretarget,0,25,25,25,1467.609321175376,1469.6105793630704,left,1,3,0.9335149503313005,T&18R03,2022-11-03_14h40.08.948,t1_Paradigm,2021.1.4,59.99946106243685,
T,left,Distractor,0,26,26,26,1471.10925059882,1473.1091736061499,left,1,3,0.7629981181235053,T&18R03,2022-11-03_14h40.08.948,t1_Paradigm,2021.1.4,59.99946106243685,
H,right,Target,0,27,27,27,1474.6090558716096,1476.6094392306986,left,0,3,1.2791819662670605,T&18R03,2022-11-03_14h40.08.948,t1_Paradigm,2021.1.4,59.99946106243685,
G,right,Target,0,28,28,28,1478.109097255161,1480.1085063368082,None,0,3,,T&18R03,2022-11-03_14h40.08.948,t1_Paradigm,2021.1.4,59.99946106243685,
D,left,Distractor,0,29,29,29,1481.6091049544048,1483.609554398805,left,1,3,0.7265972920577042,T&18R03,2022-11-03_14h40.08.948,t1_Paradigm,2021.1.4,59.99946106243685,
N,left,Pretarget,0,30,30,30,1485.1090042224387,1487.1092730549863,right,0,3,0.747029528603889,T&18R03,2022-11-03_14h40.08.948,t1_Paradigm,2021.1.4,59.99946106243685,
V,left,Distractor,0,31,31,31,1488.608880392625,1490.6094706693548,left,1,3,0.8787135303718969,T&18R03,2022-11-03_14h40.08.948,t1_Paradigm,2021.1.4,59.99946106243685,
R,left,Distractor,0,32,32,32,1492.1090545884217,1494.109296473558,right,0,3,0.9628946913871914,T&18R03,2022-11-03_14h40.08.948,t1_Paradigm,2021.1.4,59.99946106243685,
N,right,Target,0,33,33,33,1495.608973104565,1497.6092047240236,left,0,3,0.4069056603475474,T&18R03,2022-11-03_14h40.08.948,t1_Paradigm,2021.1.4,59.99946106243685,
Z,left,Distractor,0,34,34,34,1499.1090295658214,1501.109698759974,left,1,3,0.2824172601685859,T&18R03,2022-11-03_14h40.08.948,t1_Paradigm,2021.1.4,59.99946106243685,
N,left,Lure,0,35,35,35,1502.6091302978457,1504.6095479828073,left,1,3,0.44669448235072196,T&18R03,2022-11-03_14h40.08.948,t1_Paradigm,2021.1.4,59.99946106243685,
Y,left,Pretarget,0,36,36,36,1506.1090731949662,1508.1094344186713,right,0,3,0.32278705574572086,T&18R03,2022-11-03_14h40.08.948,t1_Paradigm,2021.1.4,59.99946106243685,
Y,left,Lure,0,37,37,37,1509.6090517012053,1511.6090529843932,left,1,3,0.2955313484999351,T&18R03,2022-11-03_14h40.08.948,t1_Paradigm,2021.1.4,59.99946106243685,
B,left,Distractor,0,38,38,38,1513.109013525711,1515.10908474389,left,1,3,0.23501162271713838,T&18R03,2022-11-03_14h40.08.948,t1_Paradigm,2021.1.4,59.99946106243685,
Y,right,Target,0,39,39,39,1516.6091517916066,1518.6095001832,left,0,3,0.3184273488004692,T&18R03,2022-11-03_14h40.08.948,t1_Paradigm,2021.1.4,59.99946106243685,
J,left,Distractor,0,40,40,40,1520.109413887316,1522.1089984479477,left,1,3,0.6111468627932481,T&18R03,2022-11-03_14h40.08.948,t1_Paradigm,2021.1.4,59.99946106243685,
X,left,Distractor,0,41,41,41,1523.6093060976127,1525.6090276410105,left,1,3,0.7912191203213297,T&18R03,2022-11-03_14h40.08.948,t1_Paradigm,2021.1.4,59.99946106243685,
W,left,Pretarget,0,42,42,42,1527.1091655861237,1529.1101908711134,left,1,3,0.5380670746671967,T&18R03,2022-11-03_14h40.08.948,t1_Paradigm,2021.1.4,59.99946106243685,
S,left,Pretarget,0,43,43,43,1530.625805294665,1532.6255974146188,left,1,3,0.8947004057117738,T&18R03,2022-11-03_14h40.08.948,t1_Paradigm,2021.1.4,59.99946106243685,
R,left,Distractor,0,44,44,44,1534.1257780264714,1536.1106701501994,left,1,3,0.9296723771258257,T&18R03,2022-11-03_14h40.08.948,t1_Paradigm,2021.1.4,59.99946106243685,
W,right,Target,0,45,45,45,1537.6093776366324,1539.6096750206198,right,1,3,0.8225557571277022,T&18R03,2022-11-03_14h40.08.948,t1_Paradigm,2021.1.4,59.99946106243685,
S,right,Target,0,46,46,46,1541.109411320882,1543.1099281338393,right,1,3,0.8581696545588784,T&18R03,2022-11-03_14h40.08.948,t1_Paradigm,2021.1.4,59.99946106243685,
D,left,Distractor,0,47,47,47,1544.609191250347,1546.609004543221,left,1,3,0.6552238528383896,T&18R03,2022-11-03_14h40.08.948,t1_Paradigm,2021.1.4,59.99946106243685,
T,left,Distractor,0,48,48,48,1548.109135109873,1550.109331761836,left,1,3,0.7869415388558991,T&18R03,2022-11-03_14h40.08.948,t1_Paradigm,2021.1.4,59.99946106243685,
S,right,Target,0,49,49,49,1551.6092255762196,1553.6095444539678,right,1,3,0.9346079247770831,T&18R03,2022-11-03_14h40.08.948,t1_Paradigm,2021.1.4,59.99946106243685,
K,left,Distractor,0,50,50,50,1555.1091408843058,1557.1095149401226,right,0,3,1.130896431452129,T&18R03,2022-11-03_14h40.08.948,t1_Paradigm,2021.1.4,59.99946106243685,
S,left,Lure,0,51,51,51,1558.609193175158,1560.6101289562066,left,1,3,0.8782602362916805,T&18R03,2022-11-03_14h40.08.948,t1_Paradigm,2021.1.4,59.99946106243685,
T,left,Pretarget,0,52,52,52,1562.109135751496,1564.1089230593643,left,1,3,0.7553376735886559,T&18R03,2022-11-03_14h40.08.948,t1_Paradigm,2021.1.4,59.99946106243685,
V,left,Distractor,0,53,53,53,1565.609225255379,1567.609124523413,left,1,3,0.7113492250209674,T&18R03,2022-11-03_14h40.08.948,t1_Paradigm,2021.1.4,59.99946106243685,
B,left,Distractor,0,54,54,54,1569.1092390498961,1571.1107840350596,left,1,3,0.5694723631604575,T&18R03,2022-11-03_14h40.08.948,t1_Paradigm,2021.1.4,59.99946106243685,
T,right,Target,0,55,55,55,1572.6258434701595,1574.6094530252158,right,1,3,0.5108566005947068,T&18R03,2022-11-03_14h40.08.948,t1_Paradigm,2021.1.4,59.99946106243685,
Y,left,Pretarget,0,56,56,56,1576.1093959223363,1578.1093731453875,right,0,3,0.9789473312557675,T&18R03,2022-11-03_14h40.08.948,t1_Paradigm,2021.1.4,59.99946106243685,
T,left,Lure,0,57,57,57,1579.609240974707,1581.609408754448,left,1,3,0.6630472651449963,T&18R03,2022-11-03_14h40.08.948,t1_Paradigm,2021.1.4,59.99946106243685,
P,left,Pretarget,0,58,58,58,1583.1091524332296,1585.1094212657772,left,1,3,0.666813166521024,T&18R03,2022-11-03_14h40.08.948,t1_Paradigm,2021.1.4,59.99946106243685,
Y,right,Target,0,59,59,59,1586.609520393773,1588.6113152841572,left,0,3,0.8774425105657429,T&18R03,2022-11-03_14h40.08.948,t1_Paradigm,2021.1.4,59.99946106243685,
R,left,Distractor,0,60,60,60,1590.1259474101826,1592.1258017658256,right,0,3,0.7224759414093569,T&18R03,2022-11-03_14h40.08.948,t1_Paradigm,2021.1.4,59.99946106243685,
P,right,Target,0,61,61,61,1593.6093314410537,1595.609152112389,right,1,3,0.9192389151430689,T&18R03,2022-11-03_14h40.08.948,t1_Paradigm,2021.1.4,59.99946106243685,
L,left,Distractor,0,62,62,62,1597.1092175561353,1599.1092181977583,left,1,3,0.8429081137874164,T&18R03,2022-11-03_14h40.08.948,t1_Paradigm,2021.1.4,59.99946106243685,
V,left,Distractor,0,63,63,63,1600.6092368043028,1602.6257716104155,left,1,3,0.8784414898254909,T&18R03,2022-11-03_14h40.08.948,t1_Paradigm,2021.1.4,59.99946106243685,
H,left,Lure,0,0,0,0,1609.4220257271081,1611.4257316383882,None,0,3,,T&18R03,2022-11-03_14h40.08.948,t1_Paradigm,2021.1.4,59.99946106243685,
B,left,Distractor,0,1,1,1,1612.925850976957,1614.926105694205,left,1,3,0.6103323450661264,T&18R03,2022-11-03_14h40.08.948,t1_Paradigm,2021.1.4,59.99946106243685,
T,left,Distractor,0,2,2,2,1616.4259202703252,1618.426142907294,left,1,3,0.8702937461202964,T&18R03,2022-11-03_14h40.08.948,t1_Paradigm,2021.1.4,59.99946106243685,
R,left,Distractor,0,3,3,3,1619.9260062454268,1621.9262526217499,left,1,3,1.0660936705535278,T&18R03,2022-11-03_14h40.08.948,t1_Paradigm,2021.1.4,59.99946106243685,
H,left,Pretarget,0,4,4,4,1623.4257682099123,1625.4252728907159,None,0,3,,T&18R03,2022-11-03_14h40.08.948,t1_Paradigm,2021.1.4,59.99946106243685,
K,left,Distractor,0,5,5,5,1626.9259969421546,1628.926118205476,left,1,3,1.186185471364297,T&18R03,2022-11-03_14h40.08.948,t1_Paradigm,2021.1.4,59.99946106243685,
G,left,Distractor,0,6,6,6,1630.425784891646,1632.4258557889843,left,1,3,0.7266322594950907,T&18R03,2022-11-03_14h40.08.948,t1_Paradigm,2021.1.4,59.99946106243685,
H,right,Target,0,7,7,7,1633.9260463457322,1635.942450585193,left,0,3,0.8580362006323412,T&18R03,2022-11-03_14h40.08.948,t1_Paradigm,2021.1.4,59.99946106243685,
Y,left,Pretarget,0,8,8,8,1637.426012982265,1639.425837824063,left,1,3,0.8625287198228762,T&18R03,2022-11-03_14h40.08.948,t1_Paradigm,2021.1.4,59.99946106243685,
S,left,Distractor,0,9,9,9,1640.9261884612497,1642.9268214047188,left,1,3,1.4256806307821535,T&18R03,2022-11-03_14h40.08.948,t1_Paradigm,2021.1.4,59.99946106243685,
P,left,Distractor,0,10,10,10,1644.4260787467938,1646.4261852532509,left,1,3,0.9501049345126376,T&18R03,2022-11-03_14h40.08.948,t1_Paradigm,2021.1.4,59.99946106243685,
Y,right,Target,0,11,11,11,1647.925903267751,1649.9264098150306,right,1,3,0.601935658545699,T&18R03,2022-11-03_14h40.08.948,t1_Paradigm,2021.1.4,59.99946106243685,
H,left,Lure,0,12,12,12,1651.425834616006,1653.4270940869465,left,1,3,0.9093120003817603,T&18R03,2022-11-03_14h40.08.948,t1_Paradigm,2021.1.4,59.99946106243685,
Q,left,Distractor,0,13,13,13,1654.9252334320336,1656.9265997301554,left,1,3,0.8337514459853992,T&18R03,2022-11-03_14h40.08.948,t1_Paradigm,2021.1.4,59.99946106243685,
V,left,Pretarget,0,14,14,14,1658.425963257847,1660.4259735235246,right,0,3,0.37453058565733954,T&18R03,2022-11-03_14h40.08.948,t1_Paradigm,2021.1.4,59.99946106243685,
G,left,Distractor,0,15,15,15,1661.926050195354,1663.9263479001238,left,1,3,0.37805716833099723,T&18R03,2022-11-03_14h40.08.948,t1_Paradigm,2021.1.4,59.99946106243685,
Z,left,Pretarget,0,16,16,16,1665.4260611026548,1667.4267498657573,left,1,3,0.3335785334347747,T&18R03,2022-11-03_14h40.08.948,t1_Paradigm,2021.1.4,59.99946106243685,
V,right,Target,0,17,17,17,1668.9258695835015,1670.9264906572644,right,1,3,0.29002477234462276,T&18R03,2022-11-03_14h40.08.948,t1_Paradigm,2021.1.4,59.99946106243685,
N,left,Distractor,0,18,18,18,1672.4261987269274,1674.4268146678805,right,0,3,0.9335242536617443,T&18R03,2022-11-03_14h40.08.948,t1_Paradigm,2021.1.4,59.99946106243685,
Z,right,Target,0,19,19,19,1675.925721693493,1677.9264085318428,left,0,3,1.0823291678680107,T&18R03,2022-11-03_14h40.08.948,t1_Paradigm,2021.1.4,59.99946106243685,
R,left,Distractor,0,20,20,20,1679.4260280599701,1681.425982185232,left,1,3,0.734384132840205,T&18R03,2022-11-03_14h40.08.948,t1_Paradigm,2021.1.4,59.99946106243685,
P,left,Distractor,0,21,21,21,1682.9260694435216,1684.9264547274215,left,1,3,1.1860208996222354,T&18R03,2022-11-03_14h40.08.948,t1_Paradigm,2021.1.4,59.99946106243685,
Z,right,Target,0,22,22,22,1686.426299779734,1688.425964541093,right,1,3,0.6946068597026169,T&18R03,2022-11-03_14h40.08.948,t1_Paradigm,2021.1.4,59.99946106243685,
D,left,Pretarget,0,23,23,23,1689.9260216439143,1691.9264069278142,left,1,3,0.6339889682130888,T&18R03,2022-11-03_14h40.08.948,t1_Paradigm,2021.1.4,59.99946106243685,
K,left,Distractor,0,24,24,24,1693.4263847924303,1695.426455048204,left,1,3,0.9900936165940948,T&18R03,2022-11-03_14h40.08.948,t1_Paradigm,2021.1.4,59.99946106243685,
W,left,Distractor,0,25,25,25,1696.926394416485,1698.9259331024368,left,1,3,0.7544990956666879,T&18R03,2022-11-03_14h40.08.948,t1_Paradigm,2021.1.4,59.99946106243685,
D,right,Target,0,26,26,26,1700.4259738443652,1702.425961333036,left,0,3,1.1106611676514149,T&18R03,2022-11-03_14h40.08.948,t1_Paradigm,2021.1.4,59.99946106243685,
G,left,Pretarget,0,27,27,27,1703.9259408016806,1705.9261621554615,right,0,3,0.7623805732000619,T&18R03,2022-11-03_14h40.08.948,t1_Paradigm,2021.1.4,59.99946106243685,
V,left,Distractor,0,28,28,28,1707.4260636690888,1709.42604762892,left,1,3,0.8467760303756222,T&18R03,2022-11-03_14h40.08.948,t1_Paradigm,2021.1.4,59.99946106243685,
D,right,Target,0,29,29,29,1710.926412702247,1712.9259132126463,right,1,3,0.8826680636848323,T&18R03,2022-11-03_14h40.08.948,t1_Paradigm,2021.1.4,59.99946106243685,
G,right,Target,0,30,30,30,1714.4264463865547,1716.4263854340534,right,1,3,1.1260709191556089,T&18R03,2022-11-03_14h40.08.948,t1_Paradigm,2021.1.4,59.99946106243685,
B,left,Pretarget,0,31,31,31,1717.9258596386062,1719.927398849337,left,1,3,1.0169293932849541,T&18R03,2022-11-03_14h40.08.948,t1_Paradigm,2021.1.4,59.99946106243685,
N,left,Distractor,0,32,32,32,1721.4259321400314,1723.4263690731023,right,0,3,0.31809980934485793,T&18R03,2022-11-03_14h40.08.948,t1_Paradigm,2021.1.4,59.99946106243685,
F,left,Distractor,0,33,33,33,1724.926337634446,1726.9266520209494,left,1,3,0.4339127455605194,T&18R03,2022-11-03_14h40.08.948,t1_Paradigm,2021.1.4,59.99946106243685,
B,right,Target,0,34,34,34,1728.4260466665146,1730.4260380048654,left,0,3,0.7585697594331577,T&18R03,2022-11-03_14h40.08.948,t1_Paradigm,2021.1.4,59.99946106243685,
Q,left,Pretarget,0,35,35,35,1731.9260720099555,1733.9262648122967,right,0,3,1.258409037371166,T&18R03,2022-11-03_14h40.08.948,t1_Paradigm,2021.1.4,59.99946106243685,
S,left,Pretarget,0,36,36,36,1735.4260094534256,1737.4260341552435,left,1,3,0.9746614089235663,T&18R03,2022-11-03_14h40.08.948,t1_Paradigm,2021.1.4,59.99946106243685,
W,left,Distractor,0,37,37,37,1738.9264358000364,1740.9262943260837,left,1,3,0.9781928036245517,T&18R03,2022-11-03_14h40.08.948,t1_Paradigm,2021.1.4,59.99946106243685,
Q,right,Target,0,38,38,38,1742.4261685715173,1744.4261538145947,right,1,3,1.0465532650705427,T&18R03,2022-11-03_14h40.08.948,t1_Paradigm,2021.1.4,59.99946106243685,
S,right,Target,0,39,39,39,1745.926395058108,1747.9264698051265,right,1,3,0.698304109275341,T&18R03,2022-11-03_14h40.08.948,t1_Paradigm,2021.1.4,59.99946106243685,
T,left,Distractor,0,40,40,40,1749.4258634882863,1751.4261400200776,left,1,3,0.8784517554449849,T&18R03,2022-11-03_14h40.08.948,t1_Paradigm,2021.1.4,59.99946106243685,
G,left,Distractor,0,41,41,41,1752.926510547055,1754.9275913308957,left,1,3,0.7050505873630755,T&18R03,2022-11-03_14h40.08.948,t1_Paradigm,2021.1.4,59.99946106243685,
D,left,Distractor,0,42,42,42,1756.426124621532,1758.4265198503272,left,1,3,0.7101789372391067,T&18R03,2022-11-03_14h40.08.948,t1_Paradigm,2021.1.4,59.99946106243685,
S,left,Lure,0,43,43,43,1759.9258214631118,1761.9269275903935,right,0,3,0.9537325699930079,T&18R03,2022-11-03_14h40.08.948,t1_Paradigm,2021.1.4,59.99946106243685,
Z,left,Pretarget,0,44,44,44,1763.4261518897838,1765.4263469377183,left,1,3,0.7501782058388926,T&18R03,2022-11-03_14h40.08.948,t1_Paradigm,2021.1.4,59.99946106243685,
J,left,Distractor,0,45,45,45,1766.9261015237425,1768.9258589970414,left,1,3,0.7228063680813648,T&18R03,2022-11-03_14h40.08.948,t1_Paradigm,2021.1.4,59.99946106243685,
M,left,Pretarget,0,46,46,46,1770.4261191678816,1772.426299779734,left,1,3,0.6944153405493125,T&18R03,2022-11-03_14h40.08.948,t1_Paradigm,2021.1.4,59.99946106243685,
Z,right,Target,0,47,47,47,1773.9261204511276,1775.9264768627472,left,0,3,0.7462884746491909,T&18R03,2022-11-03_14h40.08.948,t1_Paradigm,2021.1.4,59.99946106243685,
P,left,Distractor,0,48,48,48,1777.4261897444958,1779.4260270975647,left,1,3,0.9427178137120791,T&18R03,2022-11-03_14h40.08.948,t1_Paradigm,2021.1.4,59.99946106243685,
M,right,Target,0,49,49,49,1780.9255689915153,1782.9271072398406,right,1,3,0.9296768684289418,T&18R03,2022-11-03_14h40.08.948,t1_Paradigm,2021.1.4,59.99946106243685,
K,left,Distractor,0,50,50,50,1784.426175629138,1786.4278643339057,left,1,3,1.0289684721501544,T&18R03,2022-11-03_14h40.08.948,t1_Paradigm,2021.1.4,59.99946106243685,
Y,left,Distractor,0,51,51,51,1787.9265496849548,1789.9263248023344,left,1,3,0.7782657541683875,T&18R03,2022-11-03_14h40.08.948,t1_Paradigm,2021.1.4,59.99946106243685,
X,left,Distractor,0,52,52,52,1791.4262224663398,1793.4261464361334,left,1,3,0.8627869659103453,T&18R03,2022-11-03_14h40.08.948,t1_Paradigm,2021.1.4,59.99946106243685,
F,left,Pretarget,0,53,53,53,1794.926054686599,1796.93917390774,left,1,3,0.8536530751152895,T&18R03,2022-11-03_14h40.08.948,t1_Paradigm,2021.1.4,59.99946106243685,
M,left,Lure,0,54,54,54,1798.4262693034834,1800.4259866764187,right,0,3,0.7747343594091944,T&18R03,2022-11-03_14h40.08.948,t1_Paradigm,2021.1.4,59.99946106243685,
V,left,Distractor,0,55,55,55,1801.9260655938997,1803.9283301391988,left,1,3,0.7126074127154425,T&18R03,2022-11-03_14h40.08.948,t1_Paradigm,2021.1.4,59.99946106243685,
F,right,Target,0,56,56,56,1805.4261948773055,1807.4270690643461,left,0,3,0.9577621711068787,T&18R03,2022-11-03_14h40.08.948,t1_Paradigm,2021.1.4,59.99946106243685,
S,left,Distractor,0,57,57,57,1808.9264861660195,1810.9264775043703,left,1,3,0.8021296157967299,T&18R03,2022-11-03_14h40.08.948,t1_Paradigm,2021.1.4,59.99946106243685,
D,left,Distractor,0,58,58,58,1812.426492902916,1814.426087408443,left,1,3,0.6307385965483263,T&18R03,2022-11-03_14h40.08.948,t1_Paradigm,2021.1.4,59.99946106243685,
F,right,Target,0,59,59,59,1815.9261329623987,1817.9265291535994,right,1,3,0.9221254966687411,T&18R03,2022-11-03_14h40.08.948,t1_Paradigm,2021.1.4,59.99946106243685,
V,left,Pretarget,0,60,60,60,1819.4263228775235,1821.4272025182145,left,1,3,1.1816733832238242,T&18R03,2022-11-03_14h40.08.948,t1_Paradigm,2021.1.4,59.99946106243685,
J,left,Distractor,0,61,61,61,1822.926221183152,1824.9261891028727,left,1,3,0.8024497767328285,T&18R03,2022-11-03_14h40.08.948,t1_Paradigm,2021.1.4,59.99946106243685,
V,left,Lure,0,62,62,62,1826.4262173334719,1828.4264245719532,right,0,3,1.3667684466345236,T&18R03,2022-11-03_14h40.08.948,t1_Paradigm,2021.1.4,59.99946106243685,
V,right,Target,0,63,63,63,1829.926650416979,1831.9261759499786,left,0,3,0.8906175513402559,T&18R03,2022-11-03_14h40.08.948,t1_Paradigm,2021.1.4,59.99946106243685,
R,left,Distractor,0,0,0,0,1901.0917768035433,1903.0932816884015,None,0,4,,T&18R03,2022-11-03_14h40.08.948,t1_Paradigm,2021.1.4,59.99946106243685,
F,left,Distractor,0,1,1,1,1904.592993286904,1906.5933259591693,left,1,4,0.5916520113241859,T&18R03,2022-11-03_14h40.08.948,t1_Paradigm,2021.1.4,59.99946106243685,
P,left,Pretarget,0,2,2,2,1908.0924860980595,1910.0933580394485,left,1,4,1.0435884077451192,T&18R03,2022-11-03_14h40.08.948,t1_Paradigm,2021.1.4,59.99946106243685,
H,left,Distractor,0,3,3,3,1911.5929320136202,1913.5932794428081,left,1,4,0.8557273845653981,T&18R03,2022-11-03_14h40.08.948,t1_Paradigm,2021.1.4,59.99946106243685,
Z,left,Distractor,0,4,4,4,1915.0930892068427,1917.0930776579771,left,1,4,1.1800430645234883,T&18R03,2022-11-03_14h40.08.948,t1_Paradigm,2021.1.4,59.99946106243685,
T,left,Distractor,0,5,5,5,1918.593124495179,1920.5933939692914,left,1,4,1.4236088877660222,T&18R03,2022-11-03_14h40.08.948,t1_Paradigm,2021.1.4,59.99946106243685,
P,right,Target,0,6,6,6,1922.0930872820318,1924.0934003853472,left,0,4,1.1554692668141797,T&18R03,2022-11-03_14h40.08.948,t1_Paradigm,2021.1.4,59.99946106243685,
G,left,Distractor,0,7,7,7,1925.593116795877,1927.593512666237,left,1,4,0.711406969523523,T&18R03,2022-11-03_14h40.08.948,t1_Paradigm,2021.1.4,59.99946106243685,
L,left,Distractor,0,8,8,8,1929.0933333376306,1931.0930343496148,left,1,4,0.8438095690216869,T&18R03,2022-11-03_14h40.08.948,t1_Paradigm,2021.1.4,59.99946106243685,
P,left,Lure,0,9,9,9,1932.5931450265343,1934.5933692675317,right,0,4,1.0076139282318763,T&18R03,2022-11-03_14h40.08.948,t1_Paradigm,2021.1.4,59.99946106243685,
Q,left,Pretarget,0,10,10,10,1936.0931094174157,1938.09329387889,right,0,4,0.9638288685237058,T&18R03,2022-11-03_14h40.08.948,t1_Paradigm,2021.1.4,59.99946106243685,
D,left,Distractor,0,11,11,11,1939.5932335680118,1941.5931411769125,left,1,4,0.7758873238926753,T&18R03,2022-11-03_14h40.08.948,t1_Paradigm,2021.1.4,59.99946106243685,
M,left,Pretarget,0,12,12,12,1943.0934019893757,1945.093650932191,left,1,4,1.1953671617084183,T&18R03,2022-11-03_14h40.08.948,t1_Paradigm,2021.1.4,59.99946106243685,
C,left,Distractor,0,13,13,13,1946.5931235327735,1948.593349377741,left,1,4,1.039606606180314,T&18R03,2022-11-03_14h40.08.948,t1_Paradigm,2021.1.4,59.99946106243685,
Q,right,Target,0,14,14,14,1950.093031783239,1952.095033591264,right,1,4,0.7059748196043074,T&18R03,2022-11-03_14h40.08.948,t1_Paradigm,2021.1.4,59.99946106243685,
R,left,Distractor,0,15,15,15,1953.5934157838929,1955.5949139319127,left,1,4,0.934011873556301,T&18R03,2022-11-03_14h40.08.948,t1_Paradigm,2021.1.4,59.99946106243685,
M,right,Target,0,16,16,16,1957.093265006668,1959.0945058710058,left,0,4,1.0503592668101192,T&18R03,2022-11-03_14h40.08.948,t1_Paradigm,2021.1.4,59.99946106243685,
S,left,Distractor,0,17,17,17,1960.5928761939867,1962.593477377959,left,1,4,0.5595415987772867,T&18R03,2022-11-03_14h40.08.948,t1_Paradigm,2021.1.4,59.99946106243685,
Z,left,Distractor,0,18,18,18,1964.093099151738,1966.0940092686214,right,0,4,1.1070081887883134,T&18R03,2022-11-03_14h40.08.948,t1_Paradigm,2021.1.4,59.99946106243685,
L,left,Pretarget,0,19,19,19,1967.5929361840244,1969.594899816555,left,1,4,1.1902221300988458,T&18R03,2022-11-03_14h40.08.948,t1_Paradigm,2021.1.4,59.99946106243685,
M,right,Target,0,20,20,20,1971.0931543298066,1973.0943631138653,right,1,4,1.0186793712782674,T&18R03,2022-11-03_14h40.08.948,t1_Paradigm,2021.1.4,59.99946106243685,
P,left,Distractor,0,21,21,21,1974.5932727059699,1976.595246604178,left,1,4,0.845902805798687,T&18R03,2022-11-03_14h40.08.948,t1_Paradigm,2021.1.4,59.99946106243685,
F,left,Distractor,0,22,22,22,1978.093129948771,1980.0955010005855,left,1,4,0.8174408808699809,T&18R03,2022-11-03_14h40.08.948,t1_Paradigm,2021.1.4,59.99946106243685,
L,right,Target,0,23,23,23,1981.5932085454115,1983.5935662402771,left,0,4,0.7915075218770653,T&18R03,2022-11-03_14h40.08.948,t1_Paradigm,2021.1.4,59.99946106243685,
L,left,Lure,0,24,24,24,1985.0931238535559,1987.0934183503268,right,0,4,1.227585684740916,T&18R03,2022-11-03_14h40.08.948,t1_Paradigm,2021.1.4,59.99946106243685,
V,left,Pretarget,0,25,25,25,1988.5931090966333,1990.5942293392145,left,1,4,1.1828395005431958,T&18R03,2022-11-03_14h40.08.948,t1_Paradigm,2021.1.4,59.99946106243685,
Z,left,Distractor,0,26,26,26,1992.093354510609,1994.0938831932144,right,0,4,1.1711626077303663,T&18R03,2022-11-03_14h40.08.948,t1_Paradigm,2021.1.4,59.99946106243685,
H,left,Distractor,0,27,27,27,1995.5931960341404,1997.593478019582,left,1,4,1.3834001351497136,T&18R03,2022-11-03_14h40.08.948,t1_Paradigm,2021.1.4,59.99946106243685,
X,left,Distractor,0,28,28,28,1999.093335583224,2001.093021517503,left,1,4,1.020060426380951,T&18R03,2022-11-03_14h40.08.948,t1_Paradigm,2021.1.4,59.99946106243685,
V,right,Target,0,29,29,29,2002.593134440016,2004.593590942095,left,0,4,1.039552390575409,T&18R03,2022-11-03_14h40.08.948,t1_Paradigm,2021.1.4,59.99946106243685,
C,left,Distractor,0,30,30,30,2006.093287783675,2008.0952918373514,left,1,4,1.2656710451701656,T&18R03,2022-11-03_14h40.08.948,t1_Paradigm,2021.1.4,59.99946106243685,
S,left,Pretarget,0,31,31,31,2009.5931706906995,2011.5931896180846,left,1,4,1.144007953349501,T&18R03,2022-11-03_14h40.08.948,t1_Paradigm,2021.1.4,59.99946106243685,
D,left,Distractor,0,32,32,32,2013.0935011173715,2015.0938514337759,left,1,4,0.8589594704099,T&18R03,2022-11-03_14h40.08.948,t1_Paradigm,2021.1.4,59.99946106243685,
V,left,Distractor,0,33,33,33,2016.5932181695243,2018.5933567562024,right,0,4,0.911652896727901,T&18R03,2022-11-03_14h40.08.948,t1_Paradigm,2021.1.4,59.99946106243685,
R,left,Distractor,0,34,34,34,2020.0934812276391,2022.0929871916305,right,0,4,0.9962401938391849,T&18R03,2022-11-03_14h40.08.948,t1_Paradigm,2021.1.4,59.99946106243685,
S,right,Target,0,35,35,35,2023.5929903996876,2025.593694240495,left,0,4,1.3672631241497584,T&18R03,2022-11-03_14h40.08.948,t1_Paradigm,2021.1.4,59.99946106243685,
Y,left,Distractor,0,36,36,36,2027.0933419992798,2029.0934209167026,left,1,4,1.3397257523029111,T&18R03,2022-11-03_14h40.08.948,t1_Paradigm,2021.1.4,59.99946106243685,
N,left,Pretarget,0,37,37,37,2030.5932855380233,2032.5934183503268,right,0,4,1.20019812771352,T&18R03,2022-11-03_14h40.08.948,t1_Paradigm,2021.1.4,59.99946106243685,
Z,left,Pretarget,0,38,38,38,2034.0936018493958,2036.093024083937,left,1,4,1.460122957243584,T&18R03,2022-11-03_14h40.08.948,t1_Paradigm,2021.1.4,59.99946106243685,
P,left,Pretarget,0,39,39,39,2037.5932345304172,2039.594829881622,left,1,4,1.3501691591809504,T&18R03,2022-11-03_14h40.08.948,t1_Paradigm,2021.1.4,59.99946106243685,
M,left,Distractor,0,40,40,40,2041.093266289914,2043.0931982797338,right,0,4,1.2440601799753495,T&18R03,2022-11-03_14h40.08.948,t1_Paradigm,2021.1.4,59.99946106243685,
N,right,Target,0,41,41,41,2044.5934754531481,2046.5936762755737,left,0,4,0.9434931935393251,T&18R03,2022-11-03_14h40.08.948,t1_Paradigm,2021.1.4,59.99946106243685,
Z,right,Target,0,42,42,42,2048.0931565754,2050.0949662227067,None,0,4,,T&18R03,2022-11-03_14h40.08.948,t1_Paradigm,2021.1.4,59.99946106243685,
P,right,Target,0,43,43,43,2051.5933586810133,2053.595102243009,left,0,4,1.1261325132800266,T&18R03,2022-11-03_14h40.08.948,t1_Paradigm,2021.1.4,59.99946106243685,
X,left,Pretarget,0,44,44,44,2055.093285217241,2057.093667934707,left,1,4,1.0513999502873048,T&18R03,2022-11-03_14h40.08.948,t1_Paradigm,2021.1.4,59.99946106243685,
Z,left,Lure,0,45,45,45,2058.5933262799517,2060.596002094215,right,0,4,1.1975165389594622,T&18R03,2022-11-03_14h40.08.948,t1_Paradigm,2021.1.4,59.99946106243685,
R,left,Pretarget,0,46,46,46,2062.0935886965017,2064.0942556450027,right,0,4,1.3149591521942057,T&18R03,2022-11-03_14h40.08.948,t1_Paradigm,2021.1.4,59.99946106243685,
K,left,Distractor,0,47,47,47,2065.593323071953,2067.593506571022,right,0,4,1.2076721859630197,T&18R03,2022-11-03_14h40.08.948,t1_Paradigm,2021.1.4,59.99946106243685,
X,right,Target,0,48,48,48,2069.0931065301993,2071.093505287834,right,1,4,0.9715868371422403,T&18R03,2022-11-03_14h40.08.948,t1_Paradigm,2021.1.4,59.99946106243685,
B,left,Distractor,0,49,49,49,2072.5932515329914,2074.593194430112,left,1,4,0.9440395202836953,T&18R03,2022-11-03_14h40.08.948,t1_Paradigm,2021.1.4,59.99946106243685,
R,right,Target,0,50,50,50,2076.093719583936,2078.0931071718223,right,1,4,1.0279977236059494,T&18R03,2022-11-03_14h40.08.948,t1_Paradigm,2021.1.4,59.99946106243685,
Y,left,Pretarget,0,51,51,51,2079.593296445324,2081.5933397536865,left,1,4,1.1438812363194302,T&18R03,2022-11-03_14h40.08.948,t1_Paradigm,2021.1.4,59.99946106243685,
W,left,Pretarget,0,52,52,52,2083.093274951563,2085.093348094553,left,1,4,1.4198256630334072,T&18R03,2022-11-03_14h40.08.948,t1_Paradigm,2021.1.4,59.99946106243685,
Z,left,Distractor,0,53,53,53,2086.593647082569,2088.593408726214,None,0,4,,T&18R03,2022-11-03_14h40.08.948,t1_Paradigm,2021.1.4,59.99946106243685,
Q,left,Distractor,0,54,54,54,2090.093402310158,2092.0939961157274,left,1,4,1.0592984304530546,T&18R03,2022-11-03_14h40.08.948,t1_Paradigm,2021.1.4,59.99946106243685,
Y,right,Target,0,55,55,55,2093.593486360449,2095.5935675235232,left,0,4,1.079749915166758,T&18R03,2022-11-03_14h40.08.948,t1_Paradigm,2021.1.4,59.99946106243685,
W,right,Target,0,56,56,56,2097.093382741208,2099.094266231521,left,0,4,1.2108885525376536,T&18R03,2022-11-03_14h40.08.948,t1_Paradigm,2021.1.4,59.99946106243685,
H,left,Pretarget,0,57,57,57,2100.593617568724,2102.5935527666006,right,0,4,0.5757575271418318,T&18R03,2022-11-03_14h40.08.948,t1_Paradigm,2021.1.4,59.99946106243685,
M,left,Distractor,0,58,58,58,2104.0935078542097,2106.0932874628343,left,1,4,0.46782157733105123,T&18R03,2022-11-03_14h40.08.948,t1_Paradigm,2021.1.4,59.99946106243685,
R,left,Pretarget,0,59,59,59,2107.593337508035,2109.5934664707165,left,1,4,0.8398335419478826,T&18R03,2022-11-03_14h40.08.948,t1_Paradigm,2021.1.4,59.99946106243685,
J,left,Distractor,0,60,60,60,2111.09342059592,2113.09513817291,right,0,4,0.6501019189599901,T&18R03,2022-11-03_14h40.08.948,t1_Paradigm,2021.1.4,59.99946106243685,
H,right,Target,0,61,61,61,2114.593676596356,2116.593778932409,left,0,4,0.7194421114982106,T&18R03,2022-11-03_14h40.08.948,t1_Paradigm,2021.1.4,59.99946106243685,
Z,left,Distractor,0,62,62,62,2118.0935238943784,2120.0938597746426,right,0,4,0.9155666881124489,T&18R03,2022-11-03_14h40.08.948,t1_Paradigm,2021.1.4,59.99946106243685,
R,right,Target,0,63,63,63,2121.593271422724,2123.5938870428945,left,0,4,0.6634665540768765,T&18R03,2022-11-03_14h40.08.948,t1_Paradigm,2021.1.4,59.99946106243685,
J,left,Pretarget,0,0,0,0,2128.907131505315,2130.9104623984313,None,0,4,,T&18R03,2022-11-03_14h40.08.948,t1_Paradigm,2021.1.4,59.99946106243685,
G,left,Pretarget,0,1,1,1,2132.4104364134255,2134.410523030092,left,1,4,1.062936973234173,T&18R03,2022-11-03_14h40.08.948,t1_Paradigm,2021.1.4,59.99946106243685,
Z,left,Distractor,0,2,2,2,2135.9102137764567,2137.9112422695034,left,1,4,0.922141536779236,T&18R03,2022-11-03_14h40.08.948,t1_Paradigm,2021.1.4,59.99946106243685,
F,left,Distractor,0,3,3,3,2139.409987931431,2141.4104633608367,left,1,4,1.3588106180541217,T&18R03,2022-11-03_14h40.08.948,t1_Paradigm,2021.1.4,59.99946106243685,
J,right,Target,0,4,4,4,2142.9100700569106,2144.9104723433265,right,1,4,0.802783090621233,T&18R03,2022-11-03_14h40.08.948,t1_Paradigm,2021.1.4,59.99946106243685,
G,right,Target,0,5,5,5,2146.410262859252,2148.4106779777794,right,1,4,0.9345976590411738,T&18R03,2022-11-03_14h40.08.948,t1_Paradigm,2021.1.4,59.99946106243685,
H,left,Distractor,0,6,6,6,2149.910411390825,2151.9103645536234,left,1,4,0.7472569776000455,T&18R03,2022-11-03_14h40.08.948,t1_Paradigm,2021.1.4,59.99946106243685,
P,left,Distractor,0,7,7,7,2153.4104630400543,2155.4111412166385,left,1,4,0.766109261487145,T&18R03,2022-11-03_14h40.08.948,t1_Paradigm,2021.1.4,59.99946106243685,
G,left,Lure,0,8,8,8,2156.9100857761805,2158.9104383382364,right,0,4,1.0909831379540265,T&18R03,2022-11-03_14h40.08.948,t1_Paradigm,2021.1.4,59.99946106243685,
S,left,Distractor,0,9,9,9,2160.410439300642,2162.410709095595,left,1,4,1.2545683889766224,T&18R03,2022-11-03_14h40.08.948,t1_Paradigm,2021.1.4,59.99946106243685,
R,left,Pretarget,0,10,10,10,2163.9101425582776,2165.910286598606,left,1,4,0.971064891316928,T&18R03,2022-11-03_14h40.08.948,t1_Paradigm,2021.1.4,59.99946106243685,
T,left,Pretarget,0,11,11,11,2167.410358458408,2169.4104854962206,left,1,4,1.2469765961868688,T&18R03,2022-11-03_14h40.08.948,t1_Paradigm,2021.1.4,59.99946106243685,
X,left,Distractor,0,12,12,12,2170.9101197812706,2172.9120933586964,left,1,4,0.9452944999211468,T&18R03,2022-11-03_14h40.08.948,t1_Paradigm,2021.1.4,59.99946106243685,
F,left,Pretarget,0,13,13,13,2174.410066528071,2176.410671240883,left,1,4,1.0788250413606875,T&18R03,2022-11-03_14h40.08.948,t1_Paradigm,2021.1.4,59.99946106243685,
R,right,Target,0,14,14,14,2177.9099471895024,2179.909856723156,right,1,4,0.6195028073270805,T&18R03,2022-11-03_14h40.08.948,t1_Paradigm,2021.1.4,59.99946106243685,
T,right,Target,0,15,15,15,2181.410054016742,2183.4103703281144,right,1,4,1.4075068443198688,T&18R03,2022-11-03_14h40.08.948,t1_Paradigm,2021.1.4,59.99946106243685,
C,left,Distractor,0,16,16,16,2184.9101954906946,2186.9111351214233,left,1,4,0.9624115627375431,T&18R03,2022-11-03_14h40.08.948,t1_Paradigm,2021.1.4,59.99946106243685,
F,right,Target,0,17,17,17,2188.4103456262965,2190.410178808961,left,0,4,1.2232853263267316,T&18R03,2022-11-03_14h40.08.948,t1_Paradigm,2021.1.4,59.99946106243685,
M,left,Distractor,0,18,18,18,2191.9102339869714,2193.9109962139046,left,1,4,1.0986689259880222,T&18R03,2022-11-03_14h40.08.948,t1_Paradigm,2021.1.4,59.99946106243685,
N,left,Distractor,0,19,19,19,2195.410110157216,2197.410332794185,left,1,4,1.3751089926809072,T&18R03,2022-11-03_14h40.08.948,t1_Paradigm,2021.1.4,59.99946106243685,
R,left,Lure,0,20,20,20,2198.9101111196214,2200.911725398153,right,0,4,1.3780485066818073,T&18R03,2022-11-03_14h40.08.948,t1_Paradigm,2021.1.4,59.99946106243685,
F,right,Target,0,21,21,21,2202.4100774353137,2204.410437375831,None,0,4,,T&18R03,2022-11-03_14h40.08.948,t1_Paradigm,2021.1.4,59.99946106243685,
P,left,Distractor,0,22,22,22,2205.910061716044,2207.911946751934,None,0,4,,T&18R03,2022-11-03_14h40.08.948,t1_Paradigm,2021.1.4,59.99946106243685,
L,left,Pretarget,0,23,23,23,2209.410128442978,2211.410782880208,left,1,4,1.214888960646931,T&18R03,2022-11-03_14h40.08.948,t1_Paradigm,2021.1.4,59.99946106243685,
T,left,Distractor,0,24,24,24,2212.9103052051505,2214.9105467695044,right,0,4,1.0108630166505463,T&18R03,2022-11-03_14h40.08.948,t1_Paradigm,2021.1.4,59.99946106243685,
F,left,Distractor,0,25,25,25,2216.410189716262,2218.4107957123197,left,1,4,1.1587151472340338,T&18R03,2022-11-03_14h40.08.948,t1_Paradigm,2021.1.4,59.99946106243685,
V,left,Distractor,0,26,26,26,2219.910107590782,2221.912562051264,left,1,4,0.9368731116410345,T&18R03,2022-11-03_14h40.08.948,t1_Paradigm,2021.1.4,59.99946106243685,
L,right,Target,0,27,27,27,2223.410200302722,2225.412403895578,left,0,4,0.9090354685904458,T&18R03,2022-11-03_14h40.08.948,t1_Paradigm,2021.1.4,59.99946106243685,
S,left,Pretarget,0,28,28,28,2226.9101489743334,2228.911028294184,left,1,4,1.154402598273009,T&18R03,2022-11-03_14h40.08.948,t1_Paradigm,2021.1.4,59.99946106243685,
W,left,Distractor,0,29,29,29,2230.4101104779984,2232.41105588316,right,0,4,1.3343895223224536,T&18R03,2022-11-03_14h40.08.948,t1_Paradigm,2021.1.4,59.99946106243685,
Q,left,Distractor,0,30,30,30,2233.9102554807905,2235.910453095159,left,1,4,1.2911004233756103,T&18R03,2022-11-03_14h40.08.948,t1_Paradigm,2021.1.4,59.99946106243685,
L,right,Target,0,31,31,31,2237.4101537863608,2239.410053375177,left,0,4,1.1034180872375146,T&18R03,2022-11-03_14h40.08.948,t1_Paradigm,2021.1.4,59.99946106243685,
S,right,Target,0,32,32,32,2240.910682468966,2242.9108361334074,left,0,4,1.45874831819674,T&18R03,2022-11-03_14h40.08.948,t1_Paradigm,2021.1.4,59.99946106243685,
Z,left,Pretarget,0,33,33,33,2244.4103520423523,2246.4120522959856,left,1,4,0.9652808209648356,T&18R03,2022-11-03_14h40.08.948,t1_Paradigm,2021.1.4,59.99946106243685,
F,left,Distractor,0,34,34,34,2247.9101355005987,2249.9123500007554,right,0,4,0.8090772370342165,T&18R03,2022-11-03_14h40.08.948,t1_Paradigm,2021.1.4,59.99946106243685,
V,left,Distractor,0,35,35,35,2251.4100719817216,2253.411873608944,left,1,4,0.2535241766599938,T&18R03,2022-11-03_14h40.08.948,t1_Paradigm,2021.1.4,59.99946106243685,
M,left,Distractor,0,36,36,36,2254.9103019971517,2256.9109275621595,right,0,4,0.6906718953396194,T&18R03,2022-11-03_14h40.08.948,t1_Paradigm,2021.1.4,59.99946106243685,
Z,right,Target,0,37,37,37,2258.410496724304,2260.411692676309,right,1,4,0.9497061769361608,T&18R03,2022-11-03_14h40.08.948,t1_Paradigm,2021.1.4,59.99946106243685,
H,left,Pretarget,0,38,38,38,2261.910164372821,2263.910931090999,left,1,4,0.6826723623671569,T&18R03,2022-11-03_14h40.08.948,t1_Paradigm,2021.1.4,59.99946106243685,
L,left,Distractor,0,39,39,39,2265.410288523417,2267.4108582687913,left,1,4,0.7668057238915935,T&18R03,2022-11-03_14h40.08.948,t1_Paradigm,2021.1.4,59.99946106243685,
G,left,Distractor,0,40,40,40,2268.9106462182826,2270.9113834226155,right,0,4,0.770110311161261,T&18R03,2022-11-03_14h40.08.948,t1_Paradigm,2021.1.4,59.99946106243685,
K,left,Distractor,0,41,41,41,2272.4101104779984,2274.41074759193,left,1,4,0.7749056680477224,T&18R03,2022-11-03_14h40.08.948,t1_Paradigm,2021.1.4,59.99946106243685,
H,right,Target,0,42,42,42,2275.9105220676865,2277.9102561223553,left,0,4,0.4913659195881337,T&18R03,2022-11-03_14h40.08.948,t1_Paradigm,2021.1.4,59.99946106243685,
B,left,Distractor,0,43,43,43,2279.4102869194467,2281.40967386571,left,1,4,0.7357529973960482,T&18R03,2022-11-03_14h40.08.948,t1_Paradigm,2021.1.4,59.99946106243685,
Z,left,Distractor,0,44,44,44,2282.9102888442576,2284.9106600128,right,0,4,0.8992535565630533,T&18R03,2022-11-03_14h40.08.948,t1_Paradigm,2021.1.4,59.99946106243685,
T,left,Pretarget,0,45,45,45,2286.410245215113,2288.410290448228,left,1,4,0.7112985381972976,T&18R03,2022-11-03_14h40.08.948,t1_Paradigm,2021.1.4,59.99946106243685,
H,right,Target,0,46,46,46,2289.910763952823,2291.9120295189787,left,0,4,0.6334914034814574,T&18R03,2022-11-03_14h40.08.948,t1_Paradigm,2021.1.4,59.99946106243685,
F,left,Distractor,0,47,47,47,2293.4104094660142,2295.4109067099635,left,1,4,0.7989536703098565,T&18R03,2022-11-03_14h40.08.948,t1_Paradigm,2021.1.4,59.99946106243685,
R,left,Distractor,0,48,48,48,2296.9102946186904,2298.9107174364617,left,1,4,0.8348097737180069,T&18R03,2022-11-03_14h40.08.948,t1_Paradigm,2021.1.4,59.99946106243685,
T,right,Target,0,49,49,49,2300.4107238525175,2302.410605797195,right,1,4,1.0470777772716247,T&18R03,2022-11-03_14h40.08.948,t1_Paradigm,2021.1.4,59.99946106243685,
H,right,Target,0,50,50,50,2303.9104633608367,2305.911023161316,left,0,4,0.8105647985939868,T&18R03,2022-11-03_14h40.08.948,t1_Paradigm,2021.1.4,59.99946106243685,
Y,left,Pretarget,0,51,51,51,2307.4102837113896,2309.4101319717593,right,0,4,0.8635613832739182,T&18R03,2022-11-03_14h40.08.948,t1_Paradigm,2021.1.4,59.99946106243685,
H,left,Distractor,0,52,52,52,2310.9104431502637,2312.910895802721,left,1,4,0.6748139826231636,T&18R03,2022-11-03_14h40.08.948,t1_Paradigm,2021.1.4,59.99946106243685,
S,left,Distractor,0,53,53,53,2314.410577245755,2316.4108941986924,left,1,4,0.6469407304539345,T&18R03,2022-11-03_14h40.08.948,t1_Paradigm,2021.1.4,59.99946106243685,
Q,left,Distractor,0,54,54,54,2317.9107491959003,2319.912809390051,left,1,4,0.8409021352999844,T&18R03,2022-11-03_14h40.08.948,t1_Paradigm,2021.1.4,59.99946106243685,
Y,right,Target,0,55,55,55,2321.4104181276634,2323.410834529437,left,0,4,0.7989681064500473,T&18R03,2022-11-03_14h40.08.948,t1_Paradigm,2021.1.4,59.99946106243685,
R,left,Distractor,0,56,56,56,2324.9104447542923,2326.910592965083,left,1,4,0.6911133196554147,T&18R03,2022-11-03_14h40.08.948,t1_Paradigm,2021.1.4,59.99946106243685,
H,left,Pretarget,0,57,57,57,2328.4108079028083,2330.4126092092483,right,0,4,0.8051425935118459,T&18R03,2022-11-03_14h40.08.948,t1_Paradigm,2021.1.4,59.99946106243685,
J,left,Distractor,0,58,58,58,2331.910398237931,2333.9109275621595,left,1,4,0.6346620120457374,T&18R03,2022-11-03_14h40.08.948,t1_Paradigm,2021.1.4,59.99946106243685,
V,left,Distractor,0,59,59,59,2335.410680864996,2337.4232945012627,left,1,4,0.6423429879941978,T&18R03,2022-11-03_14h40.08.948,t1_Paradigm,2021.1.4,59.99946106243685,
Y,left,Lure,0,60,60,60,2338.9104376966134,2340.9103546087863,right,0,4,0.6593455242691562,T&18R03,2022-11-03_14h40.08.948,t1_Paradigm,2021.1.4,59.99946106243685,
H,right,Target,0,61,61,61,2342.4104200524744,2344.410786088207,left,0,4,0.7589736499357969,T&18R03,2022-11-03_14h40.08.948,t1_Paradigm,2021.1.4,59.99946106243685,
L,left,Distractor,0,62,62,62,2345.910491591436,2347.9108765545534,left,1,4,0.7788534644059837,T&18R03,2022-11-03_14h40.08.948,t1_Paradigm,2021.1.4,59.99946106243685,
P,left,Distractor,0,63,63,63,2349.410272162524,2351.4101759217447,left,1,4,0.575284022546839,T&18R03,2022-11-03_14h40.08.948,t1_Paradigm,2021.1.4,59.99946106243685,
