Letter,CorrAnswer,Stimulus,nback_run.thisRepN,nback_run.thisTrialN,nback_run.thisN,nback_run.thisIndex,fixcross.started,nback_trial.started,trial_resp.keys,trial_resp.corr,currentlevel,trial_resp.rt,Participant,date,expName,psychopyVersion,frameRate,
H,left,Distractor,0,0,0,0,199.86569410271477,201.80873254439211,None,0,1,,W08E03,2022-09-02_10h30.13.106,t1_Paradigm,2021.1.4,59.96037509380557,
Q,left,Pretarget,0,1,1,1,203.31095088846632,205.3100837613456,right,0,1,0.6852290043316316,W08E03,2022-09-02_10h30.13.106,t1_Paradigm,2021.1.4,59.96037509380557,
Q,right,Target,0,2,2,2,206.80727000921615,208.8073075430293,right,1,1,0.7240489030082244,W08E03,2022-09-02_10h30.13.106,t1_Paradigm,2021.1.4,59.96037509380557,
T,left,Distractor,0,3,3,3,210.30727610446047,212.30903666443191,left,1,1,0.5342186392226722,W08E03,2022-09-02_10h30.13.106,t1_Paradigm,2021.1.4,59.96037509380557,
Q,left,Lure,0,4,4,4,213.80735951289535,215.80774928702158,left,1,1,0.7158440775237978,W08E03,2022-09-02_10h30.13.106,t1_Paradigm,2021.1.4,59.96037509380557,
L,left,Distractor,0,5,5,5,217.30706148807076,219.30902960681124,left,1,1,0.7182318049308378,W08E03,2022-09-02_10h30.13.106,t1_Paradigm,2021.1.4,59.96037509380557,
V,left,Pretarget,0,6,6,6,220.8070621296938,222.80886086510145,left,1,1,0.5786153555091005,W08E03,2022-09-02_10h30.13.106,t1_Paradigm,2021.1.4,59.96037509380557,
V,right,Target,0,7,7,7,224.3071266108309,226.30726423478336,right,1,1,0.6640833571436815,W08E03,2022-09-02_10h30.13.106,t1_Paradigm,2021.1.4,59.96037509380557,
K,left,Distractor,0,8,8,8,227.80743425971013,229.80789910146268,left,1,1,0.8594362230214756,W08E03,2022-09-02_10h30.13.106,t1_Paradigm,2021.1.4,59.96037509380557,
G,left,Pretarget,0,9,9,9,231.3069152024982,233.30899175218656,left,1,1,0.5101735858188476,W08E03,2022-09-02_10h30.13.106,t1_Paradigm,2021.1.4,59.96037509380557,
G,right,Target,0,10,10,10,234.80708651061286,236.80741084119654,right,1,1,0.6277451807400212,W08E03,2022-09-02_10h30.13.106,t1_Paradigm,2021.1.4,59.96037509380557,
G,right,Target,0,11,11,11,238.30737266578944,240.30714072613046,right,1,1,0.6002133331494406,W08E03,2022-09-02_10h30.13.106,t1_Paradigm,2021.1.4,59.96037509380557,
P,left,Pretarget,0,12,12,12,241.80731652546092,243.80907516065054,left,1,1,0.6821489867579658,W08E03,2022-09-02_10h30.13.106,t1_Paradigm,2021.1.4,59.96037509380557,
P,right,Target,0,13,13,13,245.3072045656736,247.30731460065,right,1,1,0.7198723850597162,W08E03,2022-09-02_10h30.13.106,t1_Paradigm,2021.1.4,59.96037509380557,
G,left,Lure,0,14,14,14,248.80731845027185,250.80887754677678,left,1,1,0.6744683512952179,W08E03,2022-09-02_10h30.13.106,t1_Paradigm,2021.1.4,59.96037509380557,
Y,left,Distractor,0,15,15,15,252.3073043350014,254.30916049392545,left,1,1,0.5341631405171938,W08E03,2022-09-02_10h30.13.106,t1_Paradigm,2021.1.4,59.96037509380557,
B,left,Distractor,0,16,16,16,255.8068930671725,257.80914413303253,left,1,1,1.018091614561854,W08E03,2022-09-02_10h30.13.106,t1_Paradigm,2021.1.4,59.96037509380557,
T,left,Pretarget,0,17,17,17,259.3071853175643,261.30883327612537,left,1,1,0.43048450688365847,W08E03,2022-09-02_10h30.13.106,t1_Paradigm,2021.1.4,59.96037509380557,
T,right,Target,0,18,18,18,262.80722124734893,264.8069723052031,right,1,1,0.5166326081962325,W08E03,2022-09-02_10h30.13.106,t1_Paradigm,2021.1.4,59.96037509380557,
S,left,Distractor,0,19,19,19,266.30728893651394,268.30909761678777,left,1,1,0.8221199221152347,W08E03,2022-09-02_10h30.13.106,t1_Paradigm,2021.1.4,59.96037509380557,
T,left,Lure,0,20,20,20,269.8071910919971,271.8088708099385,left,1,1,0.7944594330328982,W08E03,2022-09-02_10h30.13.106,t1_Paradigm,2021.1.4,59.96037509380557,
J,left,Distractor,0,21,21,21,273.3072501195129,275.309062970191,left,1,1,0.5100969141931273,W08E03,2022-09-02_10h30.13.106,t1_Paradigm,2021.1.4,59.96037509380557,
P,left,Distractor,0,22,22,22,276.8071721646993,278.8088781883707,left,1,1,0.49827633221866563,W08E03,2022-09-02_10h30.13.106,t1_Paradigm,2021.1.4,59.96037509380557,
F,left,Distractor,0,23,23,23,280.307247553108,282.3091829500336,left,1,1,0.6301499106630217,W08E03,2022-09-02_10h30.13.106,t1_Paradigm,2021.1.4,59.96037509380557,
L,left,Distractor,0,24,24,24,283.8072019992396,285.8092374863336,left,1,1,0.9060711730562616,W08E03,2022-09-02_10h30.13.106,t1_Paradigm,2021.1.4,59.96037509380557,
W,left,Pretarget,0,25,25,25,287.3071455381287,289.30874184763525,left,1,1,0.5905809398682322,W08E03,2022-09-02_10h30.13.106,t1_Paradigm,2021.1.4,59.96037509380557,
W,right,Target,0,26,26,26,290.80727000921615,292.80717761832057,right,1,1,0.6601131146890111,W08E03,2022-09-02_10h30.13.106,t1_Paradigm,2021.1.4,59.96037509380557,
V,left,Distractor,0,27,27,27,294.3072250969708,296.30845088046044,left,1,1,0.8066030623740517,W08E03,2022-09-02_10h30.13.106,t1_Paradigm,2021.1.4,59.96037509380557,
W,left,Lure,0,28,28,28,297.80718756315764,299.8076889763179,left,1,1,0.6355663273716345,W08E03,2022-09-02_10h30.13.106,t1_Paradigm,2021.1.4,59.96037509380557,
R,left,Pretarget,0,29,29,29,301.30705860088347,303.3095313407539,left,1,1,0.6536816812586039,W08E03,2022-09-02_10h30.13.106,t1_Paradigm,2021.1.4,59.96037509380557,
R,right,Target,0,30,30,30,304.8069354129839,306.80717441029265,right,1,1,0.6441618893877603,W08E03,2022-09-02_10h30.13.106,t1_Paradigm,2021.1.4,59.96037509380557,
G,left,Distractor,0,31,31,31,308.3072959941637,310.30889936129097,left,1,1,0.7101687738031615,W08E03,2022-09-02_10h30.13.106,t1_Paradigm,2021.1.4,59.96037509380557,
R,left,Lure,0,32,32,32,311.8072042448621,313.8091771756008,left,1,1,0.7142471264232881,W08E03,2022-09-02_10h30.13.106,t1_Paradigm,2021.1.4,59.96037509380557,
S,left,Distractor,0,33,33,33,315.3072571771627,317.3092920226336,left,1,1,0.5899730205710512,W08E03,2022-09-02_10h30.13.106,t1_Paradigm,2021.1.4,59.96037509380557,
R,left,Lure,0,34,34,34,318.8071740895102,320.80787247489206,left,1,1,0.5634144854848273,W08E03,2022-09-02_10h30.13.106,t1_Paradigm,2021.1.4,59.96037509380557,
P,left,Pretarget,0,35,35,35,322.3071532373724,324.3084749405971,left,1,1,0.6151983035961166,W08E03,2022-09-02_10h30.13.106,t1_Paradigm,2021.1.4,59.96037509380557,
P,right,Target,0,36,36,36,325.8073222998937,327.80717312710476,right,1,1,0.6201460289594252,W08E03,2022-09-02_10h30.13.106,t1_Paradigm,2021.1.4,59.96037509380557,
Y,left,Pretarget,0,37,37,37,329.3071795431315,331.3087408852298,left,1,1,0.782363603124395,W08E03,2022-09-02_10h30.13.106,t1_Paradigm,2021.1.4,59.96037509380557,
Y,right,Target,0,38,38,38,332.8072501195129,334.8071545205894,right,1,1,0.548132452648133,W08E03,2022-09-02_10h30.13.106,t1_Paradigm,2021.1.4,59.96037509380557,
J,left,Distractor,0,39,39,39,336.30709773869603,338.30899143140414,left,1,1,0.6302612288563978,W08E03,2022-09-02_10h30.13.106,t1_Paradigm,2021.1.4,59.96037509380557,
Y,left,Lure,0,40,40,40,339.80709805947845,341.80882397288224,left,1,1,0.6343078221252654,W08E03,2022-09-02_10h30.13.106,t1_Paradigm,2021.1.4,59.96037509380557,
T,left,Distractor,0,41,41,41,343.307097097073,345.3089083437517,left,1,1,0.6702870213193819,W08E03,2022-09-02_10h30.13.106,t1_Paradigm,2021.1.4,59.96037509380557,
V,left,Distractor,0,42,42,42,346.80723343780846,348.80913386738393,left,1,1,0.6099673103017267,W08E03,2022-09-02_10h30.13.106,t1_Paradigm,2021.1.4,59.96037509380557,
N,left,Pretarget,0,43,43,43,350.3071910919971,352.30902960681124,left,1,1,0.5661153153923806,W08E03,2022-09-02_10h30.13.106,t1_Paradigm,2021.1.4,59.96037509380557,
N,right,Target,0,44,44,44,353.8072225305659,355.80689370876644,right,1,1,0.6522085596516263,W08E03,2022-09-02_10h30.13.106,t1_Paradigm,2021.1.4,59.96037509380557,
N,right,Target,0,45,45,45,357.30720520726754,359.3072180393501,right,1,1,0.6719215062330477,W08E03,2022-09-02_10h30.13.106,t1_Paradigm,2021.1.4,59.96037509380557,
X,left,Distractor,0,46,46,46,360.80721707694465,362.809036022838,left,1,1,0.4979256958758924,W08E03,2022-09-02_10h30.13.106,t1_Paradigm,2021.1.4,59.96037509380557,
Z,left,Distractor,0,47,47,47,364.307329678355,366.30901805794565,left,1,1,0.5982541968987789,W08E03,2022-09-02_10h30.13.106,t1_Paradigm,2021.1.4,59.96037509380557,
H,left,Pretarget,0,48,48,48,367.80722734259325,369.8075956229877,left,1,1,0.5236068382218946,W08E03,2022-09-02_10h30.13.106,t1_Paradigm,2021.1.4,59.96037509380557,
H,right,Target,0,49,49,49,371.3071474629396,373.3069299593626,right,1,1,0.6721829596499447,W08E03,2022-09-02_10h30.13.106,t1_Paradigm,2021.1.4,59.96037509380557,
K,left,Distractor,0,50,50,50,374.8071782599145,376.80896833367296,left,1,1,0.7062245162960608,W08E03,2022-09-02_10h30.13.106,t1_Paradigm,2021.1.4,59.96037509380557,
V,left,Pretarget,0,51,51,51,378.30710832512705,380.3088281433156,left,1,1,0.8383117486955598,W08E03,2022-09-02_10h30.13.106,t1_Paradigm,2021.1.4,59.96037509380557,
V,right,Target,0,52,52,52,381.8071490669681,383.80727129243314,right,1,1,0.6518290511448868,W08E03,2022-09-02_10h30.13.106,t1_Paradigm,2021.1.4,59.96037509380557,
R,left,Distractor,0,53,53,53,385.3071179491817,387.3088088952063,right,0,1,1.3262617934960872,W08E03,2022-09-02_10h30.13.106,t1_Paradigm,2021.1.4,59.96037509380557,
V,left,Lure,0,54,54,54,388.8070547512616,390.8093301980407,left,1,1,0.4657778319378849,W08E03,2022-09-02_10h30.13.106,t1_Paradigm,2021.1.4,59.96037509380557,
Y,left,Distractor,0,55,55,55,392.3072908613249,394.30757412928506,right,0,1,0.6959088153380435,W08E03,2022-09-02_10h30.13.106,t1_Paradigm,2021.1.4,59.96037509380557,
Q,left,Distractor,0,56,56,56,395.80704095677356,397.80859524125117,left,1,1,0.6184916543425061,W08E03,2022-09-02_10h30.13.106,t1_Paradigm,2021.1.4,59.96037509380557,
Z,left,Pretarget,0,57,57,57,399.307191733591,401.30883006812655,left,1,1,0.5583586499269586,W08E03,2022-09-02_10h30.13.106,t1_Paradigm,2021.1.4,59.96037509380557,
Z,right,Target,0,58,58,58,402.80688536792877,404.80718307194184,right,1,1,0.6599966636567842,W08E03,2022-09-02_10h30.13.106,t1_Paradigm,2021.1.4,59.96037509380557,
B,left,Distractor,0,59,59,59,406.3071901295916,408.3236867178639,left,1,1,0.5833805446745828,W08E03,2022-09-02_10h30.13.106,t1_Paradigm,2021.1.4,59.96037509380557,
S,left,Pretarget,0,60,60,60,409.8071266108309,411.8075192721735,left,1,1,1.0195098790863995,W08E03,2022-09-02_10h30.13.106,t1_Paradigm,2021.1.4,59.96037509380557,
S,right,Target,0,61,61,61,413.306634500972,415.3070897186408,right,1,1,0.6240922112483531,W08E03,2022-09-02_10h30.13.106,t1_Paradigm,2021.1.4,59.96037509380557,
T,left,Distractor,0,62,62,62,416.8067759745172,418.8090645741904,left,1,1,0.7860168934275862,W08E03,2022-09-02_10h30.13.106,t1_Paradigm,2021.1.4,59.96037509380557,
D,left,Distractor,0,63,63,63,420.30685553335934,422.308858619479,left,1,1,0.5822253375663422,W08E03,2022-09-02_10h30.13.106,t1_Paradigm,2021.1.4,59.96037509380557,
R,left,Distractor,0,0,0,0,440.5491253340442,442.54224798618816,left,1,1,1.0848231901181862,W08E03,2022-09-02_10h30.13.106,t1_Paradigm,2021.1.4,59.96037509380557,
V,left,Distractor,0,1,1,1,444.0403388949926,446.04204812669195,left,1,1,0.6250931126996875,W08E03,2022-09-02_10h30.13.106,t1_Paradigm,2021.1.4,59.96037509380557,
N,left,Pretarget,0,2,2,2,447.5403591054783,449.54174400662305,left,1,1,0.645382540038554,W08E03,2022-09-02_10h30.13.106,t1_Paradigm,2021.1.4,59.96037509380557,
N,right,Target,0,3,3,3,451.040137431497,453.0403578222904,right,1,1,0.4267952867958229,W08E03,2022-09-02_10h30.13.106,t1_Paradigm,2021.1.4,59.96037509380557,
S,left,Distractor,0,4,4,4,454.5404386643204,456.54191723957774,left,1,1,0.5729599414917175,W08E03,2022-09-02_10h30.13.106,t1_Paradigm,2021.1.4,59.96037509380557,
N,left,Lure,0,5,5,5,458.0403597471013,460.04218607145594,left,1,1,0.5289953451429028,W08E03,2022-09-02_10h30.13.106,t1_Paradigm,2021.1.4,59.96037509380557,
Z,left,Distractor,0,6,6,6,461.5403696919384,463.5404816517548,left,1,1,0.518508656823542,W08E03,2022-09-02_10h30.13.106,t1_Paradigm,2021.1.4,59.96037509380557,
L,left,Pretarget,0,7,7,7,465.0403228548821,467.04208951012697,left,1,1,0.6169466731371358,W08E03,2022-09-02_10h30.13.106,t1_Paradigm,2021.1.4,59.96037509380557,
L,right,Target,0,8,8,8,468.54035140623455,470.54019421339035,right,1,1,0.6227692248648964,W08E03,2022-09-02_10h30.13.106,t1_Paradigm,2021.1.4,59.96037509380557,
H,left,Distractor,0,9,9,9,472.04045117559144,474.04162049797014,left,1,1,0.6096153908001725,W08E03,2022-09-02_10h30.13.106,t1_Paradigm,2021.1.4,59.96037509380557,
L,left,Lure,0,10,10,10,475.5404871053761,477.5421504624537,left,1,1,0.5008360093343072,W08E03,2022-09-02_10h30.13.106,t1_Paradigm,2021.1.4,59.96037509380557,
X,left,Pretarget,0,11,11,11,479.0404065841576,481.0421883170493,left,1,1,0.8729410141822882,W08E03,2022-09-02_10h30.13.106,t1_Paradigm,2021.1.4,59.96037509380557,
X,right,Target,0,12,12,12,482.5401874765521,484.5403552558564,right,1,1,0.7026661833224352,W08E03,2022-09-02_10h30.13.106,t1_Paradigm,2021.1.4,59.96037509380557,
X,right,Target,0,13,13,13,486.0403170804493,488.04002675486845,right,1,1,0.6112453844689298,W08E03,2022-09-02_10h30.13.106,t1_Paradigm,2021.1.4,59.96037509380557,
R,left,Distractor,0,14,14,14,489.5401993462292,491.5409577215614,left,1,1,0.6939974784909282,W08E03,2022-09-02_10h30.13.106,t1_Paradigm,2021.1.4,59.96037509380557,
T,left,Distractor,0,15,15,15,493.04017079487676,495.04204395625857,left,1,1,0.9529781630262733,W08E03,2022-09-02_10h30.13.106,t1_Paradigm,2021.1.4,59.96037509380557,
V,left,Pretarget,0,16,16,16,496.54030168199097,498.5406664335751,left,1,1,0.5583124544937164,W08E03,2022-09-02_10h30.13.106,t1_Paradigm,2021.1.4,59.96037509380557,
V,right,Target,0,17,17,17,500.0399876170559,502.04041909542866,right,1,1,0.7226684931083582,W08E03,2022-09-02_10h30.13.106,t1_Paradigm,2021.1.4,59.96037509380557,
N,left,Distractor,0,18,18,18,503.5404017721303,505.54220692356466,left,1,1,0.5327763145614881,W08E03,2022-09-02_10h30.13.106,t1_Paradigm,2021.1.4,59.96037509380557,
B,left,Distractor,0,19,19,19,507.0403084188001,509.0419852495543,left,1,1,0.7929317750968039,W08E03,2022-09-02_10h30.13.106,t1_Paradigm,2021.1.4,59.96037509380557,
V,left,Lure,0,20,20,20,510.5403302333434,512.5415653200762,left,1,1,0.7975824380118866,W08E03,2022-09-02_10h30.13.106,t1_Paradigm,2021.1.4,59.96037509380557,
P,left,Distractor,0,21,21,21,514.0404300026712,516.041949640552,left,1,1,0.4815802052326035,W08E03,2022-09-02_10h30.13.106,t1_Paradigm,2021.1.4,59.96037509380557,
K,left,Pretarget,0,22,22,22,517.5402968699636,519.5419557357964,left,1,1,0.4690079847641755,W08E03,2022-09-02_10h30.13.106,t1_Paradigm,2021.1.4,59.96037509380557,
K,right,Target,0,23,23,23,521.0402622233669,523.0403607095068,right,1,1,0.6346058469207492,W08E03,2022-09-02_10h30.13.106,t1_Paradigm,2021.1.4,59.96037509380557,
J,left,Pretarget,0,24,24,24,524.5402189151209,526.5406843984674,left,1,1,0.5740772939752787,W08E03,2022-09-02_10h30.13.106,t1_Paradigm,2021.1.4,59.96037509380557,
J,right,Target,0,25,25,25,528.0402554865286,530.0402420128521,right,1,1,0.6110477705660742,W08E03,2022-09-02_10h30.13.106,t1_Paradigm,2021.1.4,59.96037509380557,
H,left,Distractor,0,26,26,26,531.5403026443964,533.5409500223177,left,1,1,1.206143995077582,W08E03,2022-09-02_10h30.13.106,t1_Paradigm,2021.1.4,59.96037509380557,
J,left,Lure,0,27,27,27,535.0403892608592,537.0410003881843,left,1,1,0.8740721611247864,W08E03,2022-09-02_10h30.13.106,t1_Paradigm,2021.1.4,59.96037509380557,
V,left,Distractor,0,28,28,28,538.5402670353942,540.5409869145078,left,1,1,0.6860948482353706,W08E03,2022-09-02_10h30.13.106,t1_Paradigm,2021.1.4,59.96037509380557,
Z,left,Pretarget,0,29,29,29,542.0403472358303,544.0418614200607,left,1,1,0.6094277217634954,W08E03,2022-09-02_10h30.13.106,t1_Paradigm,2021.1.4,59.96037509380557,
Z,right,Target,0,30,30,30,545.5404123585904,547.5405307344336,right,1,1,0.614438965858426,W08E03,2022-09-02_10h30.13.106,t1_Paradigm,2021.1.4,59.96037509380557,
T,left,Distractor,0,31,31,31,549.0403494814236,551.0400103940046,left,1,1,0.6189808770141099,W08E03,2022-09-02_10h30.13.106,t1_Paradigm,2021.1.4,59.96037509380557,
Z,left,Lure,0,32,32,32,552.5403295917204,554.5412451599259,left,1,1,0.8139195878466126,W08E03,2022-09-02_10h30.13.106,t1_Paradigm,2021.1.4,59.96037509380557,
F,left,Distractor,0,33,33,33,556.0403915064526,558.0417144928651,left,1,1,0.6573516532371286,W08E03,2022-09-02_10h30.13.106,t1_Paradigm,2021.1.4,59.96037509380557,
Y,left,Pretarget,0,34,34,34,559.5401800981199,561.5417574802996,left,1,1,0.6293167885160074,W08E03,2022-09-02_10h30.13.106,t1_Paradigm,2021.1.4,59.96037509380557,
Y,right,Target,0,35,35,35,563.040202554228,565.0403690503445,right,1,1,0.6829343094432261,W08E03,2022-09-02_10h30.13.106,t1_Paradigm,2021.1.4,59.96037509380557,
Y,right,Target,0,36,36,36,566.5403145140444,568.5400103940046,right,1,1,0.6549260712345131,W08E03,2022-09-02_10h30.13.106,t1_Paradigm,2021.1.4,59.96037509380557,
W,left,Distractor,0,37,37,37,570.0401791357144,572.0420981717762,left,1,1,0.65689803956775,W08E03,2022-09-02_10h30.13.106,t1_Paradigm,2021.1.4,59.96037509380557,
Q,left,Distractor,0,38,38,38,573.5402474664734,575.541529711074,left,1,1,0.5492584667517804,W08E03,2022-09-02_10h30.13.106,t1_Paradigm,2021.1.4,59.96037509380557,
P,left,Pretarget,0,39,39,39,577.0403161180438,579.0419457909302,left,1,1,0.6813017493404914,W08E03,2022-09-02_10h30.13.106,t1_Paradigm,2021.1.4,59.96037509380557,
P,right,Target,0,40,40,40,580.5403170804493,582.5402946243412,right,1,1,0.6227118013193831,W08E03,2022-09-02_10h30.13.106,t1_Paradigm,2021.1.4,59.96037509380557,
J,left,Distractor,0,41,41,41,584.0400537022215,586.0407844886067,left,1,1,0.6422778207343072,W08E03,2022-09-02_10h30.13.106,t1_Paradigm,2021.1.4,59.96037509380557,
P,left,Lure,0,42,42,42,587.5402259727707,589.54189831228,left,1,1,0.6133514479442965,W08E03,2022-09-02_10h30.13.106,t1_Paradigm,2021.1.4,59.96037509380557,
L,left,Distractor,0,43,43,43,591.039958103298,593.0410927790799,left,1,1,0.7620019953756128,W08E03,2022-09-02_10h30.13.106,t1_Paradigm,2021.1.4,59.96037509380557,
Z,left,Distractor,0,44,44,44,594.5402676769882,596.5418354351423,left,1,1,0.7011375629808754,W08E03,2022-09-02_10h30.13.106,t1_Paradigm,2021.1.4,59.96037509380557,
F,left,Pretarget,0,45,45,45,598.0400517774106,600.0417985429231,left,1,1,0.5453334573830944,W08E03,2022-09-02_10h30.13.106,t1_Paradigm,2021.1.4,59.96037509380557,
F,right,Target,0,46,46,46,601.5402407296351,603.5403186844778,right,1,1,0.5505897940020077,W08E03,2022-09-02_10h30.13.106,t1_Paradigm,2021.1.4,59.96037509380557,
G,left,Pretarget,0,47,47,47,605.0402667145827,607.0419002370909,left,1,1,0.5051222415058874,W08E03,2022-09-02_10h30.13.106,t1_Paradigm,2021.1.4,59.96037509380557,
G,right,Target,0,48,48,48,608.5560947520135,610.5401586043881,right,1,1,0.5906085288443137,W08E03,2022-09-02_10h30.13.106,t1_Paradigm,2021.1.4,59.96037509380557,
V,left,Distractor,0,49,49,49,612.0402481080964,614.042197941104,left,1,1,0.464883757464122,W08E03,2022-09-02_10h30.13.106,t1_Paradigm,2021.1.4,59.96037509380557,
G,left,Lure,0,50,50,50,615.5402192359325,617.541502122127,left,1,1,0.7735322518274188,W08E03,2022-09-02_10h30.13.106,t1_Paradigm,2021.1.4,59.96037509380557,
Q,left,Pretarget,0,51,51,51,619.0404579124297,621.0416201771586,left,1,1,0.6332738780765794,W08E03,2022-09-02_10h30.13.106,t1_Paradigm,2021.1.4,59.96037509380557,
Q,right,Target,0,52,52,52,622.5402952659351,624.5400880280067,right,1,1,0.558788845082745,W08E03,2022-09-02_10h30.13.106,t1_Paradigm,2021.1.4,59.96037509380557,
Y,left,Distractor,0,53,53,53,626.0402015918226,628.0408881075855,left,1,1,0.5462159829912707,W08E03,2022-09-02_10h30.13.106,t1_Paradigm,2021.1.4,59.96037509380557,
V,left,Distractor,0,54,54,54,629.540190042957,631.5421857506444,left,1,1,0.7090620077797212,W08E03,2022-09-02_10h30.13.106,t1_Paradigm,2021.1.4,59.96037509380557,
B,left,Distractor,0,55,55,55,633.040165020444,635.0407267442788,left,1,1,0.7623112482542638,W08E03,2022-09-02_10h30.13.106,t1_Paradigm,2021.1.4,59.96037509380557,
J,left,Pretarget,0,56,56,56,636.5401698324713,638.5403308749374,left,1,1,0.7025702636165079,W08E03,2022-09-02_10h30.13.106,t1_Paradigm,2021.1.4,59.96037509380557,
J,right,Target,0,57,57,57,640.0403141932329,642.0402840378811,right,1,1,1.106666581123136,W08E03,2022-09-02_10h30.13.106,t1_Paradigm,2021.1.4,59.96037509380557,
H,left,Distractor,0,58,58,58,643.5401027849002,645.5402516369068,left,1,1,0.8706135974789504,W08E03,2022-09-02_10h30.13.106,t1_Paradigm,2021.1.4,59.96037509380557,
J,left,Lure,0,59,59,59,647.0402362384193,649.04216906894,left,1,1,0.6812558746896684,W08E03,2022-09-02_10h30.13.106,t1_Paradigm,2021.1.4,59.96037509380557,
D,left,Pretarget,0,60,60,60,650.5402577321511,652.5421302519389,left,1,1,0.5566968968778383,W08E03,2022-09-02_10h30.13.106,t1_Paradigm,2021.1.4,59.96037509380557,
D,right,Target,0,61,61,61,654.0402811506647,656.0402442584746,right,1,1,0.5945842248911504,W08E03,2022-09-02_10h30.13.106,t1_Paradigm,2021.1.4,59.96037509380557,
R,left,Distractor,0,62,62,62,657.5401759276865,659.5417356657854,left,1,1,0.5971663581731264,W08E03,2022-09-02_10h30.13.106,t1_Paradigm,2021.1.4,59.96037509380557,
F,left,Distractor,0,63,63,63,661.0402506745013,663.041828698304,left,1,1,0.6651933311659377,W08E03,2022-09-02_10h30.13.106,t1_Paradigm,2021.1.4,59.96037509380557,
F,left,Distractor,0,0,0,0,811.0696547210973,813.0734068183228,None,0,2,,W08E03,2022-09-02_10h30.13.106,t1_Paradigm,2021.1.4,59.96037509380557,
N,left,Pretarget,0,1,1,1,814.5734132343787,816.5741632688441,None,0,2,,W08E03,2022-09-02_10h30.13.106,t1_Paradigm,2021.1.4,59.96037509380557,
V,left,Distractor,0,2,2,2,818.0731562721776,820.0736564020917,left,1,2,1.0891344448318705,W08E03,2022-09-02_10h30.13.106,t1_Paradigm,2021.1.4,59.96037509380557,
N,right,Target,0,3,3,3,821.5734206128109,823.5753598593874,right,1,2,0.8034232754434925,W08E03,2022-09-02_10h30.13.106,t1_Paradigm,2021.1.4,59.96037509380557,
N,left,Lure,0,4,4,4,825.073101415066,827.0732942169125,None,0,2,,W08E03,2022-09-02_10h30.13.106,t1_Paradigm,2021.1.4,59.96037509380557,
X,left,Distractor,0,5,5,5,828.5731870691234,830.5736830286332,left,1,2,1.2450261292979121,W08E03,2022-09-02_10h30.13.106,t1_Paradigm,2021.1.4,59.96037509380557,
G,left,Pretarget,0,6,6,6,832.0732974249404,834.0752687516797,left,1,2,0.9757813928590622,W08E03,2022-09-02_10h30.13.106,t1_Paradigm,2021.1.4,59.96037509380557,
H,left,Pretarget,0,7,7,7,835.5733449035906,837.573061956442,left,1,2,0.8216990302025806,W08E03,2022-09-02_10h30.13.106,t1_Paradigm,2021.1.4,59.96037509380557,
G,right,Target,0,8,8,8,839.0733519612404,841.075150055025,right,1,2,0.6480153599986807,W08E03,2022-09-02_10h30.13.106,t1_Paradigm,2021.1.4,59.96037509380557,
H,right,Target,0,9,9,9,842.5735729936277,844.5745472685376,right,1,2,1.2922536002006382,W08E03,2022-09-02_10h30.13.106,t1_Paradigm,2021.1.4,59.96037509380557,
T,left,Pretarget,0,10,10,10,846.0729323525447,848.0749235689873,left,1,2,0.6718974461255129,W08E03,2022-09-02_10h30.13.106,t1_Paradigm,2021.1.4,59.96037509380557,
K,left,Distractor,0,11,11,11,849.5732768936141,851.5754872176622,left,1,2,1.1233280614833347,W08E03,2022-09-02_10h30.13.106,t1_Paradigm,2021.1.4,59.96037509380557,
T,right,Target,0,12,12,12,853.0731209839869,855.0749973533966,right,1,2,0.7918266130727716,W08E03,2022-09-02_10h30.13.106,t1_Paradigm,2021.1.4,59.96037509380557,
T,left,Lure,0,13,13,13,856.5733805125928,858.5733740965661,left,1,2,1.2776327397441491,W08E03,2022-09-02_10h30.13.106,t1_Paradigm,2021.1.4,59.96037509380557,
J,left,Distractor,0,14,14,14,860.073376021377,862.0743573539075,left,1,2,0.8003580147633329,W08E03,2022-09-02_10h30.13.106,t1_Paradigm,2021.1.4,59.96037509380557,
Q,left,Pretarget,0,15,15,15,863.5734132343787,865.575708570861,left,1,2,0.9792046683141962,W08E03,2022-09-02_10h30.13.106,t1_Paradigm,2021.1.4,59.96037509380557,
M,left,Distractor,0,16,16,16,867.073308973806,869.0761445404496,left,1,2,0.822694798844168,W08E03,2022-09-02_10h30.13.106,t1_Paradigm,2021.1.4,59.96037509380557,
Q,right,Target,0,17,17,17,870.5732951793179,872.5752187065955,right,1,2,0.7154870251542889,W08E03,2022-09-02_10h30.13.106,t1_Paradigm,2021.1.4,59.96037509380557,
R,left,Distractor,0,18,18,18,874.0732021468284,876.074086276436,left,1,2,0.7046586829819717,W08E03,2022-09-02_10h30.13.106,t1_Paradigm,2021.1.4,59.96037509380557,
W,left,Distractor,0,19,19,19,877.5732967833464,879.5743509378808,left,1,2,0.772415220097173,W08E03,2022-09-02_10h30.13.106,t1_Paradigm,2021.1.4,59.96037509380557,
C,left,Pretarget,0,20,20,20,881.0734193295939,883.0752774133289,left,1,2,0.8874345163349062,W08E03,2022-09-02_10h30.13.106,t1_Paradigm,2021.1.4,59.96037509380557,
T,left,Distractor,0,21,21,21,884.5733176354552,886.5754711775808,left,1,2,0.6672419711248949,W08E03,2022-09-02_10h30.13.106,t1_Paradigm,2021.1.4,59.96037509380557,
C,right,Target,0,22,22,22,888.0733015953738,890.075231538678,right,1,2,0.6235243921400979,W08E03,2022-09-02_10h30.13.106,t1_Paradigm,2021.1.4,59.96037509380557,
F,left,Pretarget,0,23,23,23,891.5729560918699,893.574548230943,left,1,2,0.8524494817538653,W08E03,2022-09-02_10h30.13.106,t1_Paradigm,2021.1.4,59.96037509380557,
C,right,Target,0,24,24,24,895.0732306981809,897.0751866264327,right,1,2,0.887510225555161,W08E03,2022-09-02_10h30.13.106,t1_Paradigm,2021.1.4,59.96037509380557,
F,right,Target,0,25,25,25,898.5732579663163,900.5733962318627,right,1,2,0.8933876343653537,W08E03,2022-09-02_10h30.13.106,t1_Paradigm,2021.1.4,59.96037509380557,
H,left,Distractor,0,26,26,26,902.0733022369677,904.0734488433518,left,1,2,0.7852293251198716,W08E03,2022-09-02_10h30.13.106,t1_Paradigm,2021.1.4,59.96037509380557,
H,left,Lure,0,27,27,27,905.5733356003475,907.573377946188,left,1,2,0.8212973864283413,W08E03,2022-09-02_10h30.13.106,t1_Paradigm,2021.1.4,59.96037509380557,
P,left,Distractor,0,28,28,28,909.073335921159,911.074974576477,left,1,2,0.9676891687850002,W08E03,2022-09-02_10h30.13.106,t1_Paradigm,2021.1.4,59.96037509380557,
G,left,Pretarget,0,29,29,29,912.5732432094519,914.5745732534851,left,1,2,0.6680750932719093,W08E03,2022-09-02_10h30.13.106,t1_Paradigm,2021.1.4,59.96037509380557,
K,left,Distractor,0,30,30,30,916.073268873588,918.0757701648108,left,1,2,0.7028965189820156,W08E03,2022-09-02_10h30.13.106,t1_Paradigm,2021.1.4,59.96037509380557,
G,right,Target,0,31,31,31,919.5731668586377,921.5753531225491,right,1,2,0.6274628752144054,W08E03,2022-09-02_10h30.13.106,t1_Paradigm,2021.1.4,59.96037509380557,
M,left,Pretarget,0,32,32,32,923.0733282219153,925.0749995990191,left,1,2,0.7759636082628276,W08E03,2022-09-02_10h30.13.106,t1_Paradigm,2021.1.4,59.96037509380557,
B,left,Distractor,0,33,33,33,926.5732441718574,928.5746816844912,left,1,2,1.0200084050011355,W08E03,2022-09-02_10h30.13.106,t1_Paradigm,2021.1.4,59.96037509380557,
M,right,Target,0,34,34,34,930.0732056756387,932.0750724210229,right,1,2,0.5118148075707722,W08E03,2022-09-02_10h30.13.106,t1_Paradigm,2021.1.4,59.96037509380557,
M,left,Lure,0,35,35,35,933.5733548484568,935.5734071391344,left,1,2,1.04518620937597,W08E03,2022-09-02_10h30.13.106,t1_Paradigm,2021.1.4,59.96037509380557,
T,left,Distractor,0,36,36,36,937.0733439411852,939.0752501451643,left,1,2,0.6315020900219679,W08E03,2022-09-02_10h30.13.106,t1_Paradigm,2021.1.4,59.96037509380557,
F,left,Distractor,0,37,37,37,940.5730064577656,942.5753463857109,left,1,2,0.6512355679296888,W08E03,2022-09-02_10h30.13.106,t1_Paradigm,2021.1.4,59.96037509380557,
X,left,Distractor,0,38,38,38,944.0732127332885,946.0753069270868,left,1,2,0.9277515967842191,W08E03,2022-09-02_10h30.13.106,t1_Paradigm,2021.1.4,59.96037509380557,
C,left,Distractor,0,39,39,39,947.5734007231076,949.5736868782551,left,1,2,0.7410783430095762,W08E03,2022-09-02_10h30.13.106,t1_Paradigm,2021.1.4,59.96037509380557,
R,left,Distractor,0,40,40,40,951.0733526028343,953.075302435871,left,1,2,0.6153615917137358,W08E03,2022-09-02_10h30.13.106,t1_Paradigm,2021.1.4,59.96037509380557,
B,left,Pretarget,0,41,41,41,954.5733099362114,956.5752199898125,left,1,2,0.6194129969808273,W08E03,2022-09-02_10h30.13.106,t1_Paradigm,2021.1.4,59.96037509380557,
H,left,Distractor,0,42,42,42,958.0731120015262,960.0735614447913,left,1,2,0.5932224214775488,W08E03,2022-09-02_10h30.13.106,t1_Paradigm,2021.1.4,59.96037509380557,
B,right,Target,0,43,43,43,961.5732088836667,963.5747917194676,right,1,2,0.43583515923819505,W08E03,2022-09-02_10h30.13.106,t1_Paradigm,2021.1.4,59.96037509380557,
W,left,Pretarget,0,44,44,44,965.073213054071,967.073989715107,left,1,2,0.6166451195022091,W08E03,2022-09-02_10h30.13.106,t1_Paradigm,2021.1.4,59.96037509380557,
L,left,Pretarget,0,45,45,45,968.5734623170283,970.5737266576907,left,1,2,0.5728803826496005,W08E03,2022-09-02_10h30.13.106,t1_Paradigm,2021.1.4,59.96037509380557,
W,right,Target,0,46,46,46,972.0731280416076,974.0743005720142,right,1,2,0.7044241769181099,W08E03,2022-09-02_10h30.13.106,t1_Paradigm,2021.1.4,59.96037509380557,
L,right,Target,0,47,47,47,975.5732756104262,977.5750708169944,right,1,2,0.9797330287692603,W08E03,2022-09-02_10h30.13.106,t1_Paradigm,2021.1.4,59.96037509380557,
W,right,Target,0,48,48,48,979.0731918811507,981.0754682903644,right,1,2,0.6475550094910432,W08E03,2022-09-02_10h30.13.106,t1_Paradigm,2021.1.4,59.96037509380557,
X,left,Distractor,0,49,49,49,982.5731116807146,984.5739014946157,left,1,2,0.6046413596777711,W08E03,2022-09-02_10h30.13.106,t1_Paradigm,2021.1.4,59.96037509380557,
R,left,Distractor,0,50,50,50,986.0730796005519,988.073909514671,left,1,2,0.8649918676819652,W08E03,2022-09-02_10h30.13.106,t1_Paradigm,2021.1.4,59.96037509380557,
V,left,Pretarget,0,51,51,51,989.573268873588,991.5737279408786,left,1,2,0.7570106409839354,W08E03,2022-09-02_10h30.13.106,t1_Paradigm,2021.1.4,59.96037509380557,
Z,left,Distractor,0,52,52,52,993.0732473798562,995.0746720604366,left,1,2,1.1121359301323537,W08E03,2022-09-02_10h30.13.106,t1_Paradigm,2021.1.4,59.96037509380557,
V,right,Target,0,53,53,53,996.5731950891786,998.5753409320605,right,1,2,0.5232103272574022,W08E03,2022-09-02_10h30.13.106,t1_Paradigm,2021.1.4,59.96037509380557,
V,left,Lure,0,54,54,54,1000.0732602119388,1002.073199259612,left,1,2,0.9777023537026253,W08E03,2022-09-02_10h30.13.106,t1_Paradigm,2021.1.4,59.96037509380557,
N,left,Distractor,0,55,55,55,1003.5732634199667,1005.5739008530218,left,1,2,0.6770046099263709,W08E03,2022-09-02_10h30.13.106,t1_Paradigm,2021.1.4,59.96037509380557,
B,left,Distractor,0,56,56,56,1007.0731553097721,1009.0750669673725,left,1,2,0.6155322582344525,W08E03,2022-09-02_10h30.13.106,t1_Paradigm,2021.1.4,59.96037509380557,
V,left,Lure,0,57,57,57,1010.5731845027185,1012.575054776913,left,1,2,0.5713867297163233,W08E03,2022-09-02_10h30.13.106,t1_Paradigm,2021.1.4,59.96037509380557,
J,left,Distractor,0,58,58,58,1014.0731553097721,1016.0754047716327,left,1,2,0.6072870116913691,W08E03,2022-09-02_10h30.13.106,t1_Paradigm,2021.1.4,59.96037509380557,
H,left,Distractor,0,59,59,59,1017.5731604425819,1019.5747612433042,left,1,2,0.7718688947206829,W08E03,2022-09-02_10h30.13.106,t1_Paradigm,2021.1.4,59.96037509380557,
X,left,Pretarget,0,60,60,60,1021.0728191095404,1023.0738135949359,left,1,2,0.6969389097066596,W08E03,2022-09-02_10h30.13.106,t1_Paradigm,2021.1.4,59.96037509380557,
P,left,Distractor,0,61,61,61,1024.5731479313108,1026.575108671619,left,1,2,0.587500280700624,W08E03,2022-09-02_10h30.13.106,t1_Paradigm,2021.1.4,59.96037509380557,
X,right,Target,0,62,62,62,1028.0731059062819,1030.0752097241639,right,1,2,0.7992974441731349,W08E03,2022-09-02_10h30.13.106,t1_Paradigm,2021.1.4,59.96037509380557,
Q,left,Distractor,0,63,63,63,1031.5728447736765,1033.5858856855193,left,1,2,0.5687991428130772,W08E03,2022-09-02_10h30.13.106,t1_Paradigm,2021.1.4,59.96037509380557,
B,left,Pretarget,0,0,0,0,1043.9333932163427,1045.9250558997155,None,0,2,,W08E03,2022-09-02_10h30.13.106,t1_Paradigm,2021.1.4,59.96037509380557,
F,left,Distractor,0,1,1,1,1047.4227676208538,1049.4250228571473,None,0,2,,W08E03,2022-09-02_10h30.13.106,t1_Paradigm,2021.1.4,59.96037509380557,
B,right,Target,0,2,2,2,1050.9231554701691,1052.935978878435,right,1,2,0.8667129690584261,W08E03,2022-09-02_10h30.13.106,t1_Paradigm,2021.1.4,59.96037509380557,
V,left,Distractor,0,3,3,3,1054.4231663774117,1056.4236418056244,left,1,2,0.5470446138933767,W08E03,2022-09-02_10h30.13.106,t1_Paradigm,2021.1.4,59.96037509380557,
G,left,Pretarget,0,4,4,4,1057.9231063874904,1059.9243363413843,left,1,2,0.9023238878580742,W08E03,2022-09-02_10h30.13.106,t1_Paradigm,2021.1.4,59.96037509380557,
B,left,Lure,0,5,5,5,1061.4230637208675,1063.4250090626592,left,1,2,0.9535562477831263,W08E03,2022-09-02_10h30.13.106,t1_Paradigm,2021.1.4,59.96037509380557,
G,right,Target,0,6,6,6,1064.9231978160096,1066.924932070251,right,1,2,0.6377134534704965,W08E03,2022-09-02_10h30.13.106,t1_Paradigm,2021.1.4,59.96037509380557,
Y,left,Pretarget,0,7,7,7,1068.423226367362,1070.4252393983188,left,1,2,0.5454598532814998,W08E03,2022-09-02_10h30.13.106,t1_Paradigm,2021.1.4,59.96037509380557,
P,left,Distractor,0,8,8,8,1071.9232215553347,1073.9251838996133,left,1,2,0.6455012366932351,W08E03,2022-09-02_10h30.13.106,t1_Paradigm,2021.1.4,59.96037509380557,
Y,right,Target,0,9,9,9,1075.4232706379844,1077.423648221651,right,1,2,0.5548660813074093,W08E03,2022-09-02_10h30.13.106,t1_Paradigm,2021.1.4,59.96037509380557,
X,left,Distractor,0,10,10,10,1078.9232186681184,1080.9235606427828,left,1,2,0.5591260077198967,W08E03,2022-09-02_10h30.13.106,t1_Paradigm,2021.1.4,59.96037509380557,
Y,right,Target,0,11,11,11,1082.4230945178424,1084.4249080101145,right,1,2,0.705447534477571,W08E03,2022-09-02_10h30.13.106,t1_Paradigm,2021.1.4,59.96037509380557,
N,left,Distractor,0,12,12,12,1085.9228920919413,1087.9252153381822,left,1,2,0.5173271439853124,W08E03,2022-09-02_10h30.13.106,t1_Paradigm,2021.1.4,59.96037509380557,
Y,right,Target,0,13,13,13,1089.4231827383046,1091.4251418745844,right,1,2,0.6175690285163,W08E03,2022-09-02_10h30.13.106,t1_Paradigm,2021.1.4,59.96037509380557,
Y,left,Lure,0,14,14,14,1092.9231865879265,1094.923092913814,left,1,2,1.0075173473451287,W08E03,2022-09-02_10h30.13.106,t1_Paradigm,2021.1.4,59.96037509380557,
K,left,Distractor,0,15,15,15,1096.423066608084,1098.4251835788018,left,1,2,0.9295211392163765,W08E03,2022-09-02_10h30.13.106,t1_Paradigm,2021.1.4,59.96037509380557,
T,left,Pretarget,0,16,16,16,1099.9230845729762,1101.924334737385,left,1,2,0.5821056785061955,W08E03,2022-09-02_10h30.13.106,t1_Paradigm,2021.1.4,59.96037509380557,
J,left,Distractor,0,17,17,17,1103.4229347585642,1105.4231063874904,left,1,2,0.8754387765948195,W08E03,2022-09-02_10h30.13.106,t1_Paradigm,2021.1.4,59.96037509380557,
T,right,Target,0,18,18,18,1106.9230707785173,1108.9393222742365,right,1,2,0.6712750907172449,W08E03,2022-09-02_10h30.13.106,t1_Paradigm,2021.1.4,59.96037509380557,
S,left,Pretarget,0,19,19,19,1110.422996352485,1112.4245285016368,left,1,2,0.9621075391769409,W08E03,2022-09-02_10h30.13.106,t1_Paradigm,2021.1.4,59.96037509380557,
R,left,Distractor,0,20,20,20,1113.9227400319069,1115.9248765715456,left,1,2,0.5336633314145729,W08E03,2022-09-02_10h30.13.106,t1_Paradigm,2021.1.4,59.96037509380557,
S,right,Target,0,21,21,21,1117.4230996506521,1119.424673824833,right,1,2,0.7621315992728341,W08E03,2022-09-02_10h30.13.106,t1_Paradigm,2021.1.4,59.96037509380557,
Q,left,Distractor,0,22,22,22,1120.923145525303,1122.9251040199888,left,1,2,0.7014025452372152,W08E03,2022-09-02_10h30.13.106,t1_Paradigm,2021.1.4,59.96037509380557,
D,left,Distractor,0,23,23,23,1124.4231471293315,1126.4250658445817,left,1,2,0.7694083453388885,W08E03,2022-09-02_10h30.13.106,t1_Paradigm,2021.1.4,59.96037509380557,
F,left,Distractor,0,24,24,24,1127.9230877810041,1129.924840000138,left,1,2,0.5817110923817381,W08E03,2022-09-02_10h30.13.106,t1_Paradigm,2021.1.4,59.96037509380557,
Z,left,Distractor,0,25,25,25,1131.4231490541424,1133.4252711576992,left,1,2,0.5852190594887361,W08E03,2022-09-02_10h30.13.106,t1_Paradigm,2021.1.4,59.96037509380557,
P,left,Distractor,0,26,26,26,1134.9228808638582,1136.923487820779,left,1,2,0.6391233771282714,W08E03,2022-09-02_10h30.13.106,t1_Paradigm,2021.1.4,59.96037509380557,
H,left,Distractor,0,27,27,27,1138.42312916441,1140.4251980148838,left,1,2,0.6574876731901895,W08E03,2022-09-02_10h30.13.106,t1_Paradigm,2021.1.4,59.96037509380557,
Z,left,Pretarget,0,28,28,28,1141.9227336158801,1143.9245278600429,left,1,2,0.6461255168833304,W08E03,2022-09-02_10h30.13.106,t1_Paradigm,2021.1.4,59.96037509380557,
J,left,Pretarget,0,29,29,29,1145.4230877810041,1147.425175879558,left,1,2,0.7134682197938673,W08E03,2022-09-02_10h30.13.106,t1_Paradigm,2021.1.4,59.96037509380557,
Z,right,Target,0,30,30,30,1148.923010788567,1150.9240277301287,right,1,2,0.7504438292235136,W08E03,2022-09-02_10h30.13.106,t1_Paradigm,2021.1.4,59.96037509380557,
J,right,Target,0,31,31,31,1152.4230672496778,1154.4358354800497,right,1,2,1.0306708926800638,W08E03,2022-09-02_10h30.13.106,t1_Paradigm,2021.1.4,59.96037509380557,
V,left,Pretarget,0,32,32,32,1155.9230175254052,1157.9248432081658,left,1,2,0.6298037655651569,W08E03,2022-09-02_10h30.13.106,t1_Paradigm,2021.1.4,59.96037509380557,
Z,left,Lure,0,33,33,33,1159.4231926831708,1161.4248271680844,left,1,2,0.745966078422498,W08E03,2022-09-02_10h30.13.106,t1_Paradigm,2021.1.4,59.96037509380557,
V,right,Target,0,34,34,34,1162.9229671595385,1164.9236931338964,right,1,2,0.8149426246236544,W08E03,2022-09-02_10h30.13.106,t1_Paradigm,2021.1.4,59.96037509380557,
X,left,Distractor,0,35,35,35,1166.4230117509724,1168.4250257443637,left,1,2,0.6415005180751905,W08E03,2022-09-02_10h30.13.106,t1_Paradigm,2021.1.4,59.96037509380557,
S,left,Distractor,0,36,36,36,1169.9230143174063,1171.9237511990068,left,1,2,0.8068173579522409,W08E03,2022-09-02_10h30.13.106,t1_Paradigm,2021.1.4,59.96037509380557,
Q,left,Distractor,0,37,37,37,1173.4229581770778,1175.4236010637833,left,1,2,0.6508448314270936,W08E03,2022-09-02_10h30.13.106,t1_Paradigm,2021.1.4,59.96037509380557,
P,left,Distractor,0,38,38,38,1176.9230156005942,1178.9250366516062,left,1,2,0.9735383470251691,W08E03,2022-09-02_10h30.13.106,t1_Paradigm,2021.1.4,59.96037509380557,
S,left,Lure,0,39,39,39,1180.4229966732964,1182.4242574241653,left,1,2,0.6101241823635064,W08E03,2022-09-02_10h30.13.106,t1_Paradigm,2021.1.4,59.96037509380557,
K,left,Pretarget,0,40,40,40,1183.9230149590003,1185.9234951992112,left,1,2,0.6471017166040838,W08E03,2022-09-02_10h30.13.106,t1_Paradigm,2021.1.4,59.96037509380557,
L,left,Distractor,0,41,41,41,1187.4229203224822,1189.4250546164985,left,1,2,0.617397720401641,W08E03,2022-09-02_10h30.13.106,t1_Paradigm,2021.1.4,59.96037509380557,
K,right,Target,0,42,42,42,1190.9229982772958,1192.9358091742906,right,1,2,0.6107465377426706,W08E03,2022-09-02_10h30.13.106,t1_Paradigm,2021.1.4,59.96037509380557,
B,left,Distractor,0,43,43,43,1194.422997635702,1196.4250068170368,left,1,2,0.641574302513618,W08E03,2022-09-02_10h30.13.106,t1_Paradigm,2021.1.4,59.96037509380557,
N,left,Distractor,0,44,44,44,1197.9230348487035,1199.9252105261548,left,1,2,0.6453940889041405,W08E03,2022-09-02_10h30.13.106,t1_Paradigm,2021.1.4,59.96037509380557,
S,left,Pretarget,0,45,45,45,1201.423062116868,1203.423828191444,left,1,2,0.6990388779668137,W08E03,2022-09-02_10h30.13.106,t1_Paradigm,2021.1.4,59.96037509380557,
Z,left,Distractor,0,46,46,46,1204.922750618367,1206.9244194290368,left,1,2,0.9582438029174227,W08E03,2022-09-02_10h30.13.106,t1_Paradigm,2021.1.4,59.96037509380557,
S,right,Target,0,47,47,47,1208.4228856758855,1210.4251069072052,right,1,2,0.8332462891412433,W08E03,2022-09-02_10h30.13.106,t1_Paradigm,2021.1.4,59.96037509380557,
C,left,Distractor,0,48,48,48,1211.92282151556,1213.9245490329631,left,1,2,0.5338888550177217,W08E03,2022-09-02_10h30.13.106,t1_Paradigm,2021.1.4,59.96037509380557,
T,left,Pretarget,0,49,49,49,1215.4229514402396,1217.4254902652756,left,1,2,0.7931114240782335,W08E03,2022-09-02_10h30.13.106,t1_Paradigm,2021.1.4,59.96037509380557,
S,left,Lure,0,50,50,50,1218.922964913916,1220.9249965513882,left,1,2,0.9895425046270248,W08E03,2022-09-02_10h30.13.106,t1_Paradigm,2021.1.4,59.96037509380557,
T,right,Target,0,51,51,51,1222.4230967634358,1224.4248432081658,right,1,2,0.4655811804695986,W08E03,2022-09-02_10h30.13.106,t1_Paradigm,2021.1.4,59.96037509380557,
N,left,Pretarget,0,52,52,52,1225.9230945178424,1227.9250234987412,left,1,2,0.5975821172178257,W08E03,2022-09-02_10h30.13.106,t1_Paradigm,2021.1.4,59.96037509380557,
B,left,Distractor,0,53,53,53,1229.4227810945304,1231.4242725018412,left,1,2,1.3062649373314343,W08E03,2022-09-02_10h30.13.106,t1_Paradigm,2021.1.4,59.96037509380557,
N,right,Target,0,54,54,54,1232.9227663376369,1234.925055578904,right,1,2,0.46168119364301674,W08E03,2022-09-02_10h30.13.106,t1_Paradigm,2021.1.4,59.96037509380557,
N,left,Lure,0,55,55,55,1236.423060833651,1238.4228760518308,left,1,2,0.9476746685395483,W08E03,2022-09-02_10h30.13.106,t1_Paradigm,2021.1.4,59.96037509380557,
X,left,Distractor,0,56,56,56,1239.9229100568336,1241.924649443914,left,1,2,0.7738998906279448,W08E03,2022-09-02_10h30.13.106,t1_Paradigm,2021.1.4,59.96037509380557,
W,left,Distractor,0,57,57,57,1243.4231570741686,1245.4230403023248,left,1,2,0.6833025898376945,W08E03,2022-09-02_10h30.13.106,t1_Paradigm,2021.1.4,59.96037509380557,
S,left,Distractor,0,58,58,58,1246.9229119816446,1248.9236456552462,left,1,2,0.6867399805632886,W08E03,2022-09-02_10h30.13.106,t1_Paradigm,2021.1.4,59.96037509380557,
L,left,Distractor,0,59,59,59,1250.4229469490238,1252.4235577555664,left,1,2,0.9790169992775191,W08E03,2022-09-02_10h30.13.106,t1_Paradigm,2021.1.4,59.96037509380557,
K,left,Pretarget,0,60,60,60,1253.9226986484719,1255.9248464161647,left,1,2,0.9495414138946217,W08E03,2022-09-02_10h30.13.106,t1_Paradigm,2021.1.4,59.96037509380557,
V,left,Pretarget,0,61,61,61,1257.4229212848877,1259.4251826163963,left,1,2,0.7454537580197211,W08E03,2022-09-02_10h30.13.106,t1_Paradigm,2021.1.4,59.96037509380557,
K,right,Target,0,62,62,62,1260.922939891403,1262.9243241509248,right,1,2,0.41421793345944025,W08E03,2022-09-02_10h30.13.106,t1_Paradigm,2021.1.4,59.96037509380557,
V,right,Target,0,63,63,63,1264.4229985981074,1266.4236719609762,right,1,2,1.0106987382750958,W08E03,2022-09-02_10h30.13.106,t1_Paradigm,2021.1.4,59.96037509380557,
R,left,Distractor,0,0,0,0,1327.6810505615722,1329.6741209230386,None,0,3,,W08E03,2022-09-02_10h30.13.106,t1_Paradigm,2021.1.4,59.96037509380557,
P,left,Lure,0,1,1,1,1331.1726936760533,1333.175038416026,None,0,3,,W08E03,2022-09-02_10h30.13.106,t1_Paradigm,2021.1.4,59.96037509380557,
V,left,Distractor,0,2,2,2,1334.6729977960931,1336.673645494826,None,0,3,,W08E03,2022-09-02_10h30.13.106,t1_Paradigm,2021.1.4,59.96037509380557,
P,left,Pretarget,0,3,3,3,1338.1729625079024,1340.1736891238834,left,1,3,0.7806915844266769,W08E03,2022-09-02_10h30.13.106,t1_Paradigm,2021.1.4,59.96037509380557,
Z,left,Distractor,0,4,4,4,1341.6728341872222,1343.6742806822876,left,1,3,0.6081839733815286,W08E03,2022-09-02_10h30.13.106,t1_Paradigm,2021.1.4,59.96037509380557,
L,left,Pretarget,0,5,5,5,1345.1727921621932,1347.1735899961204,left,1,3,0.7568261799751781,W08E03,2022-09-02_10h30.13.106,t1_Paradigm,2021.1.4,59.96037509380557,
P,right,Target,0,6,6,6,1348.6729291445226,1350.6749659148336,right,1,3,0.7274968801939394,W08E03,2022-09-02_10h30.13.106,t1_Paradigm,2021.1.4,59.96037509380557,
S,left,Distractor,0,7,7,7,1352.1727780469228,1354.1734010438959,left,1,3,0.9248659850563854,W08E03,2022-09-02_10h30.13.106,t1_Paradigm,2021.1.4,59.96037509380557,
L,right,Target,0,8,8,8,1355.672866267385,1357.6748542758287,right,1,3,0.5915651596442331,W08E03,2022-09-02_10h30.13.106,t1_Paradigm,2021.1.4,59.96037509380557,
D,left,Distractor,0,9,9,9,1359.1896916774567,1361.1740978253074,left,1,3,0.6764348660071846,W08E03,2022-09-02_10h30.13.106,t1_Paradigm,2021.1.4,59.96037509380557,
G,left,Distractor,0,10,10,10,1362.6727305682434,1364.6745479101373,left,1,3,0.7918631844804622,W08E03,2022-09-02_10h30.13.106,t1_Paradigm,2021.1.4,59.96037509380557,
M,left,Pretarget,0,11,11,11,1366.172922086902,1368.174763809715,left,1,3,0.6514857932925224,W08E03,2022-09-02_10h30.13.106,t1_Paradigm,2021.1.4,59.96037509380557,
Y,left,Distractor,0,12,12,12,1369.6729942672828,1371.6745373237063,left,1,3,0.9759886307874694,W08E03,2022-09-02_10h30.13.106,t1_Paradigm,2021.1.4,59.96037509380557,
V,left,Distractor,0,13,13,13,1373.173002287338,1375.1747525816609,left,1,3,0.8835544192115776,W08E03,2022-09-02_10h30.13.106,t1_Paradigm,2021.1.4,59.96037509380557,
M,right,Target,0,14,14,14,1376.672771630867,1378.6736288131506,right,1,3,0.984668884484563,W08E03,2022-09-02_10h30.13.106,t1_Paradigm,2021.1.4,59.96037509380557,
S,left,Pretarget,0,15,15,15,1380.1728303376003,1382.1734610338171,left,1,3,0.46078038233099505,W08E03,2022-09-02_10h30.13.106,t1_Paradigm,2021.1.4,59.96037509380557,
Q,left,Distractor,0,16,16,16,1383.6726664078888,1385.6748084011779,left,1,3,0.5594772856275085,W08E03,2022-09-02_10h30.13.106,t1_Paradigm,2021.1.4,59.96037509380557,
R,left,Pretarget,0,17,17,17,1387.1728139767074,1389.1728293751949,left,1,3,0.7415146333514713,W08E03,2022-09-02_10h30.13.106,t1_Paradigm,2021.1.4,59.96037509380557,
S,right,Target,0,18,18,18,1390.6726208540495,1392.6745610630314,left,0,3,0.4875820851593744,W08E03,2022-09-02_10h30.13.106,t1_Paradigm,2021.1.4,59.96037509380557,
F,left,Distractor,0,19,19,19,1394.1726128339942,1396.1739383868407,left,1,3,0.6843105489388108,W08E03,2022-09-02_10h30.13.106,t1_Paradigm,2021.1.4,59.96037509380557,
R,right,Target,0,20,20,20,1397.6729034803866,1399.674802626745,right,1,3,0.5756867563177366,W08E03,2022-09-02_10h30.13.106,t1_Paradigm,2021.1.4,59.96037509380557,
P,left,Distractor,0,21,21,21,1401.1728611345752,1403.1750050526462,left,1,3,0.49927947926335037,W08E03,2022-09-02_10h30.13.106,t1_Paradigm,2021.1.4,59.96037509380557,
L,left,Distractor,0,22,22,22,1404.6729493550374,1406.6748863559915,left,1,3,1.1115912087261677,W08E03,2022-09-02_10h30.13.106,t1_Paradigm,2021.1.4,59.96037509380557,
R,right,Target,0,23,23,23,1408.1727918413817,1410.1730885829893,right,1,3,0.8295339712931309,W08E03,2022-09-02_10h30.13.106,t1_Paradigm,2021.1.4,59.96037509380557,
H,left,Pretarget,0,24,24,24,1411.6728659465734,1413.6748507469893,left,1,3,0.7194004856864922,W08E03,2022-09-02_10h30.13.106,t1_Paradigm,2021.1.4,59.96037509380557,
G,left,Pretarget,0,25,25,25,1415.1725682425604,1417.174681684468,left,1,3,1.4277329902979545,W08E03,2022-09-02_10h30.13.106,t1_Paradigm,2021.1.4,59.96037509380557,
T,left,Distractor,0,26,26,26,1418.672784783732,1420.6745007522986,left,1,3,0.6959107401198708,W08E03,2022-09-02_10h30.13.106,t1_Paradigm,2021.1.4,59.96037509380557,
H,right,Target,0,27,27,27,1422.1725576561003,1424.1750871778931,right,1,3,0.5872686618531588,W08E03,2022-09-02_10h30.13.106,t1_Paradigm,2021.1.4,59.96037509380557,
G,right,Target,0,28,28,28,1425.672838036844,1427.6748273284757,right,1,3,0.5433861907513347,W08E03,2022-09-02_10h30.13.106,t1_Paradigm,2021.1.4,59.96037509380557,
D,left,Distractor,0,29,29,29,1429.172510819044,1431.173958918138,left,1,3,0.6924002066079993,W08E03,2022-09-02_10h30.13.106,t1_Paradigm,2021.1.4,59.96037509380557,
N,left,Pretarget,0,30,30,30,1432.6727517411637,1434.6749296642374,left,1,3,0.8234515701478813,W08E03,2022-09-02_10h30.13.106,t1_Paradigm,2021.1.4,59.96037509380557,
V,left,Distractor,0,31,31,31,1436.1727539867861,1438.17468040128,left,1,3,0.6835797625244595,W08E03,2022-09-02_10h30.13.106,t1_Paradigm,2021.1.4,59.96037509380557,
R,left,Distractor,0,32,32,32,1439.67283547041,1441.6742803615052,left,1,3,0.8801571286749095,W08E03,2022-09-02_10h30.13.106,t1_Paradigm,2021.1.4,59.96037509380557,
N,right,Target,0,33,33,33,1443.1729236909014,1445.1748231580423,right,1,3,1.059875721402932,W08E03,2022-09-02_10h30.13.106,t1_Paradigm,2021.1.4,59.96037509380557,
Z,left,Distractor,0,34,34,34,1446.6725140270719,1448.6746056544653,left,1,3,0.8396847801923286,W08E03,2022-09-02_10h30.13.106,t1_Paradigm,2021.1.4,59.96037509380557,
N,left,Lure,0,35,35,35,1450.1726237412659,1452.174874165532,left,1,3,0.9233338359335903,W08E03,2022-09-02_10h30.13.106,t1_Paradigm,2021.1.4,59.96037509380557,
Y,left,Pretarget,0,36,36,36,1453.672497666179,1455.674985162943,left,1,3,0.7352625281200744,W08E03,2022-09-02_10h30.13.106,t1_Paradigm,2021.1.4,59.96037509380557,
Y,left,Lure,0,37,37,37,1457.1727174153784,1459.1728999515763,left,1,3,0.6297363971825689,W08E03,2022-09-02_10h30.13.106,t1_Paradigm,2021.1.4,59.96037509380557,
B,left,Distractor,0,38,38,38,1460.672650688619,1462.6739480108954,left,1,3,0.6486762115673628,W08E03,2022-09-02_10h30.13.106,t1_Paradigm,2021.1.4,59.96037509380557,
Y,right,Target,0,39,39,39,1464.1727312098665,1466.1734020063013,right,1,3,0.6048518056340981,W08E03,2022-09-02_10h30.13.106,t1_Paradigm,2021.1.4,59.96037509380557,
J,left,Distractor,0,40,40,40,1467.6724636612053,1469.6742364116653,left,1,3,0.6241313490609173,W08E03,2022-09-02_10h30.13.106,t1_Paradigm,2021.1.4,59.96037509380557,
X,left,Distractor,0,41,41,41,1471.1727851045434,1473.1736230387178,left,1,3,0.9327079837676138,W08E03,2022-09-02_10h30.13.106,t1_Paradigm,2021.1.4,59.96037509380557,
W,left,Pretarget,0,42,42,42,1474.6724675108271,1476.6747089526325,left,1,3,0.9195252775680274,W08E03,2022-09-02_10h30.13.106,t1_Paradigm,2021.1.4,59.96037509380557,
S,left,Pretarget,0,43,43,43,1478.1727235106227,1480.1747439200117,left,1,3,1.4194733077019919,W08E03,2022-09-02_10h30.13.106,t1_Paradigm,2021.1.4,59.96037509380557,
R,left,Distractor,0,44,44,44,1481.6727732348954,1483.6735020964406,left,1,3,0.9288464931596536,W08E03,2022-09-02_10h30.13.106,t1_Paradigm,2021.1.4,59.96037509380557,
W,right,Target,0,45,45,45,1485.1724954205565,1487.1741170734167,None,0,3,,W08E03,2022-09-02_10h30.13.106,t1_Paradigm,2021.1.4,59.96037509380557,
S,right,Target,0,46,46,46,1488.6727392298926,1490.6732300565636,right,1,3,1.1609433496196289,W08E03,2022-09-02_10h30.13.106,t1_Paradigm,2021.1.4,59.96037509380557,
D,left,Distractor,0,47,47,47,1492.172690147243,1494.1724755308533,left,1,3,1.2456840936793014,W08E03,2022-09-02_10h30.13.106,t1_Paradigm,2021.1.4,59.96037509380557,
T,left,Distractor,0,48,48,48,1495.6726247036713,1497.674284211127,left,1,3,1.3282327994238585,W08E03,2022-09-02_10h30.13.106,t1_Paradigm,2021.1.4,59.96037509380557,
S,right,Target,0,49,49,49,1499.17260866359,1501.1746306770074,left,0,3,1.1875852931698319,W08E03,2022-09-02_10h30.13.106,t1_Paradigm,2021.1.4,59.96037509380557,
K,left,Distractor,0,50,50,50,1502.6726125132118,1504.6722156814358,left,1,3,1.0179892788291909,W08E03,2022-09-02_10h30.13.106,t1_Paradigm,2021.1.4,59.96037509380557,
S,left,Lure,0,51,51,51,1506.1726692951052,1508.1734376153036,None,0,3,,W08E03,2022-09-02_10h30.13.106,t1_Paradigm,2021.1.4,59.96037509380557,
T,left,Pretarget,0,52,52,52,1509.6729233700898,1511.6747593184991,left,1,3,0.5276235968922265,W08E03,2022-09-02_10h30.13.106,t1_Paradigm,2021.1.4,59.96037509380557,
V,left,Distractor,0,53,53,53,1513.172676352755,1515.1741257350368,left,1,3,0.6762484801874962,W08E03,2022-09-02_10h30.13.106,t1_Paradigm,2021.1.4,59.96037509380557,
B,left,Distractor,0,54,54,54,1516.672675069538,1518.6732791392424,left,1,3,0.8569920345034916,W08E03,2022-09-02_10h30.13.106,t1_Paradigm,2021.1.4,59.96037509380557,
T,right,Target,0,55,55,55,1520.17267378635,1522.1747339751746,right,1,3,1.1796210689644795,W08E03,2022-09-02_10h30.13.106,t1_Paradigm,2021.1.4,59.96037509380557,
Y,left,Pretarget,0,56,56,56,1523.67266319989,1525.671866969933,left,1,3,0.8183264414547011,W08E03,2022-09-02_10h30.13.106,t1_Paradigm,2021.1.4,59.96037509380557,
T,left,Lure,0,57,57,57,1527.172562788939,1529.1719689849124,left,1,3,1.1583057176612783,W08E03,2022-09-02_10h30.13.106,t1_Paradigm,2021.1.4,59.96037509380557,
P,left,Pretarget,0,58,58,58,1530.6724331850419,1532.6741263766598,left,1,3,0.6000275889527984,W08E03,2022-09-02_10h30.13.106,t1_Paradigm,2021.1.4,59.96037509380557,
Y,right,Target,0,59,59,59,1534.1724620571767,1536.17468040128,left,0,3,1.1797465024574194,W08E03,2022-09-02_10h30.13.106,t1_Paradigm,2021.1.4,59.96037509380557,
R,left,Distractor,0,60,60,60,1537.6722958818718,1539.6731963724014,left,1,3,0.7049842967535369,W08E03,2022-09-02_10h30.13.106,t1_Paradigm,2021.1.4,59.96037509380557,
P,right,Target,0,61,61,61,1541.172686297621,1543.1747721505817,right,1,3,0.4833654669637326,W08E03,2022-09-02_10h30.13.106,t1_Paradigm,2021.1.4,59.96037509380557,
L,left,Distractor,0,62,62,62,1544.6723905183899,1546.6739130434871,left,1,3,0.7601493652909994,W08E03,2022-09-02_10h30.13.106,t1_Paradigm,2021.1.4,59.96037509380557,
V,left,Distractor,0,63,63,63,1548.1726821271877,1550.1738026876992,None,0,3,,W08E03,2022-09-02_10h30.13.106,t1_Paradigm,2021.1.4,59.96037509380557,
H,left,Lure,0,0,0,0,1568.1847237415786,1570.1745334740845,None,0,3,,W08E03,2022-09-02_10h30.13.106,t1_Paradigm,2021.1.4,59.96037509380557,
B,left,Distractor,0,1,1,1,1571.6726247036713,1573.674792681879,None,0,3,,W08E03,2022-09-02_10h30.13.106,t1_Paradigm,2021.1.4,59.96037509380557,
T,left,Distractor,0,2,2,2,1575.1726147588051,1577.174093654874,None,0,3,,W08E03,2022-09-02_10h30.13.106,t1_Paradigm,2021.1.4,59.96037509380557,
R,left,Distractor,0,3,3,3,1578.6726214956434,1580.6745289828395,left,1,3,0.9676214795908891,W08E03,2022-09-02_10h30.13.106,t1_Paradigm,2021.1.4,59.96037509380557,
H,left,Pretarget,0,4,4,4,1582.1726956008642,1584.1738135949417,left,1,3,0.7163560771150514,W08E03,2022-09-02_10h30.13.106,t1_Paradigm,2021.1.4,59.96037509380557,
K,left,Distractor,0,5,5,5,1585.6723103179538,1587.6749614236178,left,1,3,0.6871990478539374,W08E03,2022-09-02_10h30.13.106,t1_Paradigm,2021.1.4,59.96037509380557,
G,left,Distractor,0,6,6,6,1589.1726134756173,1591.1733125026221,left,1,3,0.5649360481475014,W08E03,2022-09-02_10h30.13.106,t1_Paradigm,2021.1.4,59.96037509380557,
H,right,Target,0,7,7,7,1592.6724059168773,1594.6743589579128,right,1,3,0.535715179372346,W08E03,2022-09-02_10h30.13.106,t1_Paradigm,2021.1.4,59.96037509380557,
Y,left,Pretarget,0,8,8,8,1596.1725650345616,1598.171676413709,left,1,3,0.5425873944186606,W08E03,2022-09-02_10h30.13.106,t1_Paradigm,2021.1.4,59.96037509380557,
S,left,Distractor,0,9,9,9,1599.6726070595905,1601.6732534751063,left,1,3,0.8168090491672046,W08E03,2022-09-02_10h30.13.106,t1_Paradigm,2021.1.4,59.96037509380557,
P,left,Distractor,0,10,10,10,1603.1724190697423,1605.1742787574767,left,1,3,1.4279729500121903,W08E03,2022-09-02_10h30.13.106,t1_Paradigm,2021.1.4,59.96037509380557,
Y,right,Target,0,11,11,11,1606.6723539470113,1608.673849203944,right,1,3,0.9042910441639833,W08E03,2022-09-02_10h30.13.106,t1_Paradigm,2021.1.4,59.96037509380557,
H,left,Lure,0,12,12,12,1610.1726981672691,1612.1717588597676,left,1,3,0.5424933994945604,W08E03,2022-09-02_10h30.13.106,t1_Paradigm,2021.1.4,59.96037509380557,
Q,left,Distractor,0,13,13,13,1613.6721425386495,1615.6747990979056,left,1,3,0.5116056448023301,W08E03,2022-09-02_10h30.13.106,t1_Paradigm,2021.1.4,59.96037509380557,
V,left,Pretarget,0,14,14,14,1617.1725608641282,1619.1725319919642,left,1,3,0.5817486261657905,W08E03,2022-09-02_10h30.13.106,t1_Paradigm,2021.1.4,59.96037509380557,
G,left,Distractor,0,15,15,15,1620.672592944291,1622.6732720815926,left,1,3,0.5368527423706837,W08E03,2022-09-02_10h30.13.106,t1_Paradigm,2021.1.4,59.96037509380557,
Z,left,Pretarget,0,16,16,16,1624.1726583878626,1626.1749062456947,left,1,3,0.6831656074791681,W08E03,2022-09-02_10h30.13.106,t1_Paradigm,2021.1.4,59.96037509380557,
V,right,Target,0,17,17,17,1627.671995611454,1629.6748911680188,right,1,3,0.5912459618994035,W08E03,2022-09-02_10h30.13.106,t1_Paradigm,2021.1.4,59.96037509380557,
N,left,Distractor,0,18,18,18,1631.1724341474473,1633.174966235616,left,1,3,0.7392334121395834,W08E03,2022-09-02_10h30.13.106,t1_Paradigm,2021.1.4,59.96037509380557,
Z,right,Target,0,19,19,19,1634.672416182526,1636.6725072902336,right,1,3,0.5535899319511373,W08E03,2022-09-02_10h30.13.106,t1_Paradigm,2021.1.4,59.96037509380557,
R,left,Distractor,0,20,20,20,1638.1726320821035,1640.1745026771096,left,1,3,0.7477561521809548,W08E03,2022-09-02_10h30.13.106,t1_Paradigm,2021.1.4,59.96037509380557,
P,left,Distractor,0,21,21,21,1641.672581716237,1643.6746727020363,left,1,3,0.5914214404474478,W08E03,2022-09-02_10h30.13.106,t1_Paradigm,2021.1.4,59.96037509380557,
Z,right,Target,0,22,22,22,1645.1723988592566,1647.1742752286664,right,1,3,0.6760126909066457,W08E03,2022-09-02_10h30.13.106,t1_Paradigm,2021.1.4,59.96037509380557,
D,left,Pretarget,0,23,23,23,1648.6720915311598,1650.6742672086111,left,1,3,0.6158219421922695,W08E03,2022-09-02_10h30.13.106,t1_Paradigm,2021.1.4,59.96037509380557,
K,left,Distractor,0,24,24,24,1652.172566638561,1654.1734119511675,left,1,3,0.5087954215123318,W08E03,2022-09-02_10h30.13.106,t1_Paradigm,2021.1.4,59.96037509380557,
W,left,Distractor,0,25,25,25,1655.6723568342277,1657.6725842826418,left,1,3,0.5460190107114613,W08E03,2022-09-02_10h30.13.106,t1_Paradigm,2021.1.4,59.96037509380557,
D,right,Target,0,26,26,26,1659.172633686132,1661.174595709599,right,1,3,0.4834357225627173,W08E03,2022-09-02_10h30.13.106,t1_Paradigm,2021.1.4,59.96037509380557,
G,left,Pretarget,0,27,27,27,1662.6725438616413,1664.6735980161757,left,1,3,0.5524382536823396,W08E03,2022-09-02_10h30.13.106,t1_Paradigm,2021.1.4,59.96037509380557,
V,left,Distractor,0,28,28,28,1666.1723536261998,1668.1740352689521,left,1,3,1.388104029581882,W08E03,2022-09-02_10h30.13.106,t1_Paradigm,2021.1.4,59.96037509380557,
D,right,Target,0,29,29,29,1669.6725015158008,1671.6725342375867,right,1,3,0.705532226129435,W08E03,2022-09-02_10h30.13.106,t1_Paradigm,2021.1.4,59.96037509380557,
G,right,Target,0,30,30,30,1673.1726404229703,1675.17465217071,right,1,3,0.5795880264195148,W08E03,2022-09-02_10h30.13.106,t1_Paradigm,2021.1.4,59.96037509380557,
B,left,Pretarget,0,31,31,31,1676.6723918016069,1678.6727886333538,left,1,3,0.5371918298187666,W08E03,2022-09-02_10h30.13.106,t1_Paradigm,2021.1.4,59.96037509380557,
N,left,Distractor,0,32,32,32,1680.1725284631539,1682.1747827370418,left,1,3,0.49136465854826383,W08E03,2022-09-02_10h30.13.106,t1_Paradigm,2021.1.4,59.96037509380557,
F,left,Distractor,0,33,33,33,1683.6725072902336,1685.6720880023495,left,1,3,0.5300806174636818,W08E03,2022-09-02_10h30.13.106,t1_Paradigm,2021.1.4,59.96037509380557,
B,right,Target,0,34,34,34,1687.1722779169795,1689.1744298551057,right,1,3,0.5156313859624788,W08E03,2022-09-02_10h30.13.106,t1_Paradigm,2021.1.4,59.96037509380557,
Q,left,Pretarget,0,35,35,35,1690.6723683830642,1692.6717145891162,left,1,3,0.5863457152154297,W08E03,2022-09-02_10h30.13.106,t1_Paradigm,2021.1.4,59.96037509380557,
S,left,Pretarget,0,36,36,36,1694.1725711297768,1696.1737330737233,left,1,3,1.3562496992526576,W08E03,2022-09-02_10h30.13.106,t1_Paradigm,2021.1.4,59.96037509380557,
W,left,Distractor,0,37,37,37,1697.672008764319,1699.6745953888167,left,1,3,0.5598638517549261,W08E03,2022-09-02_10h30.13.106,t1_Paradigm,2021.1.4,59.96037509380557,
Q,right,Target,0,38,38,38,1701.1725692049658,1703.1742354492599,right,1,3,0.6442404858244117,W08E03,2022-09-02_10h30.13.106,t1_Paradigm,2021.1.4,59.96037509380557,
S,right,Target,0,39,39,39,1704.672500874207,1706.673138307262,right,1,3,0.6328555525979027,W08E03,2022-09-02_10h30.13.106,t1_Paradigm,2021.1.4,59.96037509380557,
T,left,Distractor,0,40,40,40,1708.1723324532795,1710.1744115694019,left,1,3,0.5557553437538445,W08E03,2022-09-02_10h30.13.106,t1_Paradigm,2021.1.4,59.96037509380557,
G,left,Distractor,0,41,41,41,1711.6724190697423,1713.67456074222,left,1,3,0.8635732823458966,W08E03,2022-09-02_10h30.13.106,t1_Paradigm,2021.1.4,59.96037509380557,
D,left,Distractor,0,42,42,42,1715.1725624681276,1717.1719064285571,left,1,3,0.7262534526234958,W08E03,2022-09-02_10h30.13.106,t1_Paradigm,2021.1.4,59.96037509380557,
S,left,Lure,0,43,43,43,1718.6722448744113,1720.6747346167685,left,1,3,0.8393700736924075,W08E03,2022-09-02_10h30.13.106,t1_Paradigm,2021.1.4,59.96037509380557,
Z,left,Pretarget,0,44,44,44,1722.172210548626,1724.1747150478477,left,1,3,0.6192577289184555,W08E03,2022-09-02_10h30.13.106,t1_Paradigm,2021.1.4,59.96037509380557,
J,left,Distractor,0,45,45,45,1725.672348493361,1727.6732351894025,left,1,3,0.5290238965244498,W08E03,2022-09-02_10h30.13.106,t1_Paradigm,2021.1.4,59.96037509380557,
M,left,Pretarget,0,46,46,46,1729.1727764428942,1731.1727004128916,left,1,3,0.7094424786337186,W08E03,2022-09-02_10h30.13.106,t1_Paradigm,2021.1.4,59.96037509380557,
Z,right,Target,0,47,47,47,1732.6720264083997,1734.6729394102003,right,1,3,0.5850483929389156,W08E03,2022-09-02_10h30.13.106,t1_Paradigm,2021.1.4,59.96037509380557,
P,left,Distractor,0,48,48,48,1736.1723436813336,1738.174341313832,left,1,3,0.5718457970069721,W08E03,2022-09-02_10h30.13.106,t1_Paradigm,2021.1.4,59.96037509380557,
M,right,Target,0,49,49,49,1739.6723176964151,1741.6745395692997,left,0,3,0.6236190286872443,W08E03,2022-09-02_10h30.13.106,t1_Paradigm,2021.1.4,59.96037509380557,
K,left,Distractor,0,50,50,50,1743.1725207639101,1745.1743458050478,left,1,3,0.48359708581119776,W08E03,2022-09-02_10h30.13.106,t1_Paradigm,2021.1.4,59.96037509380557,
Y,left,Distractor,0,51,51,51,1746.6720495061309,1748.673151460156,left,1,3,1.208990789775271,W08E03,2022-09-02_10h30.13.106,t1_Paradigm,2021.1.4,59.96037509380557,
X,left,Distractor,0,52,52,52,1750.1724886837183,1752.174529945245,left,1,3,1.3715394313330762,W08E03,2022-09-02_10h30.13.106,t1_Paradigm,2021.1.4,59.96037509380557,
F,left,Pretarget,0,53,53,53,1753.672043731698,1755.6747140854422,left,1,3,0.79923039660207,W08E03,2022-09-02_10h30.13.106,t1_Paradigm,2021.1.4,59.96037509380557,
M,left,Lure,0,54,54,54,1757.1723212252255,1759.1730074201478,left,1,3,0.7890176729706582,W08E03,2022-09-02_10h30.13.106,t1_Paradigm,2021.1.4,59.96037509380557,
V,left,Distractor,0,55,55,55,1760.672170448408,1762.672686939215,left,1,3,0.6974759318400174,W08E03,2022-09-02_10h30.13.106,t1_Paradigm,2021.1.4,59.96037509380557,
F,right,Target,0,56,56,56,1764.1724886837183,1766.1732088836434,right,1,3,0.5088704891386442,W08E03,2022-09-02_10h30.13.106,t1_Paradigm,2021.1.4,59.96037509380557,
S,left,Distractor,0,57,57,57,1767.6725188390992,1769.674653453927,left,1,3,0.8634725506126415,W08E03,2022-09-02_10h30.13.106,t1_Paradigm,2021.1.4,59.96037509380557,
D,left,Distractor,0,58,58,58,1771.1724116913101,1773.1737208832346,left,1,3,0.6284281676635146,W08E03,2022-09-02_10h30.13.106,t1_Paradigm,2021.1.4,59.96037509380557,
F,right,Target,0,59,59,59,1774.6721463882714,1776.6729952296882,left,0,3,0.9370423361833673,W08E03,2022-09-02_10h30.13.106,t1_Paradigm,2021.1.4,59.96037509380557,
V,left,Pretarget,0,60,60,60,1778.1724283730146,1780.1744619352685,left,1,3,0.6194787613349035,W08E03,2022-09-02_10h30.13.106,t1_Paradigm,2021.1.4,59.96037509380557,
J,left,Distractor,0,61,61,61,1781.6722294759238,1783.672509535856,left,1,3,0.9776086796191521,W08E03,2022-09-02_10h30.13.106,t1_Paradigm,2021.1.4,59.96037509380557,
V,left,Lure,0,62,62,62,1785.172267009737,1787.1744539152423,right,0,3,1.0602776859886944,W08E03,2022-09-02_10h30.13.106,t1_Paradigm,2021.1.4,59.96037509380557,
V,right,Target,0,63,63,63,1788.6723160923866,1790.6724780972872,left,0,3,1.0336197023571003,W08E03,2022-09-02_10h30.13.106,t1_Paradigm,2021.1.4,59.96037509380557,
R,left,Distractor,0,0,0,0,1849.0809225616686,1851.074443007994,None,0,4,,W08E03,2022-09-02_10h30.13.106,t1_Paradigm,2021.1.4,59.96037509380557,
F,left,Distractor,0,1,1,1,1852.5723513805715,1854.5730741469306,None,0,4,,W08E03,2022-09-02_10h30.13.106,t1_Paradigm,2021.1.4,59.96037509380557,
P,left,Pretarget,0,2,2,2,1856.0723459269502,1858.0743948877207,None,0,4,,W08E03,2022-09-02_10h30.13.106,t1_Paradigm,2021.1.4,59.96037509380557,
H,left,Distractor,0,3,3,3,1859.5721848844842,1861.574525774835,None,0,4,,W08E03,2022-09-02_10h30.13.106,t1_Paradigm,2021.1.4,59.96037509380557,
Z,left,Distractor,0,4,4,4,1863.0721220073465,1865.0730542572273,left,1,4,0.600837934151059,W08E03,2022-09-02_10h30.13.106,t1_Paradigm,2021.1.4,59.96037509380557,
T,left,Distractor,0,5,5,5,1866.5721011552087,1868.5719933658256,left,1,4,0.8141175225318875,W08E03,2022-09-02_10h30.13.106,t1_Paradigm,2021.1.4,59.96037509380557,
P,right,Target,0,6,6,6,1870.0725101774442,1872.0724302978197,right,1,4,0.5459506799525116,W08E03,2022-09-02_10h30.13.106,t1_Paradigm,2021.1.4,59.96037509380557,
G,left,Distractor,0,7,7,7,1873.5721258569683,1875.5739858654852,left,1,4,0.6120823562087025,W08E03,2022-09-02_10h30.13.106,t1_Paradigm,2021.1.4,59.96037509380557,
L,left,Distractor,0,8,8,8,1877.0723282828694,1879.0736182266846,left,1,4,0.5203276027459651,W08E03,2022-09-02_10h30.13.106,t1_Paradigm,2021.1.4,59.96037509380557,
P,left,Lure,0,9,9,9,1880.5723334156792,1882.5730760717415,right,0,4,0.493065228627529,W08E03,2022-09-02_10h30.13.106,t1_Paradigm,2021.1.4,59.96037509380557,
Q,left,Pretarget,0,10,10,10,1884.0718666491448,1886.073597374576,left,1,4,0.432263031747425,W08E03,2022-09-02_10h30.13.106,t1_Paradigm,2021.1.4,59.96037509380557,
D,left,Distractor,0,11,11,11,1887.572040844505,1889.5737074095814,left,1,4,0.7882689216930885,W08E03,2022-09-02_10h30.13.106,t1_Paradigm,2021.1.4,59.96037509380557,
M,left,Pretarget,0,12,12,12,1891.0721399722388,1893.0741661560605,left,1,4,0.5516901440278161,W08E03,2022-09-02_10h30.13.106,t1_Paradigm,2021.1.4,59.96037509380557,
C,left,Distractor,0,13,13,13,1894.572297165083,1896.57353834706,left,1,4,0.5402894915023353,W08E03,2022-09-02_10h30.13.106,t1_Paradigm,2021.1.4,59.96037509380557,
Q,right,Target,0,14,14,14,1898.0719320926873,1900.073973354214,right,1,4,1.0720318620151374,W08E03,2022-09-02_10h30.13.106,t1_Paradigm,2021.1.4,59.96037509380557,
R,left,Distractor,0,15,15,15,1901.5724559619557,1903.5713777472847,left,1,4,0.7105996105528902,W08E03,2022-09-02_10h30.13.106,t1_Paradigm,2021.1.4,59.96037509380557,
M,right,Target,0,16,16,16,1905.0723225084366,1907.0747201806807,right,1,4,0.4552754243486561,W08E03,2022-09-02_10h30.13.106,t1_Paradigm,2021.1.4,59.96037509380557,
S,left,Distractor,0,17,17,17,1908.572365495871,1910.574792681873,left,1,4,0.6350488741591107,W08E03,2022-09-02_10h30.13.106,t1_Paradigm,2021.1.4,59.96037509380557,
Z,left,Distractor,0,18,18,18,1912.0722795210022,1914.0731934851792,left,1,4,0.768711243144935,W08E03,2022-09-02_10h30.13.106,t1_Paradigm,2021.1.4,59.96037509380557,
L,left,Pretarget,0,19,19,19,1915.5722955610836,1917.5742101059004,left,1,4,0.643935082538519,W08E03,2022-09-02_10h30.13.106,t1_Paradigm,2021.1.4,59.96037509380557,
M,right,Target,0,20,20,20,1919.072123611346,1921.074221013172,right,1,4,0.5035833555157296,W08E03,2022-09-02_10h30.13.106,t1_Paradigm,2021.1.4,59.96037509380557,
P,left,Distractor,0,21,21,21,1922.5722650849202,1924.5743474090705,left,1,4,0.8594686239666771,W08E03,2022-09-02_10h30.13.106,t1_Paradigm,2021.1.4,59.96037509380557,
F,left,Distractor,0,22,22,22,1926.0724524331454,1928.0733336755366,left,1,4,0.8807188525679521,W08E03,2022-09-02_10h30.13.106,t1_Paradigm,2021.1.4,59.96037509380557,
L,right,Target,0,23,23,23,1929.5722503280267,1931.5735332142212,right,1,4,0.772448904288467,W08E03,2022-09-02_10h30.13.106,t1_Paradigm,2021.1.4,59.96037509380557,
L,left,Lure,0,24,24,24,1933.07219996216,1935.0722083029978,left,1,4,0.937607588886749,W08E03,2022-09-02_10h30.13.106,t1_Paradigm,2021.1.4,59.96037509380557,
V,left,Pretarget,0,25,25,25,1936.5720061979082,1938.572983039223,left,1,4,0.9570626108616125,W08E03,2022-09-02_10h30.13.106,t1_Paradigm,2021.1.4,59.96037509380557,
Z,left,Distractor,0,26,26,26,1940.0722634808917,1942.0740240408923,left,1,4,0.5119347874133382,W08E03,2022-09-02_10h30.13.106,t1_Paradigm,2021.1.4,59.96037509380557,
H,left,Distractor,0,27,27,27,1943.5723764031136,1945.5722121526196,left,1,4,0.773732111294521,W08E03,2022-09-02_10h30.13.106,t1_Paradigm,2021.1.4,59.96037509380557,
X,left,Distractor,0,28,28,28,1947.0722269095131,1949.0740776147868,left,1,4,0.6158784033032134,W08E03,2022-09-02_10h30.13.106,t1_Paradigm,2021.1.4,59.96037509380557,
V,right,Target,0,29,29,29,1950.572148633888,1952.573965975782,right,1,4,0.5877075186290313,W08E03,2022-09-02_10h30.13.106,t1_Paradigm,2021.1.4,59.96037509380557,
C,left,Distractor,0,30,30,30,1954.0722885034338,1956.0742652838235,left,1,4,0.4636865253560245,W08E03,2022-09-02_10h30.13.106,t1_Paradigm,2021.1.4,59.96037509380557,
S,left,Pretarget,0,31,31,31,1957.5722490448388,1959.5851786384592,left,1,4,0.6168853999988642,W08E03,2022-09-02_10h30.13.106,t1_Paradigm,2021.1.4,59.96037509380557,
D,left,Distractor,0,32,32,32,1961.0719898370153,1963.0738703768584,right,0,4,0.8560610678105149,W08E03,2022-09-02_10h30.13.106,t1_Paradigm,2021.1.4,59.96037509380557,
V,left,Distractor,0,33,33,33,1964.5722660473257,1966.574345163448,right,0,4,0.7475704079552088,W08E03,2022-09-02_10h30.13.106,t1_Paradigm,2021.1.4,59.96037509380557,
R,left,Distractor,0,34,34,34,1968.0713427798764,1970.0723099971656,left,1,4,0.849640862463275,W08E03,2022-09-02_10h30.13.106,t1_Paradigm,2021.1.4,59.96037509380557,
S,right,Target,0,35,35,35,1971.5723318116798,1973.5724148993322,left,0,4,0.6612150687142275,W08E03,2022-09-02_10h30.13.106,t1_Paradigm,2021.1.4,59.96037509380557,
Y,left,Distractor,0,36,36,36,1975.0718105088454,1977.0719776465558,left,1,4,0.6178308027447201,W08E03,2022-09-02_10h30.13.106,t1_Paradigm,2021.1.4,59.96037509380557,
N,left,Pretarget,0,37,37,37,1978.571916694229,1980.574385263666,left,1,4,0.8278407796751708,W08E03,2022-09-02_10h30.13.106,t1_Paradigm,2021.1.4,59.96037509380557,
Z,left,Pretarget,0,38,38,38,1982.0722939570842,1984.0744802209956,left,1,4,0.5914769391529262,W08E03,2022-09-02_10h30.13.106,t1_Paradigm,2021.1.4,59.96037509380557,
P,left,Pretarget,0,39,39,39,1985.5722403831896,1987.5730263474688,left,1,4,0.6129376136814244,W08E03,2022-09-02_10h30.13.106,t1_Paradigm,2021.1.4,59.96037509380557,
M,left,Distractor,0,40,40,40,1989.0720604133967,1991.0744503864262,left,1,4,0.6476627988740802,W08E03,2022-09-02_10h30.13.106,t1_Paradigm,2021.1.4,59.96037509380557,
N,right,Target,0,41,41,41,1992.5721175161016,1994.574293835176,right,1,4,0.6514713572105393,W08E03,2022-09-02_10h30.13.106,t1_Paradigm,2021.1.4,59.96037509380557,
Z,right,Target,0,42,42,42,1996.0720286540163,1998.0722670097311,None,0,4,,W08E03,2022-09-02_10h30.13.106,t1_Paradigm,2021.1.4,59.96037509380557,
P,right,Target,0,43,43,43,1999.5721377266163,2001.5739284419687,None,0,4,,W08E03,2022-09-02_10h30.13.106,t1_Paradigm,2021.1.4,59.96037509380557,
X,left,Pretarget,0,44,44,44,2003.072118478507,2005.0739303667797,left,1,4,0.9519368405453861,W08E03,2022-09-02_10h30.13.106,t1_Paradigm,2021.1.4,59.96037509380557,
Z,left,Lure,0,45,45,45,2006.5720289748278,2008.5743381057982,right,0,4,0.7153243786888197,W08E03,2022-09-02_10h30.13.106,t1_Paradigm,2021.1.4,59.96037509380557,
R,left,Pretarget,0,46,46,46,2010.0723616462492,2012.0735300061933,left,1,4,1.0404097921273205,W08E03,2022-09-02_10h30.13.106,t1_Paradigm,2021.1.4,59.96037509380557,
K,left,Distractor,0,47,47,47,2013.572259631299,2015.5729997209273,left,1,4,1.0928188528632745,W08E03,2022-09-02_10h30.13.106,t1_Paradigm,2021.1.4,59.96037509380557,
X,right,Target,0,48,48,48,2017.0721155912906,2019.0743397098267,right,1,4,0.5194710620853584,W08E03,2022-09-02_10h30.13.106,t1_Paradigm,2021.1.4,59.96037509380557,
B,left,Distractor,0,49,49,49,2020.5721929045103,2022.5743913589104,left,1,4,0.5552289080806077,W08E03,2022-09-02_10h30.13.106,t1_Paradigm,2021.1.4,59.96037509380557,
R,right,Target,0,50,50,50,2024.072021917178,2026.0743271985557,right,1,4,0.8154308848606888,W08E03,2022-09-02_10h30.13.106,t1_Paradigm,2021.1.4,59.96037509380557,
Y,left,Pretarget,0,51,51,51,2027.5721370850224,2029.572437034658,left,1,4,0.6772189055045601,W08E03,2022-09-02_10h30.13.106,t1_Paradigm,2021.1.4,59.96037509380557,
W,left,Pretarget,0,52,52,52,2031.0720280124224,2033.0729945880885,left,1,4,0.6649716571555473,W08E03,2022-09-02_10h30.13.106,t1_Paradigm,2021.1.4,59.96037509380557,
Z,left,Distractor,0,53,53,53,2034.5722089446208,2036.573360943672,left,1,4,0.5403453110193368,W08E03,2022-09-02_10h30.13.106,t1_Paradigm,2021.1.4,59.96037509380557,
Q,left,Distractor,0,54,54,54,2038.0721665987803,2040.0717732958437,left,1,4,1.4421350639604498,W08E03,2022-09-02_10h30.13.106,t1_Paradigm,2021.1.4,59.96037509380557,
Y,right,Target,0,55,55,55,2041.5720328244497,2043.5735601615743,right,1,4,0.6444323252653703,W08E03,2022-09-02_10h30.13.106,t1_Paradigm,2021.1.4,59.96037509380557,
W,right,Target,0,56,56,56,2045.071931771905,2047.0717527645174,left,0,4,0.7461251960776281,W08E03,2022-09-02_10h30.13.106,t1_Paradigm,2021.1.4,59.96037509380557,
H,left,Pretarget,0,57,57,57,2048.572069075046,2050.5726676911,left,1,4,1.3412294406152796,W08E03,2022-09-02_10h30.13.106,t1_Paradigm,2021.1.4,59.96037509380557,
M,left,Distractor,0,58,58,58,2052.0721319521836,2054.073821614991,left,1,4,0.8159598869387992,W08E03,2022-09-02_10h30.13.106,t1_Paradigm,2021.1.4,59.96037509380557,
R,left,Pretarget,0,59,59,59,2055.572119761724,2057.5728065982694,left,1,4,0.7409907641122118,W08E03,2022-09-02_10h30.13.106,t1_Paradigm,2021.1.4,59.96037509380557,
J,left,Distractor,0,60,60,60,2059.0720161427453,2061.073308973806,left,1,4,0.5843852957477793,W08E03,2022-09-02_10h30.13.106,t1_Paradigm,2021.1.4,59.96037509380557,
H,right,Target,0,61,61,61,2062.5718942380918,2064.5734360112983,right,1,4,0.7323191720643081,W08E03,2022-09-02_10h30.13.106,t1_Paradigm,2021.1.4,59.96037509380557,
Z,left,Distractor,0,62,62,62,2066.072117836913,2068.074126376654,left,1,4,0.6717187595495488,W08E03,2022-09-02_10h30.13.106,t1_Paradigm,2021.1.4,59.96037509380557,
R,right,Target,0,63,63,63,2069.5721515211044,2071.573504662869,right,1,4,0.6922109335719142,W08E03,2022-09-02_10h30.13.106,t1_Paradigm,2021.1.4,59.96037509380557,
J,left,Pretarget,0,0,0,0,2086.9458855571866,2088.939361412049,None,0,4,,W08E03,2022-09-02_10h30.13.106,t1_Paradigm,2021.1.4,59.96037509380557,
G,left,Pretarget,0,1,1,1,2090.4388997783535,2092.4395455522463,None,0,4,,W08E03,2022-09-02_10h30.13.106,t1_Paradigm,2021.1.4,59.96037509380557,
Z,left,Distractor,0,2,2,2,2093.938715638127,2095.939200369583,None,0,4,,W08E03,2022-09-02_10h30.13.106,t1_Paradigm,2021.1.4,59.96037509380557,
F,left,Distractor,0,3,3,3,2097.438394836383,2099.440032208513,None,0,4,,W08E03,2022-09-02_10h30.13.106,t1_Paradigm,2021.1.4,59.96037509380557,
J,right,Target,0,4,4,4,2100.938666234666,2102.938287688594,right,1,4,0.6235125225211959,W08E03,2022-09-02_10h30.13.106,t1_Paradigm,2021.1.4,59.96037509380557,
G,right,Target,0,5,5,5,2104.438628700853,2106.4389023447584,right,1,4,0.6428748327598441,W08E03,2022-09-02_10h30.13.106,t1_Paradigm,2021.1.4,59.96037509380557,
H,left,Distractor,0,6,6,6,2107.9385260443087,2109.9408983732283,left,1,4,0.5650508952094242,W08E03,2022-09-02_10h30.13.106,t1_Paradigm,2021.1.4,59.96037509380557,
P,left,Distractor,0,7,7,7,2111.4389036279754,2113.441181320377,left,1,4,0.6164994754944928,W08E03,2022-09-02_10h30.13.106,t1_Paradigm,2021.1.4,59.96037509380557,
G,left,Lure,0,8,8,8,2114.938825993944,2116.9408662930655,right,0,4,0.6528504839225207,W08E03,2022-09-02_10h30.13.106,t1_Paradigm,2021.1.4,59.96037509380557,
S,left,Distractor,0,9,9,9,2118.4384496934945,2120.4391429460666,left,1,4,0.4344585989310872,W08E03,2022-09-02_10h30.13.106,t1_Paradigm,2021.1.4,59.96037509380557,
R,left,Pretarget,0,10,10,10,2121.938530856336,2123.9405820627,left,1,4,0.5811795238696504,W08E03,2022-09-02_10h30.13.106,t1_Paradigm,2021.1.4,59.96037509380557,
T,left,Pretarget,0,11,11,11,2125.4383630770026,2127.440882974741,left,1,4,0.5529040578112472,W08E03,2022-09-02_10h30.13.106,t1_Paradigm,2021.1.4,59.96037509380557,
X,left,Distractor,0,12,12,12,2128.9386534025834,2130.940564418619,left,1,4,0.5412871849257499,W08E03,2022-09-02_10h30.13.106,t1_Paradigm,2021.1.4,59.96037509380557,
F,left,Pretarget,0,13,13,13,2132.43884107162,2134.440443476342,left,1,4,0.5134528212947771,W08E03,2022-09-02_10h30.13.106,t1_Paradigm,2021.1.4,59.96037509380557,
R,right,Target,0,14,14,14,2135.9385962998786,2137.9403523686633,right,1,4,0.5333608153741807,W08E03,2022-09-02_10h30.13.106,t1_Paradigm,2021.1.4,59.96037509380557,
T,right,Target,0,15,15,15,2139.4387368110474,2141.4388045002124,right,1,4,0.9070149718027096,W08E03,2022-09-02_10h30.13.106,t1_Paradigm,2021.1.4,59.96037509380557,
C,left,Distractor,0,16,16,16,2142.93878653532,2144.938868018973,left,1,4,0.5748780151188839,W08E03,2022-09-02_10h30.13.106,t1_Paradigm,2021.1.4,59.96037509380557,
F,right,Target,0,17,17,17,2146.438791026536,2148.4395510058966,left,0,4,1.0742627173895016,W08E03,2022-09-02_10h30.13.106,t1_Paradigm,2021.1.4,59.96037509380557,
M,left,Distractor,0,18,18,18,2149.938784610509,2151.9410956662905,left,1,4,0.6127515486732591,W08E03,2022-09-02_10h30.13.106,t1_Paradigm,2021.1.4,59.96037509380557,
N,left,Distractor,0,19,19,19,2153.4386614226387,2155.440333120554,left,1,4,0.6173171991540585,W08E03,2022-09-02_10h30.13.106,t1_Paradigm,2021.1.4,59.96037509380557,
R,left,Lure,0,20,20,20,2156.93852091147,2158.9402984739572,left,1,4,0.4617318803211674,W08E03,2022-09-02_10h30.13.106,t1_Paradigm,2021.1.4,59.96037509380557,
F,right,Target,0,21,21,21,2160.438829843566,2162.438243738754,right,1,4,0.5797445776697714,W08E03,2022-09-02_10h30.13.106,t1_Paradigm,2021.1.4,59.96037509380557,
P,left,Distractor,0,22,22,22,2163.9384930017113,2165.9406362781883,left,1,4,0.5650415919662919,W08E03,2022-09-02_10h30.13.106,t1_Paradigm,2021.1.4,59.96037509380557,
L,left,Pretarget,0,23,23,23,2167.438586675824,2169.4381022652087,None,0,4,,W08E03,2022-09-02_10h30.13.106,t1_Paradigm,2021.1.4,59.96037509380557,
T,left,Distractor,0,24,24,24,2170.938807387429,2172.939612920629,left,1,4,0.974275549466256,W08E03,2022-09-02_10h30.13.106,t1_Paradigm,2021.1.4,59.96037509380557,
F,left,Distractor,0,25,25,25,2174.4382039593474,2176.4549180511967,left,1,4,1.282941687881248,W08E03,2022-09-02_10h30.13.106,t1_Paradigm,2021.1.4,59.96037509380557,
V,left,Distractor,0,26,26,26,2177.938743227074,2179.938140440616,left,1,4,0.9838713713106699,W08E03,2022-09-02_10h30.13.106,t1_Paradigm,2021.1.4,59.96037509380557,
L,right,Target,0,27,27,27,2181.438711467723,2183.4387342446425,right,1,4,0.5869061558623798,W08E03,2022-09-02_10h30.13.106,t1_Paradigm,2021.1.4,59.96037509380557,
S,left,Pretarget,0,28,28,28,2184.9387098636944,2186.940831004875,left,1,4,0.7168010291352402,W08E03,2022-09-02_10h30.13.106,t1_Paradigm,2021.1.4,59.96037509380557,
W,left,Distractor,0,29,29,29,2188.4385456132004,2190.440820097603,left,1,4,0.9450986305018887,W08E03,2022-09-02_10h30.13.106,t1_Paradigm,2021.1.4,59.96037509380557,
Q,left,Distractor,0,30,30,30,2191.938700881263,2193.940942323068,left,1,4,0.6767219835601281,W08E03,2022-09-02_10h30.13.106,t1_Paradigm,2021.1.4,59.96037509380557,
L,right,Target,0,31,31,31,2195.438676179532,2197.4409609295835,left,0,4,0.936706456792308,W08E03,2022-09-02_10h30.13.106,t1_Paradigm,2021.1.4,59.96037509380557,
S,right,Target,0,32,32,32,2198.9387149965332,2200.940632107784,left,0,4,0.7170079462521244,W08E03,2022-09-02_10h30.13.106,t1_Paradigm,2021.1.4,59.96037509380557,
Z,left,Pretarget,0,33,33,33,2202.438682595559,2204.4395818028424,left,1,4,0.7378260548575781,W08E03,2022-09-02_10h30.13.106,t1_Paradigm,2021.1.4,59.96037509380557,
F,left,Distractor,0,34,34,34,2205.9386627058557,2207.940335686959,left,1,4,1.1414369993435685,W08E03,2022-09-02_10h30.13.106,t1_Paradigm,2021.1.4,59.96037509380557,
V,left,Distractor,0,35,35,35,2209.4385889214464,2211.440915375715,left,1,4,0.4408431953052059,W08E03,2022-09-02_10h30.13.106,t1_Paradigm,2021.1.4,59.96037509380557,
M,left,Distractor,0,36,36,36,2212.937756761705,2214.9391913871223,left,1,4,0.5105110692675225,W08E03,2022-09-02_10h30.13.106,t1_Paradigm,2021.1.4,59.96037509380557,
Z,right,Target,0,37,37,37,2216.438621643232,2218.437843698979,left,0,4,0.27590714712277986,W08E03,2022-09-02_10h30.13.106,t1_Paradigm,2021.1.4,59.96037509380557,
H,left,Pretarget,0,38,38,38,2219.938705051667,2221.940569551429,left,1,4,0.789064830809366,W08E03,2022-09-02_10h30.13.106,t1_Paradigm,2021.1.4,59.96037509380557,
L,left,Distractor,0,39,39,39,2223.4383977235993,2225.439172780636,left,1,4,0.7943894982163329,W08E03,2022-09-02_10h30.13.106,t1_Paradigm,2021.1.4,59.96037509380557,
G,left,Distractor,0,40,40,40,2226.9387143549393,2228.939876619668,left,1,4,0.47784896011580713,W08E03,2022-09-02_10h30.13.106,t1_Paradigm,2021.1.4,59.96037509380557,
K,left,Distractor,0,41,41,41,2230.4380740346387,2232.440948097501,left,1,4,0.6568094982940238,W08E03,2022-09-02_10h30.13.106,t1_Paradigm,2021.1.4,59.96037509380557,
H,right,Target,0,42,42,42,2233.93838906195,2235.940709100192,right,1,4,0.5329078432696406,W08E03,2022-09-02_10h30.13.106,t1_Paradigm,2021.1.4,59.96037509380557,
B,left,Distractor,0,43,43,43,2237.4385103250097,2239.451449542714,left,1,4,0.5901629352010787,W08E03,2022-09-02_10h30.13.106,t1_Paradigm,2021.1.4,59.96037509380557,
Z,left,Distractor,0,44,44,44,2240.9386421745294,2242.9386639890436,None,0,4,,W08E03,2022-09-02_10h30.13.106,t1_Paradigm,2021.1.4,59.96037509380557,
T,left,Pretarget,0,45,45,45,2244.438386816357,2246.4410491500457,left,1,4,1.3608823973045219,W08E03,2022-09-02_10h30.13.106,t1_Paradigm,2021.1.4,59.96037509380557,
H,right,Target,0,46,46,46,2247.9386251720425,2249.940192609385,left,0,4,0.8855985679547302,W08E03,2022-09-02_10h30.13.106,t1_Paradigm,2021.1.4,59.96037509380557,
F,left,Distractor,0,47,47,47,2251.43867746272,2253.4399353263725,left,1,4,0.40972574657644145,W08E03,2022-09-02_10h30.13.106,t1_Paradigm,2021.1.4,59.96037509380557,
R,left,Distractor,0,48,48,48,2254.9383589065983,2256.940758182871,left,1,4,0.5567944206122775,W08E03,2022-09-02_10h30.13.106,t1_Paradigm,2021.1.4,59.96037509380557,
T,right,Target,0,49,49,49,2258.4381311373436,2260.4387717784557,right,1,4,0.7546229135768954,W08E03,2022-09-02_10h30.13.106,t1_Paradigm,2021.1.4,59.96037509380557,
H,right,Target,0,50,50,50,2261.9385626157164,2263.9393703945098,right,1,4,0.934156082890695,W08E03,2022-09-02_10h30.13.106,t1_Paradigm,2021.1.4,59.96037509380557,
Y,left,Pretarget,0,51,51,51,2265.43847696163,2267.440610934864,left,1,4,0.6811333284131251,W08E03,2022-09-02_10h30.13.106,t1_Paradigm,2021.1.4,59.96037509380557,
H,left,Distractor,0,52,52,52,2268.938645703369,2270.940534904861,left,1,4,0.5411970396526158,W08E03,2022-09-02_10h30.13.106,t1_Paradigm,2021.1.4,59.96037509380557,
S,left,Distractor,0,53,53,53,2272.43889207911,2274.4405326592387,left,1,4,0.44904449200839736,W08E03,2022-09-02_10h30.13.106,t1_Paradigm,2021.1.4,59.96037509380557,
Q,left,Distractor,0,54,54,54,2275.9385128914437,2277.939579557249,left,1,4,0.8540143526624888,W08E03,2022-09-02_10h30.13.106,t1_Paradigm,2021.1.4,59.96037509380557,
Y,right,Target,0,55,55,55,2279.4385706357425,2281.4402564489283,right,1,4,0.6333101286727469,W08E03,2022-09-02_10h30.13.106,t1_Paradigm,2021.1.4,59.96037509380557,
R,left,Distractor,0,56,56,56,2282.9386133023654,2284.9404184538,left,1,4,1.2931159152940381,W08E03,2022-09-02_10h30.13.106,t1_Paradigm,2021.1.4,59.96037509380557,
H,left,Pretarget,0,57,57,57,2286.4385626157164,2288.439300780534,right,0,4,0.7861397604865488,W08E03,2022-09-02_10h30.13.106,t1_Paradigm,2021.1.4,59.96037509380557,
J,left,Distractor,0,58,58,58,2289.938538234768,2291.9406673959747,left,1,4,0.7890205601870548,W08E03,2022-09-02_10h30.13.106,t1_Paradigm,2021.1.4,59.96037509380557,
V,left,Distractor,0,59,59,59,2293.4386598186393,2295.4391060538765,left,1,4,1.3544872144411784,W08E03,2022-09-02_10h30.13.106,t1_Paradigm,2021.1.4,59.96037509380557,
Y,left,Lure,0,60,60,60,2296.9383380544896,2298.940615746891,left,1,4,1.2929157350154128,W08E03,2022-09-02_10h30.13.106,t1_Paradigm,2021.1.4,59.96037509380557,
H,right,Target,0,61,61,61,2300.4385792973917,2302.439276720397,left,0,4,1.3304328577942215,W08E03,2022-09-02_10h30.13.106,t1_Paradigm,2021.1.4,59.96037509380557,
L,left,Distractor,0,62,62,62,2303.9383457537333,2305.940667716757,left,1,4,0.6290514854772482,W08E03,2022-09-02_10h30.13.106,t1_Paradigm,2021.1.4,59.96037509380557,
P,left,Distractor,0,63,63,63,2307.4385594076884,2309.440513731941,left,1,4,0.8089243838330731,W08E03,2022-09-02_10h30.13.106,t1_Paradigm,2021.1.4,59.96037509380557,
