Letter,CorrAnswer,Stimulus,finaln_nback_run.thisRepN,finaln_nback_run.thisTrialN,finaln_nback_run.thisN,finaln_nback_run.thisIndex,finaln_fixcross.started,finaln_nback_trial.started,finaln_trial_resp.keys,finaln_trial_resp.corr,finaln_level,finaln_money,finaln_trial_resp.rt,Participant,date,expName,psychopyVersion,frameRate,
F,left,Distractor,0,0,0,0,3554.313991749601,3556.3064702246047,None,0,1,1.71,,W16C01,2022-11-28_09h18.44.336,t1_Paradigm,2021.1.4,59.94129298433906,
T,left,Pretarget,0,1,1,1,3557.8049138534116,3559.806634314853,left,1,1,1.71,1.1735827847442124,W16C01,2022-11-28_09h18.44.336,t1_Paradigm,2021.1.4,59.94129298433906,
B,left,Distractor,0,2,2,2,3561.304961171729,3563.3066858035745,left,1,1,1.71,1.2734523145481944,W16C01,2022-11-28_09h18.44.336,t1_Paradigm,2021.1.4,59.94129298433906,
T,right,Target,0,3,3,3,3564.8049077581964,3566.8071848111867,right,1,1,1.71,1.0847950411844067,W16C01,2022-11-28_09h18.44.336,t1_Paradigm,2021.1.4,59.94129298433906,
Z,left,Distractor,0,4,4,4,3568.304879367206,3570.307127868815,left,1,1,1.71,0.7529320506146178,W16C01,2022-11-28_09h18.44.336,t1_Paradigm,2021.1.4,59.94129298433906,
T,right,Target,0,5,5,5,3571.8049340639554,3573.8071145555296,right,1,1,1.71,1.0610451025131624,W16C01,2022-11-28_09h18.44.336,t1_Paradigm,2021.1.4,59.94129298433906,
L,left,Distractor,0,6,6,6,3575.3049630965397,3577.3072882698325,left,1,1,1.71,0.7288783123949543,W16C01,2022-11-28_09h18.44.336,t1_Paradigm,2021.1.4,59.94129298433906,
T,right,Target,0,7,7,7,3578.8047932318586,3580.8068797284213,right,1,1,1.71,1.453100503742462,W16C01,2022-11-28_09h18.44.336,t1_Paradigm,2021.1.4,59.94129298433906,
Z,left,Lure,0,8,8,8,3582.3048527406354,3584.3069376331987,right,0,1,1.71,1.0731874603661709,W16C01,2022-11-28_09h18.44.336,t1_Paradigm,2021.1.4,59.94129298433906,
J,left,Distractor,0,9,9,9,3585.804817612807,3587.807179036754,left,1,1,1.71,0.7088070109311957,W16C01,2022-11-28_09h18.44.336,t1_Paradigm,2021.1.4,59.94129298433906,
D,left,Pretarget,0,10,10,10,3589.304881933611,3591.306779156992,left,1,1,1.71,0.8412264005746692,W16C01,2022-11-28_09h18.44.336,t1_Paradigm,2021.1.4,59.94129298433906,
H,left,Distractor,0,11,11,11,3592.8049873170967,3594.806924640725,left,1,1,1.71,0.6212007813446689,W16C01,2022-11-28_09h18.44.336,t1_Paradigm,2021.1.4,59.94129298433906,
D,right,Target,0,12,12,12,3596.304790825845,3598.3068208612385,right,1,1,1.71,0.9932945954205934,W16C01,2022-11-28_09h18.44.336,t1_Paradigm,2021.1.4,59.94129298433906,
S,left,Distractor,0,13,13,13,3599.8049058333563,3601.8069134126417,left,1,1,1.71,0.7732384999690112,W16C01,2022-11-28_09h18.44.336,t1_Paradigm,2021.1.4,59.94129298433906,
R,left,Pretarget,0,14,14,14,3603.3049505852687,3605.306663668249,left,1,1,1.71,0.9052482253755443,W16C01,2022-11-28_09h18.44.336,t1_Paradigm,2021.1.4,59.94129298433906,
Z,left,Distractor,0,15,15,15,3606.8049680689583,3608.8051066554617,right,0,1,1.71,0.9590390310331713,W16C01,2022-11-28_09h18.44.336,t1_Paradigm,2021.1.4,59.94129298433906,
R,right,Target,0,16,16,16,3610.3050166704925,3612.306699918874,right,1,1,1.71,1.0734120217966847,W16C01,2022-11-28_09h18.44.336,t1_Paradigm,2021.1.4,59.94129298433906,
T,left,Distractor,0,17,17,17,3613.805131678004,3615.806367407553,left,1,1,1.71,1.0935760350548662,W16C01,2022-11-28_09h18.44.336,t1_Paradigm,2021.1.4,59.94129298433906,
M,left,Distractor,0,18,18,18,3617.3048200188205,3619.306939237198,left,1,1,1.71,0.6330637205974199,W16C01,2022-11-28_09h18.44.336,t1_Paradigm,2021.1.4,59.94129298433906,
R,left,Lure,0,19,19,19,3620.8041731214616,3622.807120009151,right,0,1,1.71,0.9730240758508444,W16C01,2022-11-28_09h18.44.336,t1_Paradigm,2021.1.4,59.94129298433906,
J,left,Distractor,0,20,20,20,3624.304929091508,3626.3069924903393,left,1,1,1.71,0.7210626119049266,W16C01,2022-11-28_09h18.44.336,t1_Paradigm,2021.1.4,59.94129298433906,
K,left,Distractor,0,21,21,21,3627.8049504248484,3629.8050501942926,left,1,1,1.71,0.7272816805634648,W16C01,2022-11-28_09h18.44.336,t1_Paradigm,2021.1.4,59.94129298433906,
Z,left,Distractor,0,22,22,22,3631.304867497529,3633.3070406106417,left,1,1,1.71,0.6811410415684804,W16C01,2022-11-28_09h18.44.336,t1_Paradigm,2021.1.4,59.94129298433906,
W,left,Pretarget,0,23,23,23,3634.804891718086,3636.8070503951167,left,1,1,1.71,0.8131145164079498,W16C01,2022-11-28_09h18.44.336,t1_Paradigm,2021.1.4,59.94129298433906,
Q,left,Distractor,0,24,24,24,3638.3048254724417,3640.3065395178564,left,1,1,1.71,0.801490895479219,W16C01,2022-11-28_09h18.44.336,t1_Paradigm,2021.1.4,59.94129298433906,
W,right,Target,0,25,25,25,3641.804980901041,3643.806733442674,right,1,1,1.71,0.9012776583549567,W16C01,2022-11-28_09h18.44.336,t1_Paradigm,2021.1.4,59.94129298433906,
D,left,Pretarget,0,26,26,26,3645.3049714373774,3647.306898495357,left,1,1,1.71,0.9369899848825298,W16C01,2022-11-28_09h18.44.336,t1_Paradigm,2021.1.4,59.94129298433906,
W,right,Target,0,27,27,27,3648.804783607775,3650.8055227357254,left,0,1,1.71,1.3746570225048345,W16C01,2022-11-28_09h18.44.336,t1_Paradigm,2021.1.4,59.94129298433906,
D,right,Target,0,28,28,28,3652.304900219344,3654.3059915879276,right,1,1,1.71,0.9782002170395572,W16C01,2022-11-28_09h18.44.336,t1_Paradigm,2021.1.4,59.94129298433906,
L,left,Pretarget,0,29,29,29,3655.804916099034,3657.8061579237983,left,1,1,1.71,0.9018996935337782,W16C01,2022-11-28_09h18.44.336,t1_Paradigm,2021.1.4,59.94129298433906,
P,left,Distractor,0,30,30,30,3659.3050487506844,3661.3072305254755,left,1,1,1.71,0.8249697563878726,W16C01,2022-11-28_09h18.44.336,t1_Paradigm,2021.1.4,59.94129298433906,
L,right,Target,0,31,31,31,3662.8046796679264,3664.807184490375,right,1,1,1.71,1.1168335425318219,W16C01,2022-11-28_09h18.44.336,t1_Paradigm,2021.1.4,59.94129298433906,
R,left,Distractor,0,32,32,32,3666.3049342243467,3668.3065212321235,left,1,1,1.71,1.1375637714518234,W16C01,2022-11-28_09h18.44.336,t1_Paradigm,2021.1.4,59.94129298433906,
V,left,Distractor,0,33,33,33,3669.804828199267,3671.806480971456,left,1,1,1.71,0.8855910793936346,W16C01,2022-11-28_09h18.44.336,t1_Paradigm,2021.1.4,59.94129298433906,
L,left,Lure,0,34,34,34,3673.304861723096,3675.3070245705603,right,0,1,1.71,0.7451602999935858,W16C01,2022-11-28_09h18.44.336,t1_Paradigm,2021.1.4,59.94129298433906,
H,left,Distractor,0,35,35,35,3676.804967748176,3678.806697192049,left,1,1,1.71,0.7653868696361315,W16C01,2022-11-28_09h18.44.336,t1_Paradigm,2021.1.4,59.94129298433906,
K,left,Pretarget,0,36,36,36,3680.305035918602,3682.3068202196446,left,1,1,1.71,0.6892274990095757,W16C01,2022-11-28_09h18.44.336,t1_Paradigm,2021.1.4,59.94129298433906,
F,left,Distractor,0,37,37,37,3683.804963256931,3685.8065598887624,right,0,1,1.71,1.1416026693186723,W16C01,2022-11-28_09h18.44.336,t1_Paradigm,2021.1.4,59.94129298433906,
K,right,Target,0,38,38,38,3687.3039894622925,3689.3074554077175,right,1,1,1.71,0.9684962756582536,W16C01,2022-11-28_09h18.44.336,t1_Paradigm,2021.1.4,59.94129298433906,
S,left,Pretarget,0,39,39,39,3690.804854505055,3692.8064995780005,left,1,1,1.71,0.6215741949272342,W16C01,2022-11-28_09h18.44.336,t1_Paradigm,2021.1.4,59.94129298433906,
W,left,Distractor,0,40,40,40,3694.304922675481,3696.306953031686,left,1,1,1.71,0.6732072859304026,W16C01,2022-11-28_09h18.44.336,t1_Paradigm,2021.1.4,59.94129298433906,
S,right,Target,0,41,41,41,3697.8048769611923,3699.807285222225,right,1,1,1.71,0.8847553900268395,W16C01,2022-11-28_09h18.44.336,t1_Paradigm,2021.1.4,59.94129298433906,
F,left,Pretarget,0,42,42,42,3701.304806545144,3703.306380079215,left,1,1,1.71,1.1138459129724652,W16C01,2022-11-28_09h18.44.336,t1_Paradigm,2021.1.4,59.94129298433906,
Y,left,Distractor,0,43,43,43,3704.80500207399,3706.806373502768,left,1,1,1.71,1.1176698734925594,W16C01,2022-11-28_09h18.44.336,t1_Paradigm,2021.1.4,59.94129298433906,
F,right,Target,0,44,44,44,3708.3049845902715,3710.3040674171934,left,0,1,1.71,0.9481272698612884,W16C01,2022-11-28_09h18.44.336,t1_Paradigm,2021.1.4,59.94129298433906,
F,left,Lure,0,45,45,45,3711.8049735226086,3713.805049231887,left,1,1,1.71,1.1272871983528603,W16C01,2022-11-28_09h18.44.336,t1_Paradigm,2021.1.4,59.94129298433906,
B,left,Pretarget,0,46,46,46,3715.3049740038114,3717.306632871245,left,1,1,1.71,0.8413714031339623,W16C01,2022-11-28_09h18.44.336,t1_Paradigm,2021.1.4,59.94129298433906,
W,left,Distractor,0,47,47,47,3718.804862845893,3720.8067597484624,left,1,1,1.71,0.8773532033665106,W16C01,2022-11-28_09h18.44.336,t1_Paradigm,2021.1.4,59.94129298433906,
B,right,Target,0,48,48,48,3722.3049294123193,3724.307070124458,left,0,1,1.71,0.7689830606977921,W16C01,2022-11-28_09h18.44.336,t1_Paradigm,2021.1.4,59.94129298433906,
R,left,Pretarget,0,49,49,49,3725.80495427447,3727.807102365041,left,1,1,1.71,0.9810653002059553,W16C01,2022-11-28_09h18.44.336,t1_Paradigm,2021.1.4,59.94129298433906,
N,left,Distractor,0,50,50,50,3729.304981061461,3731.3065369514225,left,1,1,1.71,0.7456755080784205,W16C01,2022-11-28_09h18.44.336,t1_Paradigm,2021.1.4,59.94129298433906,
R,right,Target,0,51,51,51,3732.804871507542,3734.806329552899,right,1,1,1.71,0.8298552508931607,W16C01,2022-11-28_09h18.44.336,t1_Paradigm,2021.1.4,59.94129298433906,
V,left,Distractor,0,52,52,52,3736.3049136930204,3738.307179838739,left,1,1,1.71,0.6888393285335042,W16C01,2022-11-28_09h18.44.336,t1_Paradigm,2021.1.4,59.94129298433906,
G,left,Distractor,0,53,53,53,3739.8048801692203,3741.8065509063017,left,1,1,1.71,0.7415714873641264,W16C01,2022-11-28_09h18.44.336,t1_Paradigm,2021.1.4,59.94129298433906,
H,left,Distractor,0,54,54,54,3743.304864289501,3745.30649941758,left,1,1,1.71,0.7296998864621855,W16C01,2022-11-28_09h18.44.336,t1_Paradigm,2021.1.4,59.94129298433906,
V,left,Lure,0,55,55,55,3746.805034154182,3748.8064184150717,right,0,1,1.71,0.9737484469078481,W16C01,2022-11-28_09h18.44.336,t1_Paradigm,2021.1.4,59.94129298433906,
L,left,Distractor,0,56,56,56,3750.304922033887,3752.306942445226,left,1,1,1.71,0.6892159501439892,W16C01,2022-11-28_09h18.44.336,t1_Paradigm,2021.1.4,59.94129298433906,
K,left,Distractor,0,57,57,57,3753.8048509762157,3755.807228119462,left,1,1,1.71,0.7409298832644708,W16C01,2022-11-28_09h18.44.336,t1_Paradigm,2021.1.4,59.94129298433906,
D,left,Pretarget,0,58,58,58,3757.304893803288,3759.3067849314248,left,1,1,1.71,0.8732151776493993,W16C01,2022-11-28_09h18.44.336,t1_Paradigm,2021.1.4,59.94129298433906,
T,left,Pretarget,0,59,59,59,3760.804952028877,3762.8070654728217,left,1,1,1.71,0.764925556286471,W16C01,2022-11-28_09h18.44.336,t1_Paradigm,2021.1.4,59.94129298433906,
D,right,Target,0,60,60,60,3764.304926525103,3766.3070338738034,right,1,1,1.71,0.6253060852759518,W16C01,2022-11-28_09h18.44.336,t1_Paradigm,2021.1.4,59.94129298433906,
T,right,Target,0,61,61,61,3767.804907437385,3769.8064517784806,right,1,1,1.71,1.2376338025205769,W16C01,2022-11-28_09h18.44.336,t1_Paradigm,2021.1.4,59.94129298433906,
T,left,Lure,0,62,62,62,3771.3049759286223,3773.304868139123,right,0,1,1.71,0.9550405541958753,W16C01,2022-11-28_09h18.44.336,t1_Paradigm,2021.1.4,59.94129298433906,
F,left,Distractor,0,63,63,63,3774.804957482498,3776.8070202397357,left,1,1,1.71,1.3089695934322663,W16C01,2022-11-28_09h18.44.336,t1_Paradigm,2021.1.4,59.94129298433906,
