Letter,CorrAnswer,Stimulus,nback_run.thisRepN,nback_run.thisTrialN,nback_run.thisN,nback_run.thisIndex,fixcross.started,nback_trial.started,trial_resp.keys,trial_resp.corr,currentlevel,trial_resp.rt,Participant,date,expName,psychopyVersion,frameRate,
H,left,Distractor,0,0,0,0,234.9818666637584,236.90657474190812,None,0,1,,W16C01,2022-11-28_09h18.44.336,t1_Paradigm,2021.1.4,59.94129298433906,
Q,left,Pretarget,0,1,1,1,238.40762360423105,240.40841373970034,left,1,1,0.9074017696257215,W16C01,2022-11-28_09h18.44.336,t1_Paradigm,2021.1.4,59.94129298433906,
Q,right,Target,0,2,2,2,241.904829578707,243.9050935988198,right,1,1,1.0425078764965292,W16C01,2022-11-28_09h18.44.336,t1_Paradigm,2021.1.4,59.94129298433906,
T,left,Distractor,0,3,3,3,245.4048396839935,247.40763932353002,left,1,1,0.6599132487026509,W16C01,2022-11-28_09h18.44.336,t1_Paradigm,2021.1.4,59.94129298433906,
Q,left,Lure,0,4,4,4,248.90468361377134,250.90412060616654,left,1,1,0.8275008846248966,W16C01,2022-11-28_09h18.44.336,t1_Paradigm,2021.1.4,59.94129298433906,
L,left,Distractor,0,5,5,5,252.40489004991832,254.4063942907378,left,1,1,0.685040711396141,W16C01,2022-11-28_09h18.44.336,t1_Paradigm,2021.1.4,59.94129298433906,
V,left,Pretarget,0,6,6,6,255.90499415018712,257.9063395939884,left,1,1,0.7371729703736492,W16C01,2022-11-28_09h18.44.336,t1_Paradigm,2021.1.4,59.94129298433906,
V,right,Target,0,7,7,7,259.40507515269564,261.40498019527877,right,1,1,0.7745759237441234,W16C01,2022-11-28_09h18.44.336,t1_Paradigm,2021.1.4,59.94129298433906,
K,left,Distractor,0,8,8,8,262.90507402989897,264.9078249075101,left,1,1,0.6476820287061855,W16C01,2022-11-28_09h18.44.336,t1_Paradigm,2021.1.4,59.94129298433906,
G,left,Pretarget,0,9,9,9,266.40493464138126,268.4075600854121,right,0,1,0.5400744325015694,W16C01,2022-11-28_09h18.44.336,t1_Paradigm,2021.1.4,59.94129298433906,
G,right,Target,0,10,10,10,269.90483342835796,271.9049473130726,right,1,1,0.770619471964892,W16C01,2022-11-28_09h18.44.336,t1_Paradigm,2021.1.4,59.94129298433906,
G,right,Target,0,11,11,11,273.40492982935393,275.4048063205846,right,1,1,0.5186714816954918,W16C01,2022-11-28_09h18.44.336,t1_Paradigm,2021.1.4,59.94129298433906,
P,left,Pretarget,0,12,12,12,276.9049216489075,278.90629051128053,left,1,1,0.5692077504645567,W16C01,2022-11-28_09h18.44.336,t1_Paradigm,2021.1.4,59.94129298433906,
P,right,Target,0,13,13,13,280.4048900499183,282.40491828048835,right,1,1,0.7185311628854834,W16C01,2022-11-28_09h18.44.336,t1_Paradigm,2021.1.4,59.94129298433906,
G,left,Lure,0,14,14,14,283.90398554850253,285.90631104260683,left,1,1,0.6413125038670842,W16C01,2022-11-28_09h18.44.336,t1_Paradigm,2021.1.4,59.94129298433906,
Y,left,Distractor,0,15,15,15,287.4049205261108,289.40802685241215,left,1,1,0.6756906146474648,W16C01,2022-11-28_09h18.44.336,t1_Paradigm,2021.1.4,59.94129298433906,
B,left,Distractor,0,16,16,16,290.9050435537065,292.90676176949637,left,1,1,0.6968119012308307,W16C01,2022-11-28_09h18.44.336,t1_Paradigm,2021.1.4,59.94129298433906,
T,left,Pretarget,0,17,17,17,294.4050379396649,296.40648571934435,left,1,1,0.6527766861545388,W16C01,2022-11-28_09h18.44.336,t1_Paradigm,2021.1.4,59.94129298433906,
T,right,Target,0,18,18,18,297.9049177992856,299.90496656121104,right,1,1,0.6746229853888508,W16C01,2022-11-28_09h18.44.336,t1_Paradigm,2021.1.4,59.94129298433906,
S,left,Distractor,0,19,19,19,301.4040418492805,303.40745903278,left,1,1,0.8360316528996918,W16C01,2022-11-28_09h18.44.336,t1_Paradigm,2021.1.4,59.94129298433906,
T,left,Lure,0,20,20,20,304.90499318778166,306.90639220553567,left,1,1,0.82524372136686,W16C01,2022-11-28_09h18.44.336,t1_Paradigm,2021.1.4,59.94129298433906,
J,left,Distractor,0,21,21,21,308.405138992297,310.4082016895409,left,1,1,0.6192830266372766,W16C01,2022-11-28_09h18.44.336,t1_Paradigm,2021.1.4,59.94129298433906,
P,left,Distractor,0,22,22,22,311.90480231054244,313.9041331174667,left,1,1,0.6116960580111481,W16C01,2022-11-28_09h18.44.336,t1_Paradigm,2021.1.4,59.94129298433906,
F,left,Distractor,0,23,23,23,315.40482717269333,317.40798578975955,left,1,1,0.48353627807227895,W16C01,2022-11-28_09h18.44.336,t1_Paradigm,2021.1.4,59.94129298433906,
L,left,Distractor,0,24,24,24,318.9049970374035,320.90737418062054,left,1,1,0.5360682563914452,W16C01,2022-11-28_09h18.44.336,t1_Paradigm,2021.1.4,59.94129298433906,
W,left,Pretarget,0,25,25,25,322.4049003155669,324.4067138096143,left,1,1,0.4927506755338982,W16C01,2022-11-28_09h18.44.336,t1_Paradigm,2021.1.4,59.94129298433906,
W,right,Target,0,26,26,26,325.9049906213477,327.90514268152765,right,1,1,0.7223833539756015,W16C01,2022-11-28_09h18.44.336,t1_Paradigm,2021.1.4,59.94129298433906,
V,left,Distractor,0,27,27,27,329.40505013012444,331.4040084858716,left,1,1,0.5996569984417874,W16C01,2022-11-28_09h18.44.336,t1_Paradigm,2021.1.4,59.94129298433906,
W,left,Lure,0,28,28,28,332.90506023541093,334.90697959411773,left,1,1,0.6165186753205489,W16C01,2022-11-28_09h18.44.336,t1_Paradigm,2021.1.4,59.94129298433906,
R,left,Pretarget,0,29,29,29,336.40494747346384,338.4081946318911,left,1,1,0.5394379612116609,W16C01,2022-11-28_09h18.44.336,t1_Paradigm,2021.1.4,59.94129298433906,
R,right,Target,0,30,30,30,339.9049030423921,341.9051959346689,right,1,1,0.6263121205265634,W16C01,2022-11-28_09h18.44.336,t1_Paradigm,2021.1.4,59.94129298433906,
G,left,Distractor,0,31,31,31,343.40485251607606,345.40725981470314,left,1,1,0.5322317846002989,W16C01,2022-11-28_09h18.44.336,t1_Paradigm,2021.1.4,59.94129298433906,
R,left,Lure,0,32,32,32,346.90480840578675,348.906564155448,left,1,1,0.6812578135286458,W16C01,2022-11-28_09h18.44.336,t1_Paradigm,2021.1.4,59.94129298433906,
S,left,Distractor,0,33,33,33,350.4048339095607,352.4071510627982,left,1,1,0.4922197481209878,W16C01,2022-11-28_09h18.44.336,t1_Paradigm,2021.1.4,59.94129298433906,
R,left,Lure,0,34,34,34,353.904997999809,355.90663088226574,left,1,1,0.6729702131997328,W16C01,2022-11-28_09h18.44.336,t1_Paradigm,2021.1.4,59.94129298433906,
P,left,Pretarget,0,35,35,35,357.4050565461803,359.40681133343605,left,1,1,0.5487017621926498,W16C01,2022-11-28_09h18.44.336,t1_Paradigm,2021.1.4,59.94129298433906,
P,right,Target,0,36,36,36,360.9051080349018,362.90489790955326,right,1,1,0.7147540394507814,W16C01,2022-11-28_09h18.44.336,t1_Paradigm,2021.1.4,59.94129298433906,
Y,left,Pretarget,0,37,37,37,364.4049834033067,366.40673337853514,left,1,1,0.47663903384818695,W16C01,2022-11-28_09h18.44.336,t1_Paradigm,2021.1.4,59.94129298433906,
Y,right,Target,0,38,38,38,367.90497843088815,369.90501051108004,right,1,1,0.4827548042521812,W16C01,2022-11-28_09h18.44.336,t1_Paradigm,2021.1.4,59.94129298433906,
J,left,Distractor,0,39,39,39,371.40493303738185,373.4066390627122,left,1,1,0.7728968457959127,W16C01,2022-11-28_09h18.44.336,t1_Paradigm,2021.1.4,59.94129298433906,
Y,left,Lure,0,40,40,40,374.9049017591751,376.9070684562612,left,1,1,0.9844061328331009,W16C01,2022-11-28_09h18.44.336,t1_Paradigm,2021.1.4,59.94129298433906,
T,left,Distractor,0,41,41,41,378.404913468461,380.4069672432379,left,1,1,0.49249852512730286,W16C01,2022-11-28_09h18.44.336,t1_Paradigm,2021.1.4,59.94129298433906,
V,left,Distractor,0,42,42,42,381.90489213512046,383.9072856392595,left,1,1,0.4803593753022142,W16C01,2022-11-28_09h18.44.336,t1_Paradigm,2021.1.4,59.94129298433906,
N,left,Pretarget,0,43,43,43,385.4040877239604,387.4076746117498,left,1,1,0.4998327017237898,W16C01,2022-11-28_09h18.44.336,t1_Paradigm,2021.1.4,59.94129298433906,
N,right,Target,0,44,44,44,388.9049322353676,390.90507820030325,right,1,1,0.6344133348320611,W16C01,2022-11-28_09h18.44.336,t1_Paradigm,2021.1.4,59.94129298433906,
N,right,Target,0,45,45,45,392.4049070524052,394.4050761151011,right,1,1,0.622468270274112,W16C01,2022-11-28_09h18.44.336,t1_Paradigm,2021.1.4,59.94129298433906,
X,left,Distractor,0,46,46,46,395.9050089070806,397.9067239148717,left,1,1,0.5129804532334674,W16C01,2022-11-28_09h18.44.336,t1_Paradigm,2021.1.4,59.94129298433906,
Z,left,Distractor,0,47,47,47,399.4048967867566,401.40689794998616,left,1,1,0.5486247696971986,W16C01,2022-11-28_09h18.44.336,t1_Paradigm,2021.1.4,59.94129298433906,
H,left,Pretarget,0,48,48,48,402.90488603987615,404.9069603459793,left,1,1,0.5205414368829224,W16C01,2022-11-28_09h18.44.336,t1_Paradigm,2021.1.4,59.94129298433906,
H,right,Target,0,49,49,49,406.40495645592455,408.40504884693655,right,1,1,0.6224477389187086,W16C01,2022-11-28_09h18.44.336,t1_Paradigm,2021.1.4,59.94129298433906,
K,left,Distractor,0,50,50,50,409.9047224308306,411.90748261171393,left,1,1,0.6083273156255018,W16C01,2022-11-28_09h18.44.336,t1_Paradigm,2021.1.4,59.94129298433906,
V,left,Pretarget,0,51,51,51,413.40485957372584,415.4072768172191,left,1,1,0.5805779377405997,W16C01,2022-11-28_09h18.44.336,t1_Paradigm,2021.1.4,59.94129298433906,
V,right,Target,0,52,52,52,416.90506921787164,418.904830861924,right,1,1,0.6834957286773715,W16C01,2022-11-28_09h18.44.336,t1_Paradigm,2021.1.4,59.94129298433906,
R,left,Distractor,0,53,53,53,420.40483615515404,422.4068530376826,left,1,1,0.5887388212722726,W16C01,2022-11-28_09h18.44.336,t1_Paradigm,2021.1.4,59.94129298433906,
V,left,Lure,0,54,54,54,423.9048853982822,425.90679513293435,left,1,1,0.6888053235015832,W16C01,2022-11-28_09h18.44.336,t1_Paradigm,2021.1.4,59.94129298433906,
Y,left,Distractor,0,55,55,55,427.4040072026546,429.40697109285975,left,1,1,0.6768092514248565,W16C01,2022-11-28_09h18.44.336,t1_Paradigm,2021.1.4,59.94129298433906,
Q,left,Distractor,0,56,56,56,430.90490047598723,432.9067989825562,left,1,1,0.5687198105151765,W16C01,2022-11-28_09h18.44.336,t1_Paradigm,2021.1.4,59.94129298433906,
Z,left,Pretarget,0,57,57,57,434.40487593461876,436.4066079449258,left,1,1,0.46122770305373706,W16C01,2022-11-28_09h18.44.336,t1_Paradigm,2021.1.4,59.94129298433906,
Z,right,Target,0,58,58,58,437.90486679176684,439.90502655119053,right,1,1,0.49865535818389617,W16C01,2022-11-28_09h18.44.336,t1_Paradigm,2021.1.4,59.94129298433906,
B,left,Distractor,0,59,59,59,441.4049952729838,443.40401971392566,left,1,1,0.48751935639302246,W16C01,2022-11-28_09h18.44.336,t1_Paradigm,2021.1.4,59.94129298433906,
S,left,Pretarget,0,60,60,60,444.90488636068767,446.9065513233654,left,1,1,0.5850678833376151,W16C01,2022-11-28_09h18.44.336,t1_Paradigm,2021.1.4,59.94129298433906,
S,right,Target,0,61,61,61,448.40483455115464,450.40498564892914,right,1,1,0.4626790115435142,W16C01,2022-11-28_09h18.44.336,t1_Paradigm,2021.1.4,59.94129298433906,
T,left,Distractor,0,62,62,62,451.90499158375314,453.90575541346334,left,1,1,0.6258819249633234,W16C01,2022-11-28_09h18.44.336,t1_Paradigm,2021.1.4,59.94129298433906,
D,left,Distractor,0,63,63,63,455.4049073732167,457.4075742007117,left,1,1,0.4519334258802701,W16C01,2022-11-28_09h18.44.336,t1_Paradigm,2021.1.4,59.94129298433906,
R,left,Distractor,0,0,0,0,487.6518319241004,489.65706998007954,None,0,1,,W16C01,2022-11-28_09h18.44.336,t1_Paradigm,2021.1.4,59.94129298433906,
V,left,Distractor,0,1,1,1,491.154834791756,493.15731074204086,left,1,1,0.4624050465936307,W16C01,2022-11-28_09h18.44.336,t1_Paradigm,2021.1.4,59.94129298433906,
N,left,Pretarget,0,2,2,2,494.65492317272583,496.65687044119113,left,1,1,0.4666200648061931,W16C01,2022-11-28_09h18.44.336,t1_Paradigm,2021.1.4,59.94129298433906,
N,right,Target,0,3,3,3,498.15494578925427,500.1549595837423,right,1,1,0.5845286150579341,W16C01,2022-11-28_09h18.44.336,t1_Paradigm,2021.1.4,59.94129298433906,
S,left,Distractor,0,4,4,4,501.65467711753445,503.6568653083814,left,1,1,0.7788320046383888,W16C01,2022-11-28_09h18.44.336,t1_Paradigm,2021.1.4,59.94129298433906,
N,left,Lure,0,5,5,5,505.154940335633,507.1568625815562,left,1,1,0.6227409520070069,W16C01,2022-11-28_09h18.44.336,t1_Paradigm,2021.1.4,59.94129298433906,
Z,left,Distractor,0,6,6,6,508.6547043857281,510.6716469047242,left,1,1,0.5640040202706587,W16C01,2022-11-28_09h18.44.336,t1_Paradigm,2021.1.4,59.94129298433906,
L,left,Pretarget,0,7,7,7,512.1549165962788,514.1565754637122,left,1,1,0.5029310079989955,W16C01,2022-11-28_09h18.44.336,t1_Paradigm,2021.1.4,59.94129298433906,
L,right,Target,0,8,8,8,515.654977067461,517.6549398544303,right,1,1,0.5406708035152406,W16C01,2022-11-28_09h18.44.336,t1_Paradigm,2021.1.4,59.94129298433906,
H,left,Distractor,0,9,9,9,519.154834791756,521.1569546517567,left,1,1,0.5747088641219307,W16C01,2022-11-28_09h18.44.336,t1_Paradigm,2021.1.4,59.94129298433906,
L,left,Lure,0,10,10,10,522.6549456288631,524.6568839148968,left,1,1,0.5308032530592754,W16C01,2022-11-28_09h18.44.336,t1_Paradigm,2021.1.4,59.94129298433906,
X,left,Pretarget,0,11,11,11,526.1548319045396,528.1568930577487,left,1,1,0.7907587834924925,W16C01,2022-11-28_09h18.44.336,t1_Paradigm,2021.1.4,59.94129298433906,
X,right,Target,0,12,12,12,529.6549244559428,531.6548012679268,right,1,1,0.6369178364984691,W16C01,2022-11-28_09h18.44.336,t1_Paradigm,2021.1.4,59.94129298433906,
X,right,Target,0,13,13,13,533.155028876994,535.1550632028084,right,1,1,0.6725554161530454,W16C01,2022-11-28_09h18.44.336,t1_Paradigm,2021.1.4,59.94129298433906,
R,left,Distractor,0,14,14,14,536.6548067215772,538.6567655389372,left,1,1,0.6111792458978016,W16C01,2022-11-28_09h18.44.336,t1_Paradigm,2021.1.4,59.94129298433906,
T,left,Distractor,0,15,15,15,540.1549056890071,542.1558568671171,left,1,1,0.503638697322458,W16C01,2022-11-28_09h18.44.336,t1_Paradigm,2021.1.4,59.94129298433906,
V,left,Pretarget,0,16,16,16,543.6547159345937,545.656874932436,left,1,1,0.49063370274961926,W16C01,2022-11-28_09h18.44.336,t1_Paradigm,2021.1.4,59.94129298433906,
V,right,Target,0,17,17,17,547.1549756238528,549.1550121952896,right,1,1,0.5607998493651394,W16C01,2022-11-28_09h18.44.336,t1_Paradigm,2021.1.4,59.94129298433906,
N,left,Distractor,0,18,18,18,550.6549267015362,552.6564610977657,left,1,1,1.059336189966416,W16C01,2022-11-28_09h18.44.336,t1_Paradigm,2021.1.4,59.94129298433906,
B,left,Distractor,0,19,19,19,554.1549640749872,556.1572048773523,left,1,1,0.5663150782929733,W16C01,2022-11-28_09h18.44.336,t1_Paradigm,2021.1.4,59.94129298433906,
V,left,Lure,0,20,20,20,557.6549648770015,559.6570205765602,left,1,1,0.5065169333829544,W16C01,2022-11-28_09h18.44.336,t1_Paradigm,2021.1.4,59.94129298433906,
P,left,Distractor,0,21,21,21,561.154925257928,563.1571881956479,left,1,1,0.5262863601092249,W16C01,2022-11-28_09h18.44.336,t1_Paradigm,2021.1.4,59.94129298433906,
K,left,Pretarget,0,22,22,22,564.6548756940174,566.6568197544839,left,1,1,0.5629068772541359,W16C01,2022-11-28_09h18.44.336,t1_Paradigm,2021.1.4,59.94129298433906,
K,right,Target,0,23,23,23,568.1547526664217,570.1550757141085,right,1,1,0.5044294744147919,W16C01,2022-11-28_09h18.44.336,t1_Paradigm,2021.1.4,59.94129298433906,
J,left,Pretarget,0,24,24,24,571.654901037371,573.6569195239281,left,1,1,0.6026077357819304,W16C01,2022-11-28_09h18.44.336,t1_Paradigm,2021.1.4,59.94129298433906,
J,right,Target,0,25,25,25,575.1548806664359,577.1549313531723,right,1,1,0.5445278066326864,W16C01,2022-11-28_09h18.44.336,t1_Paradigm,2021.1.4,59.94129298433906,
H,left,Distractor,0,26,26,26,578.6547691877349,580.6567645765317,left,1,1,0.46670411495142616,W16C01,2022-11-28_09h18.44.336,t1_Paradigm,2021.1.4,59.94129298433906,
J,left,Lure,0,27,27,27,582.1549550925265,584.1572770578205,left,1,1,0.5022608524886891,W16C01,2022-11-28_09h18.44.336,t1_Paradigm,2021.1.4,59.94129298433906,
V,left,Distractor,0,28,28,28,585.6549642353784,587.6567357043386,left,1,1,0.554837101517478,W16C01,2022-11-28_09h18.44.336,t1_Paradigm,2021.1.4,59.94129298433906,
Z,left,Pretarget,0,29,29,29,589.1548620599206,591.1570069424924,left,1,1,0.4786568787822034,W16C01,2022-11-28_09h18.44.336,t1_Paradigm,2021.1.4,59.94129298433906,
Z,right,Target,0,30,30,30,592.6541086563084,594.6549979195988,right,1,1,0.4845310852397233,W16C01,2022-11-28_09h18.44.336,t1_Paradigm,2021.1.4,59.94129298433906,
T,left,Distractor,0,31,31,31,596.1548874033033,598.1574615190038,left,1,1,0.4860882584180217,W16C01,2022-11-28_09h18.44.336,t1_Paradigm,2021.1.4,59.94129298433906,
Z,left,Lure,0,32,32,32,599.6550165261142,601.6568313033495,left,1,1,0.6507142497284804,W16C01,2022-11-28_09h18.44.336,t1_Paradigm,2021.1.4,59.94129298433906,
F,left,Distractor,0,33,33,33,603.1548960649525,605.1570913134201,left,1,1,0.7664644437318202,W16C01,2022-11-28_09h18.44.336,t1_Paradigm,2021.1.4,59.94129298433906,
Y,left,Pretarget,0,34,34,34,606.6549019997765,608.6566423509503,left,1,1,0.7549248729483224,W16C01,2022-11-28_09h18.44.336,t1_Paradigm,2021.1.4,59.94129298433906,
Y,right,Target,0,35,35,35,610.1547494583938,612.1548845160869,right,1,1,1.0648193387314677,W16C01,2022-11-28_09h18.44.336,t1_Paradigm,2021.1.4,59.94129298433906,
Y,right,Target,0,36,36,36,613.6548888469115,615.6548157040379,right,1,1,0.7649066289595794,W16C01,2022-11-28_09h18.44.336,t1_Paradigm,2021.1.4,59.94129298433906,
W,left,Distractor,0,37,37,37,617.154983643908,619.1569280251861,left,1,1,0.7505616442067549,W16C01,2022-11-28_09h18.44.336,t1_Paradigm,2021.1.4,59.94129298433906,
Q,left,Distractor,0,38,38,38,620.6547983807104,622.6568701204087,left,1,1,0.754854617320234,W16C01,2022-11-28_09h18.44.336,t1_Paradigm,2021.1.4,59.94129298433906,
P,left,Pretarget,0,39,39,39,624.1549063306011,626.1571686267271,left,1,1,0.8704023852478713,W16C01,2022-11-28_09h18.44.336,t1_Paradigm,2021.1.4,59.94129298433906,
P,right,Target,0,40,40,40,627.6549825211114,629.6549988820043,right,1,1,0.6366364930872805,W16C01,2022-11-28_09h18.44.336,t1_Paradigm,2021.1.4,59.94129298433906,
J,left,Distractor,0,41,41,41,631.1550712228636,633.1573909425351,left,1,1,0.5902934280165937,W16C01,2022-11-28_09h18.44.336,t1_Paradigm,2021.1.4,59.94129298433906,
P,left,Lure,0,42,42,42,634.6548975085607,636.657070942485,left,1,1,0.9946791770926211,W16C01,2022-11-28_09h18.44.336,t1_Paradigm,2021.1.4,59.94129298433906,
L,left,Distractor,0,43,43,43,638.154864305543,640.1572555640596,left,1,1,0.7103523144323844,W16C01,2022-11-28_09h18.44.336,t1_Paradigm,2021.1.4,59.94129298433906,
Z,left,Distractor,0,44,44,44,641.6548975085607,643.6571235540323,left,1,1,0.6184630565985572,W16C01,2022-11-28_09h18.44.336,t1_Paradigm,2021.1.4,59.94129298433906,
F,left,Pretarget,0,45,45,45,645.1549679246091,647.1571208272071,left,1,1,0.6385135059535969,W16C01,2022-11-28_09h18.44.336,t1_Paradigm,2021.1.4,59.94129298433906,
F,right,Target,0,46,46,46,648.6549668018124,650.6551563958055,right,1,1,0.7404974420787767,W16C01,2022-11-28_09h18.44.336,t1_Paradigm,2021.1.4,59.94129298433906,
G,left,Pretarget,0,47,47,47,652.1547918042925,654.15690043621,left,1,1,0.8067536532180384,W16C01,2022-11-28_09h18.44.336,t1_Paradigm,2021.1.4,59.94129298433906,
G,right,Target,0,48,48,48,655.6549735386507,657.654950120108,right,1,1,0.7005848542030435,W16C01,2022-11-28_09h18.44.336,t1_Paradigm,2021.1.4,59.94129298433906,
V,left,Distractor,0,49,49,49,659.1549618293648,661.1571904412413,left,1,1,0.6384836713550612,W16C01,2022-11-28_09h18.44.336,t1_Paradigm,2021.1.4,59.94129298433906,
G,left,Lure,0,50,50,50,662.6550113932753,664.6565473935334,left,1,1,0.7709608053555712,W16C01,2022-11-28_09h18.44.336,t1_Paradigm,2021.1.4,59.94129298433906,
Q,left,Pretarget,0,51,51,51,666.1549422604439,668.1567865514662,left,1,1,0.6311918405990582,W16C01,2022-11-28_09h18.44.336,t1_Paradigm,2021.1.4,59.94129298433906,
Q,right,Target,0,52,52,52,669.6548538794741,671.6549234935374,right,1,1,0.7488706965814345,W16C01,2022-11-28_09h18.44.336,t1_Paradigm,2021.1.4,59.94129298433906,
Y,left,Distractor,0,53,53,53,673.1548652679485,675.1567531880573,left,1,1,0.8312350205669645,W16C01,2022-11-28_09h18.44.336,t1_Paradigm,2021.1.4,59.94129298433906,
V,left,Distractor,0,54,54,54,676.6548926965334,678.6539642953721,left,1,1,0.7256135098868981,W16C01,2022-11-28_09h18.44.336,t1_Paradigm,2021.1.4,59.94129298433906,
B,left,Distractor,0,55,55,55,680.1548909321136,682.1570505715499,left,1,1,0.5344696997490246,W16C01,2022-11-28_09h18.44.336,t1_Paradigm,2021.1.4,59.94129298433906,
J,left,Pretarget,0,56,56,56,683.6550043356547,685.6574462809076,left,1,1,0.6020700715016574,W16C01,2022-11-28_09h18.44.336,t1_Paradigm,2021.1.4,59.94129298433906,
J,right,Target,0,57,57,57,687.1548954233294,689.1548845160869,right,1,1,0.6726484487298876,W16C01,2022-11-28_09h18.44.336,t1_Paradigm,2021.1.4,59.94129298433906,
H,left,Distractor,0,58,58,58,690.6548750524234,692.656769388559,left,1,1,0.7388716172717977,W16C01,2022-11-28_09h18.44.336,t1_Paradigm,2021.1.4,59.94129298433906,
J,left,Lure,0,59,59,59,694.1549900599639,696.1572433736001,left,1,1,0.7744334876188077,W16C01,2022-11-28_09h18.44.336,t1_Paradigm,2021.1.4,59.94129298433906,
D,left,Pretarget,0,60,60,60,697.6549244559428,699.6569159950886,left,1,1,0.6186844100011513,W16C01,2022-11-28_09h18.44.336,t1_Paradigm,2021.1.4,59.94129298433906,
D,right,Target,0,61,61,61,701.1548941401416,703.1551350624941,right,1,1,0.7524020856071729,W16C01,2022-11-28_09h18.44.336,t1_Paradigm,2021.1.4,59.94129298433906,
R,left,Distractor,0,62,62,62,704.6547348619206,706.656844135432,left,1,1,0.6107949250435922,W16C01,2022-11-28_09h18.44.336,t1_Paradigm,2021.1.4,59.94129298433906,
F,left,Distractor,0,63,63,63,708.1549294283614,710.1568279349303,left,1,1,0.5826997225522064,W16C01,2022-11-28_09h18.44.336,t1_Paradigm,2021.1.4,59.94129298433906,
F,left,Distractor,0,0,0,0,892.5304121953668,894.5214262089576,None,0,2,,W16C01,2022-11-28_09h18.44.336,t1_Paradigm,2021.1.4,59.94129298433906,
N,left,Pretarget,0,1,1,1,896.0215729759075,898.023876334657,None,0,2,,W16C01,2022-11-28_09h18.44.336,t1_Paradigm,2021.1.4,59.94129298433906,
V,left,Distractor,0,2,2,2,899.5207230108499,901.5234315426205,left,1,2,0.5602714883862063,W16C01,2022-11-28_09h18.44.336,t1_Paradigm,2021.1.4,59.94129298433906,
N,right,Target,0,3,3,3,903.0216589508345,905.0240643246507,right,1,2,0.5639045716670807,W16C01,2022-11-28_09h18.44.336,t1_Paradigm,2021.1.4,59.94129298433906,
N,left,Lure,0,4,4,4,906.5215638330264,908.52153271524,left,1,2,0.6180906054214574,W16C01,2022-11-28_09h18.44.336,t1_Paradigm,2021.1.4,59.94129298433906,
X,left,Distractor,0,5,5,5,910.0218588105345,912.0207834820321,left,1,2,0.8309928149974439,W16C01,2022-11-28_09h18.44.336,t1_Paradigm,2021.1.4,59.94129298433906,
G,left,Pretarget,0,6,6,6,913.5215109006967,915.5239056880528,left,1,2,0.751721985230688,W16C01,2022-11-28_09h18.44.336,t1_Paradigm,2021.1.4,59.94129298433906,
H,left,Pretarget,0,7,7,7,917.0215941488277,919.0237152920163,left,1,2,0.6597733790113125,W16C01,2022-11-28_09h18.44.336,t1_Paradigm,2021.1.4,59.94129298433906,
G,right,Target,0,8,8,8,920.5215866099752,922.5230180287617,right,1,2,1.0967686571530066,W16C01,2022-11-28_09h18.44.336,t1_Paradigm,2021.1.4,59.94129298433906,
H,right,Target,0,9,9,9,924.0209464494837,926.0239767456951,right,1,2,0.8918646844103932,W16C01,2022-11-28_09h18.44.336,t1_Paradigm,2021.1.4,59.94129298433906,
T,left,Pretarget,0,10,10,10,927.5216276726569,929.5239117832971,left,1,2,0.927974163874751,W16C01,2022-11-28_09h18.44.336,t1_Paradigm,2021.1.4,59.94129298433906,
K,left,Distractor,0,11,11,11,931.0216361738858,933.0208992915868,left,1,2,0.7268466729728971,W16C01,2022-11-28_09h18.44.336,t1_Paradigm,2021.1.4,59.94129298433906,
T,right,Target,0,12,12,12,934.5214961438032,936.523538048903,right,1,2,0.45617474988102913,W16C01,2022-11-28_09h18.44.336,t1_Paradigm,2021.1.4,59.94129298433906,
T,left,Lure,0,13,13,13,938.0216223793977,940.0215562941739,right,0,2,1.1501854075759184,W16C01,2022-11-28_09h18.44.336,t1_Paradigm,2021.1.4,59.94129298433906,
J,left,Distractor,0,14,14,14,941.5215878931922,943.5236050965323,left,1,2,1.0721114902407862,W16C01,2022-11-28_09h18.44.336,t1_Paradigm,2021.1.4,59.94129298433906,
Q,left,Pretarget,0,15,15,15,945.0215479533363,947.0235555325926,left,1,2,0.5961855993664358,W16C01,2022-11-28_09h18.44.336,t1_Paradigm,2021.1.4,59.94129298433906,
M,left,Distractor,0,16,16,16,948.5215663994604,950.5249781293096,left,1,2,0.7269717857707292,W16C01,2022-11-28_09h18.44.336,t1_Paradigm,2021.1.4,59.94129298433906,
Q,right,Target,0,17,17,17,952.0215787503403,954.0239635928301,right,1,2,0.5237369461683556,W16C01,2022-11-28_09h18.44.336,t1_Paradigm,2021.1.4,59.94129298433906,
R,left,Distractor,0,18,18,18,955.5216421087389,957.5234514323238,left,1,2,0.496322164835874,W16C01,2022-11-28_09h18.44.336,t1_Paradigm,2021.1.4,59.94129298433906,
W,left,Distractor,0,19,19,19,959.0214420886477,961.02304770294,left,1,2,1.0605363104550634,W16C01,2022-11-28_09h18.44.336,t1_Paradigm,2021.1.4,59.94129298433906,
C,left,Pretarget,0,20,20,20,962.5215214871569,964.5243435828597,left,1,2,0.6151668154634535,W16C01,2022-11-28_09h18.44.336,t1_Paradigm,2021.1.4,59.94129298433906,
T,left,Distractor,0,21,21,21,966.0215883743949,968.0237505802652,left,1,2,0.9239455316565,W16C01,2022-11-28_09h18.44.336,t1_Paradigm,2021.1.4,59.94129298433906,
C,right,Target,0,22,22,22,969.5217139683955,971.5239627908159,right,1,2,0.607624438329367,W16C01,2022-11-28_09h18.44.336,t1_Paradigm,2021.1.4,59.94129298433906,
F,left,Pretarget,0,23,23,23,973.0215896576119,975.0240973672771,left,1,2,0.9315286506607663,W16C01,2022-11-28_09h18.44.336,t1_Paradigm,2021.1.4,59.94129298433906,
C,right,Target,0,24,24,24,976.5216430711444,978.5233911215619,right,1,2,0.4723406071134377,W16C01,2022-11-28_09h18.44.336,t1_Paradigm,2021.1.4,59.94129298433906,
F,right,Target,0,25,25,25,980.0216185297759,982.0233922443585,right,1,2,0.684214004460955,W16C01,2022-11-28_09h18.44.336,t1_Paradigm,2021.1.4,59.94129298433906,
H,left,Distractor,0,26,26,26,983.5215580585937,985.5235293872247,left,1,2,0.44820025234366767,W16C01,2022-11-28_09h18.44.336,t1_Paradigm,2021.1.4,59.94129298433906,
H,left,Lure,0,27,27,27,987.0216031312884,989.0215466701193,left,1,2,0.7581367431557737,W16C01,2022-11-28_09h18.44.336,t1_Paradigm,2021.1.4,59.94129298433906,
P,left,Distractor,0,28,28,28,990.5216613568482,992.5207740183687,left,1,2,0.795206062408397,W16C01,2022-11-28_09h18.44.336,t1_Paradigm,2021.1.4,59.94129298433906,
G,left,Pretarget,0,29,29,29,994.021540574875,996.0238660689793,left,1,2,0.8279124736436643,W16C01,2022-11-28_09h18.44.336,t1_Paradigm,2021.1.4,59.94129298433906,
K,left,Distractor,0,30,30,30,997.5216324846842,999.5234097280772,left,1,2,0.6563029423705302,W16C01,2022-11-28_09h18.44.336,t1_Paradigm,2021.1.4,59.94129298433906,
G,right,Target,0,31,31,31,1001.0215649558522,1003.0234050764411,left,0,2,0.8041856327618007,W16C01,2022-11-28_09h18.44.336,t1_Paradigm,2021.1.4,59.94129298433906,
M,left,Pretarget,0,32,32,32,1004.5215400936722,1006.5223658381728,left,1,2,0.7771737787988968,W16C01,2022-11-28_09h18.44.336,t1_Paradigm,2021.1.4,59.94129298433906,
B,left,Distractor,0,33,33,33,1008.0215498781472,1010.0224811665248,left,1,2,0.8610542133101262,W16C01,2022-11-28_09h18.44.336,t1_Paradigm,2021.1.4,59.94129298433906,
M,right,Target,0,34,34,34,1011.5216530160105,1013.5236545000225,right,1,2,0.6079834158008453,W16C01,2022-11-28_09h18.44.336,t1_Paradigm,2021.1.4,59.94129298433906,
M,left,Lure,0,35,35,35,1015.021673707728,1017.0216846149997,left,1,2,0.517898669524584,W16C01,2022-11-28_09h18.44.336,t1_Paradigm,2021.1.4,59.94129298433906,
T,left,Distractor,0,36,36,36,1018.5217033819354,1020.5233484548808,left,1,2,0.7761950117128436,W16C01,2022-11-28_09h18.44.336,t1_Paradigm,2021.1.4,59.94129298433906,
F,left,Distractor,0,37,37,37,1022.0215351212537,1024.0229829009331,left,1,2,0.6526259091915563,W16C01,2022-11-28_09h18.44.336,t1_Paradigm,2021.1.4,59.94129298433906,
X,left,Distractor,0,38,38,38,1025.5215901388146,1027.5238209963136,left,1,2,0.623810506076552,W16C01,2022-11-28_09h18.44.336,t1_Paradigm,2021.1.4,59.94129298433906,
C,left,Distractor,0,39,39,39,1029.0215546901745,1031.0227798332344,left,1,2,0.4848082582175266,W16C01,2022-11-28_09h18.44.336,t1_Paradigm,2021.1.4,59.94129298433906,
R,left,Distractor,0,40,40,40,1032.5216032916796,1034.5239284650015,left,1,2,0.5036820056266151,W16C01,2022-11-28_09h18.44.336,t1_Paradigm,2021.1.4,59.94129298433906,
B,left,Pretarget,0,41,41,41,1036.0216137177486,1038.0237140088284,left,1,2,0.6838633678271435,W16C01,2022-11-28_09h18.44.336,t1_Paradigm,2021.1.4,59.94129298433906,
H,left,Distractor,0,42,42,42,1039.5215532465663,1041.5233805350726,left,1,2,0.5123946686508134,W16C01,2022-11-28_09h18.44.336,t1_Paradigm,2021.1.4,59.94129298433906,
B,right,Target,0,43,43,43,1043.0214741688687,1045.023828535166,right,1,2,0.4038496888242662,W16C01,2022-11-28_09h18.44.336,t1_Paradigm,2021.1.4,59.94129298433906,
W,left,Pretarget,0,44,44,44,1046.521561587433,1048.534743023105,left,1,2,0.6207125206128694,W16C01,2022-11-28_09h18.44.336,t1_Paradigm,2021.1.4,59.94129298433906,
L,left,Pretarget,0,45,45,45,1050.0214950210066,1052.023952364747,left,1,2,0.5877350316150114,W16C01,2022-11-28_09h18.44.336,t1_Paradigm,2021.1.4,59.94129298433906,
W,right,Target,0,46,46,46,1053.5215003142366,1055.5231524448318,right,1,2,0.416447906405665,W16C01,2022-11-28_09h18.44.336,t1_Paradigm,2021.1.4,59.94129298433906,
L,right,Target,0,47,47,47,1057.02158580799,1059.0235815175693,left,0,2,0.6121570505783893,W16C01,2022-11-28_09h18.44.336,t1_Paradigm,2021.1.4,59.94129298433906,
W,right,Target,0,48,48,48,1060.5214515523112,1062.5234604147845,right,1,2,0.8402729769004509,W16C01,2022-11-28_09h18.44.336,t1_Paradigm,2021.1.4,59.94129298433906,
X,left,Distractor,0,49,49,49,1064.0215258179815,1066.0238060789998,left,1,2,0.6357802723941859,W16C01,2022-11-28_09h18.44.336,t1_Paradigm,2021.1.4,59.94129298433906,
R,left,Distractor,0,50,50,50,1067.5216616776597,1069.5234078032663,left,1,2,0.9123995448462665,W16C01,2022-11-28_09h18.44.336,t1_Paradigm,2021.1.4,59.94129298433906,
V,left,Pretarget,0,51,51,51,1071.0215017578448,1073.0234557631484,left,1,2,0.5963245066814125,W16C01,2022-11-28_09h18.44.336,t1_Paradigm,2021.1.4,59.94129298433906,
Z,left,Distractor,0,52,52,52,1074.5215561337827,1076.5237074323813,left,1,2,0.6477519635518547,W16C01,2022-11-28_09h18.44.336,t1_Paradigm,2021.1.4,59.94129298433906,
V,right,Target,0,53,53,53,1078.021632324264,1080.0242102895863,left,0,2,0.9874797373486217,W16C01,2022-11-28_09h18.44.336,t1_Paradigm,2021.1.4,59.94129298433906,
V,left,Lure,0,54,54,54,1081.52162638944,1083.5216328054667,left,1,2,0.754047800146509,W16C01,2022-11-28_09h18.44.336,t1_Paradigm,2021.1.4,59.94129298433906,
N,left,Distractor,0,55,55,55,1085.0214969458175,1087.0237836228625,left,1,2,1.3479370984132402,W16C01,2022-11-28_09h18.44.336,t1_Paradigm,2021.1.4,59.94129298433906,
B,left,Distractor,0,56,56,56,1088.521576665109,1090.523561788228,left,1,2,0.712684866215568,W16C01,2022-11-28_09h18.44.336,t1_Paradigm,2021.1.4,59.94129298433906,
V,left,Lure,0,57,57,57,1092.02153800847,1094.0233717130322,right,0,2,0.8124090726778377,W16C01,2022-11-28_09h18.44.336,t1_Paradigm,2021.1.4,59.94129298433906,
J,left,Distractor,0,58,58,58,1095.5217428405886,1097.5238745702372,left,1,2,0.5918996839027386,W16C01,2022-11-28_09h18.44.336,t1_Paradigm,2021.1.4,59.94129298433906,
H,left,Distractor,0,59,59,59,1099.021554369363,1101.0236896278511,left,1,2,1.0281189418456051,W16C01,2022-11-28_09h18.44.336,t1_Paradigm,2021.1.4,59.94129298433906,
X,left,Pretarget,0,60,60,60,1102.5215872515982,1104.5236140789639,left,1,2,0.6159742742602248,W16C01,2022-11-28_09h18.44.336,t1_Paradigm,2021.1.4,59.94129298433906,
P,left,Distractor,0,61,61,61,1106.0216220586153,1108.023389998736,left,1,2,0.5243220890988596,W16C01,2022-11-28_09h18.44.336,t1_Paradigm,2021.1.4,59.94129298433906,
X,right,Target,0,62,62,62,1109.5216498079826,1111.5229824197304,right,1,2,0.5128036912647076,W16C01,2022-11-28_09h18.44.336,t1_Paradigm,2021.1.4,59.94129298433906,
Q,left,Distractor,0,63,63,63,1113.0214751312742,1115.0229707104445,left,1,2,0.5487396168464329,W16C01,2022-11-28_09h18.44.336,t1_Paradigm,2021.1.4,59.94129298433906,
B,left,Pretarget,0,0,0,0,1166.2355534012022,1168.2403339934244,None,0,2,,W16C01,2022-11-28_09h18.44.336,t1_Paradigm,2021.1.4,59.94129298433906,
F,left,Distractor,0,1,1,1,1169.7381520582421,1171.7402260435338,None,0,2,,W16C01,2022-11-28_09h18.44.336,t1_Paradigm,2021.1.4,59.94129298433906,
B,right,Target,0,2,2,2,1173.2382542337,1175.2401931613276,right,1,2,0.7635031199606601,W16C01,2022-11-28_09h18.44.336,t1_Paradigm,2021.1.4,59.94129298433906,
V,left,Distractor,0,3,3,3,1176.7382957775844,1178.7405830962234,left,1,2,0.4951916583813727,W16C01,2022-11-28_09h18.44.336,t1_Paradigm,2021.1.4,59.94129298433906,
G,left,Pretarget,0,4,4,4,1180.238132970524,1182.240471938334,left,1,2,0.5151362430187874,W16C01,2022-11-28_09h18.44.336,t1_Paradigm,2021.1.4,59.94129298433906,
B,left,Lure,0,5,5,5,1183.7383750156732,1185.7406341037713,left,1,2,0.5989724068786018,W16C01,2022-11-28_09h18.44.336,t1_Paradigm,2021.1.4,59.94129298433906,
G,right,Target,0,6,6,6,1187.2383745344705,1189.2402322991984,right,1,2,0.4756387730303686,W16C01,2022-11-28_09h18.44.336,t1_Paradigm,2021.1.4,59.94129298433906,
Y,left,Pretarget,0,7,7,7,1190.7381385845656,1192.740685752884,left,1,2,0.6869693733460736,W16C01,2022-11-28_09h18.44.336,t1_Paradigm,2021.1.4,59.94129298433906,
P,left,Distractor,0,8,8,8,1194.2381291209022,1196.2406361889734,left,1,2,0.6429104189155623,W16C01,2022-11-28_09h18.44.336,t1_Paradigm,2021.1.4,59.94129298433906,
Y,right,Target,0,9,9,9,1197.7382268051442,1199.7405089909735,right,1,2,0.47124827609513886,W16C01,2022-11-28_09h18.44.336,t1_Paradigm,2021.1.4,59.94129298433906,
X,left,Distractor,0,10,10,10,1201.238437090884,1203.2405184546078,left,1,2,0.5072454748442397,W16C01,2022-11-28_09h18.44.336,t1_Paradigm,2021.1.4,59.94129298433906,
Y,right,Target,0,11,11,11,1204.7382139730616,1206.7405574320583,right,1,2,0.5753414857608732,W16C01,2022-11-28_09h18.44.336,t1_Paradigm,2021.1.4,59.94129298433906,
N,left,Distractor,0,12,12,12,1208.23827187781,1210.2401142440212,left,1,2,0.5956636544433422,W16C01,2022-11-28_09h18.44.336,t1_Paradigm,2021.1.4,59.94129298433906,
Y,right,Target,0,13,13,13,1211.7375386847125,1213.7405474872212,right,1,2,0.4391751280927565,W16C01,2022-11-28_09h18.44.336,t1_Paradigm,2021.1.4,59.94129298433906,
Y,left,Lure,0,14,14,14,1215.238270594622,1217.2383546447381,left,1,2,0.8932184691075236,W16C01,2022-11-28_09h18.44.336,t1_Paradigm,2021.1.4,59.94129298433906,
K,left,Distractor,0,15,15,15,1218.7383098928549,1220.7405311262992,left,1,2,0.6711926490243059,W16C01,2022-11-28_09h18.44.336,t1_Paradigm,2021.1.4,59.94129298433906,
T,left,Pretarget,0,16,16,16,1222.2382965795696,1224.2402621337678,left,1,2,0.7554699156607967,W16C01,2022-11-28_09h18.44.336,t1_Paradigm,2021.1.4,59.94129298433906,
J,left,Distractor,0,17,17,17,1225.7382685093908,1227.7399447001517,left,1,2,0.7278225528425537,W16C01,2022-11-28_09h18.44.336,t1_Paradigm,2021.1.4,59.94129298433906,
T,right,Target,0,18,18,18,1229.2382513464836,1231.2405104345817,right,1,2,0.5552518985932693,W16C01,2022-11-28_09h18.44.336,t1_Paradigm,2021.1.4,59.94129298433906,
S,left,Pretarget,0,19,19,19,1232.738308609667,1234.7402587653487,left,1,2,0.6394816865213215,W16C01,2022-11-28_09h18.44.336,t1_Paradigm,2021.1.4,59.94129298433906,
R,left,Distractor,0,20,20,20,1236.2383129404916,1238.2401161688322,left,1,2,0.5636498548265081,W16C01,2022-11-28_09h18.44.336,t1_Paradigm,2021.1.4,59.94129298433906,
S,right,Target,0,21,21,21,1239.738265301392,1241.7401099131966,right,1,2,0.5835286750516389,W16C01,2022-11-28_09h18.44.336,t1_Paradigm,2021.1.4,59.94129298433906,
Q,left,Distractor,0,22,22,22,1243.2382381936186,1245.2406361889734,left,1,2,0.5551248609554023,W16C01,2022-11-28_09h18.44.336,t1_Paradigm,2021.1.4,59.94129298433906,
D,left,Distractor,0,23,23,23,1246.7382364291989,1248.7406389157986,left,1,2,0.9911291815224104,W16C01,2022-11-28_09h18.44.336,t1_Paradigm,2021.1.4,59.94129298433906,
F,left,Distractor,0,24,24,24,1250.2383418126556,1252.2406419634062,left,1,2,1.0429874755791388,W16C01,2022-11-28_09h18.44.336,t1_Paradigm,2021.1.4,59.94129298433906,
Z,left,Distractor,0,25,25,25,1253.738306684856,1255.7405490912206,left,1,2,0.7911902622436173,W16C01,2022-11-28_09h18.44.336,t1_Paradigm,2021.1.4,59.94129298433906,
P,left,Distractor,0,26,26,26,1257.2382802186767,1259.2405646501284,left,1,2,0.6350761118810624,W16C01,2022-11-28_09h18.44.336,t1_Paradigm,2021.1.4,59.94129298433906,
H,left,Distractor,0,27,27,27,1260.7380715369363,1262.740624800499,left,1,2,0.5589825056958944,W16C01,2022-11-28_09h18.44.336,t1_Paradigm,2021.1.4,59.94129298433906,
Z,left,Pretarget,0,28,28,28,1264.238239156024,1266.2401569107024,left,1,2,0.5314551228366327,W16C01,2022-11-28_09h18.44.336,t1_Paradigm,2021.1.4,59.94129298433906,
J,left,Pretarget,0,29,29,29,1267.7382996272063,1269.7404506049934,left,1,2,0.5191959930525627,W16C01,2022-11-28_09h18.44.336,t1_Paradigm,2021.1.4,59.94129298433906,
Z,right,Target,0,30,30,30,1271.2382952963817,1273.2404007202713,right,1,2,0.9232522784150206,W16C01,2022-11-28_09h18.44.336,t1_Paradigm,2021.1.4,59.94129298433906,
J,right,Target,0,31,31,31,1274.7382229554933,1276.7404525298043,left,0,2,0.5431643979100045,W16C01,2022-11-28_09h18.44.336,t1_Paradigm,2021.1.4,59.94129298433906,
V,left,Pretarget,0,32,32,32,1278.2382946547586,1280.2405274370685,left,1,2,0.7392427852610126,W16C01,2022-11-28_09h18.44.336,t1_Paradigm,2021.1.4,59.94129298433906,
Z,left,Lure,0,33,33,33,1281.7382268051442,1283.7406536726921,left,1,2,0.5030166621145327,W16C01,2022-11-28_09h18.44.336,t1_Paradigm,2021.1.4,59.94129298433906,
V,right,Target,0,34,34,34,1285.2381429153902,1287.2403189157485,right,1,2,0.44335421646246687,W16C01,2022-11-28_09h18.44.336,t1_Paradigm,2021.1.4,59.94129298433906,
X,left,Distractor,0,35,35,35,1288.7383070056385,1290.7403161889233,left,1,2,0.47980470856418833,W16C01,2022-11-28_09h18.44.336,t1_Paradigm,2021.1.4,59.94129298433906,
S,left,Distractor,0,36,36,36,1292.2376937925,1294.2402637377963,left,1,2,0.595534692023648,W16C01,2022-11-28_09h18.44.336,t1_Paradigm,2021.1.4,59.94129298433906,
Q,left,Distractor,0,37,37,37,1295.738125752483,1297.740521823056,left,1,2,0.5671279907401185,W16C01,2022-11-28_09h18.44.336,t1_Paradigm,2021.1.4,59.94129298433906,
P,left,Distractor,0,38,38,38,1299.2381615219056,1301.2376232160605,left,1,2,0.4782995053101331,W16C01,2022-11-28_09h18.44.336,t1_Paradigm,2021.1.4,59.94129298433906,
S,left,Lure,0,39,39,39,1302.7381636071368,1304.7408025248442,None,0,2,,W16C01,2022-11-28_09h18.44.336,t1_Paradigm,2021.1.4,59.94129298433906,
K,left,Pretarget,0,40,40,40,1306.2382048301806,1308.2398264845833,left,1,2,1.1399608044011984,W16C01,2022-11-28_09h18.44.336,t1_Paradigm,2021.1.4,59.94129298433906,
L,left,Distractor,0,41,41,41,1309.7381790056243,1311.7406446902314,left,1,2,0.631075389450416,W16C01,2022-11-28_09h18.44.336,t1_Paradigm,2021.1.4,59.94129298433906,
K,right,Target,0,42,42,42,1313.2381249504688,1315.2404161187587,right,1,2,0.8273809046659153,W16C01,2022-11-28_09h18.44.336,t1_Paradigm,2021.1.4,59.94129298433906,
B,left,Distractor,0,43,43,43,1316.7383422938583,1318.7405292014882,left,1,2,0.6711252805835102,W16C01,2022-11-28_09h18.44.336,t1_Paradigm,2021.1.4,59.94129298433906,
N,left,Distractor,0,44,44,44,1320.2382503840781,1322.2407699634205,left,1,2,0.8666717781161424,W16C01,2022-11-28_09h18.44.336,t1_Paradigm,2021.1.4,59.94129298433906,
S,left,Pretarget,0,45,45,45,1323.7383150256937,1325.7405051413225,left,1,2,0.6311501363234129,W16C01,2022-11-28_09h18.44.336,t1_Paradigm,2021.1.4,59.94129298433906,
Z,left,Distractor,0,46,46,46,1327.238148048229,1329.2405553468561,left,1,2,0.6350453148770612,W16C01,2022-11-28_09h18.44.336,t1_Paradigm,2021.1.4,59.94129298433906,
S,right,Target,0,47,47,47,1330.7382993063948,1332.7404794771574,right,1,2,0.5273392324743327,W16C01,2022-11-28_09h18.44.336,t1_Paradigm,2021.1.4,59.94129298433906,
C,left,Distractor,0,48,48,48,1334.238210925425,1336.2409069459245,left,1,2,0.5471962381270714,W16C01,2022-11-28_09h18.44.336,t1_Paradigm,2021.1.4,59.94129298433906,
T,left,Pretarget,0,49,49,49,1337.738295456773,1339.7403883693914,left,1,2,0.5672720308648422,W16C01,2022-11-28_09h18.44.336,t1_Paradigm,2021.1.4,59.94129298433906,
S,left,Lure,0,50,50,50,1341.2382474968617,1343.24105804367,left,1,2,0.8107976839237381,W16C01,2022-11-28_09h18.44.336,t1_Paradigm,2021.1.4,59.94129298433906,
T,right,Target,0,51,51,51,1344.7549361010315,1346.7406360285822,right,1,2,0.5274479843501467,W16C01,2022-11-28_09h18.44.336,t1_Paradigm,2021.1.4,59.94129298433906,
N,left,Pretarget,0,52,52,52,1348.238118534442,1350.2407324296073,left,1,2,0.6272613737965003,W16C01,2022-11-28_09h18.44.336,t1_Paradigm,2021.1.4,59.94129298433906,
B,left,Distractor,0,53,53,53,1351.7381411509705,1353.7404692115088,left,1,2,0.631484091252787,W16C01,2022-11-28_09h18.44.336,t1_Paradigm,2021.1.4,59.94129298433906,
N,right,Target,0,54,54,54,1355.2375972310838,1357.239975657547,right,1,2,0.41184375528246164,W16C01,2022-11-28_09h18.44.336,t1_Paradigm,2021.1.4,59.94129298433906,
N,left,Lure,0,55,55,55,1358.7382123690331,1360.7382242387102,left,1,2,0.7055348299618345,W16C01,2022-11-28_09h18.44.336,t1_Paradigm,2021.1.4,59.94129298433906,
X,left,Distractor,0,56,56,56,1362.2383998778532,1364.2406156576471,left,1,2,0.5791654462809674,W16C01,2022-11-28_09h18.44.336,t1_Paradigm,2021.1.4,59.94129298433906,
W,left,Distractor,0,57,57,57,1365.7382730006357,1367.7396534118743,left,1,2,0.5200297576084267,W16C01,2022-11-28_09h18.44.336,t1_Paradigm,2021.1.4,59.94129298433906,
S,left,Distractor,0,58,58,58,1369.2383443790895,1371.2399897728465,left,1,2,0.5876573975256179,W16C01,2022-11-28_09h18.44.336,t1_Paradigm,2021.1.4,59.94129298433906,
L,left,Distractor,0,59,59,59,1372.7382335419825,1374.7403492315498,left,1,2,0.5433780520688742,W16C01,2022-11-28_09h18.44.336,t1_Paradigm,2021.1.4,59.94129298433906,
K,left,Pretarget,0,60,60,60,1376.238450243749,1378.2406454922457,left,1,2,0.6271914389508311,W16C01,2022-11-28_09h18.44.336,t1_Paradigm,2021.1.4,59.94129298433906,
V,left,Pretarget,0,61,61,61,1379.7381931209238,1381.7407438180526,left,1,2,0.6950336954323575,W16C01,2022-11-28_09h18.44.336,t1_Paradigm,2021.1.4,59.94129298433906,
K,right,Target,0,62,62,62,1383.2382009805588,1385.2376161584107,right,1,2,0.5261872322589625,W16C01,2022-11-28_09h18.44.336,t1_Paradigm,2021.1.4,59.94129298433906,
V,right,Target,0,63,63,63,1386.7380420231493,1388.7406289709324,right,1,2,1.0231631916831248,W16C01,2022-11-28_09h18.44.336,t1_Paradigm,2021.1.4,59.94129298433906,
R,left,Distractor,0,0,0,0,1604.7184881753928,1606.7234137701744,None,0,3,,W16C01,2022-11-28_09h18.44.336,t1_Paradigm,2021.1.4,59.94129298433906,
P,left,Lure,0,1,1,1,1608.221626421524,1610.223776757688,None,0,3,,W16C01,2022-11-28_09h18.44.336,t1_Paradigm,2021.1.4,59.94129298433906,
V,left,Distractor,0,2,2,2,1611.7216576997307,1613.72395047202,None,0,3,,W16C01,2022-11-28_09h18.44.336,t1_Paradigm,2021.1.4,59.94129298433906,
P,left,Pretarget,0,3,3,3,1615.221549108217,1617.223445689975,left,1,3,0.9562884742044844,W16C01,2022-11-28_09h18.44.336,t1_Paradigm,2021.1.4,59.94129298433906,
Z,left,Distractor,0,4,4,4,1618.7216410179972,1620.7234291686618,left,1,3,0.8002712060406338,W16C01,2022-11-28_09h18.44.336,t1_Paradigm,2021.1.4,59.94129298433906,
L,left,Pretarget,0,5,5,5,1622.2214685869112,1624.2233083866886,left,1,3,0.8203960814862512,W16C01,2022-11-28_09h18.44.336,t1_Paradigm,2021.1.4,59.94129298433906,
P,right,Target,0,6,6,6,1625.721646792459,1627.7231311435753,right,1,3,1.2566855950572062,W16C01,2022-11-28_09h18.44.336,t1_Paradigm,2021.1.4,59.94129298433906,
S,left,Distractor,0,7,7,7,1629.2217348526174,1631.223404306511,left,1,3,1.1646654499636497,W16C01,2022-11-28_09h18.44.336,t1_Paradigm,2021.1.4,59.94129298433906,
L,right,Target,0,8,8,8,1632.7214889578463,1634.7235828328703,None,0,3,,W16C01,2022-11-28_09h18.44.336,t1_Paradigm,2021.1.4,59.94129298433906,
D,left,Distractor,0,9,9,9,1636.2213736294943,1638.2226119254192,None,0,3,,W16C01,2022-11-28_09h18.44.336,t1_Paradigm,2021.1.4,59.94129298433906,
G,left,Distractor,0,10,10,10,1639.721554401447,1641.723652126093,left,1,3,1.46447806947981,W16C01,2022-11-28_09h18.44.336,t1_Paradigm,2021.1.4,59.94129298433906,
M,left,Pretarget,0,11,11,11,1643.221593699709,1645.2238191035576,left,1,3,1.436096711549908,W16C01,2022-11-28_09h18.44.336,t1_Paradigm,2021.1.4,59.94129298433906,
Y,left,Distractor,0,12,12,12,1646.721556326258,1648.7233804067655,left,1,3,1.2646732454595622,W16C01,2022-11-28_09h18.44.336,t1_Paradigm,2021.1.4,59.94129298433906,
V,left,Distractor,0,13,13,13,1650.221535313729,1652.2224473539682,right,0,3,1.3172677802213002,W16C01,2022-11-28_09h18.44.336,t1_Paradigm,2021.1.4,59.94129298433906,
M,right,Target,0,14,14,14,1653.7215579302865,1655.722401318897,left,0,3,1.1457259381713811,W16C01,2022-11-28_09h18.44.336,t1_Paradigm,2021.1.4,59.94129298433906,
S,left,Pretarget,0,15,15,15,1657.221548466623,1659.2235926173162,None,0,3,,W16C01,2022-11-28_09h18.44.336,t1_Paradigm,2021.1.4,59.94129298433906,
Q,left,Distractor,0,16,16,16,1660.7214334590826,1662.7239822314295,None,0,3,,W16C01,2022-11-28_09h18.44.336,t1_Paradigm,2021.1.4,59.94129298433906,
R,left,Pretarget,0,17,17,17,1664.2216508024721,1666.2233937200508,left,1,3,0.6444711209333036,W16C01,2022-11-28_09h18.44.336,t1_Paradigm,2021.1.4,59.94129298433906,
S,right,Target,0,18,18,18,1667.7215967473167,1669.723774030892,right,1,3,0.4719841960177291,W16C01,2022-11-28_09h18.44.336,t1_Paradigm,2021.1.4,59.94129298433906,
F,left,Distractor,0,19,19,19,1671.2208821607346,1673.2238784519432,left,1,3,0.8280292456038296,W16C01,2022-11-28_09h18.44.336,t1_Paradigm,2021.1.4,59.94129298433906,
R,right,Target,0,20,20,20,1674.7215646671248,1676.7232684468327,left,0,3,1.3603309650789015,W16C01,2022-11-28_09h18.44.336,t1_Paradigm,2021.1.4,59.94129298433906,
P,left,Distractor,0,21,21,21,1678.221741268644,1680.2236843667051,left,1,3,0.9640865305846091,W16C01,2022-11-28_09h18.44.336,t1_Paradigm,2021.1.4,59.94129298433906,
L,left,Distractor,0,22,22,22,1681.7216272235091,1683.7233483265445,left,1,3,1.0965380004490726,W16C01,2022-11-28_09h18.44.336,t1_Paradigm,2021.1.4,59.94129298433906,
R,right,Target,0,23,23,23,1685.2215677147324,1687.2239265722746,None,0,3,,W16C01,2022-11-28_09h18.44.336,t1_Paradigm,2021.1.4,59.94129298433906,
H,left,Pretarget,0,24,24,24,1688.7215585718805,1690.7238859907957,left,1,3,1.023936645447975,W16C01,2022-11-28_09h18.44.336,t1_Paradigm,2021.1.4,59.94129298433906,
G,left,Pretarget,0,25,25,25,1692.221518311213,1694.220764426398,left,1,3,0.7109814072900917,W16C01,2022-11-28_09h18.44.336,t1_Paradigm,2021.1.4,59.94129298433906,
T,left,Distractor,0,26,26,26,1695.7217430330638,1697.7239729281573,left,1,3,0.727922963880701,W16C01,2022-11-28_09h18.44.336,t1_Paradigm,2021.1.4,59.94129298433906,
H,right,Target,0,27,27,27,1699.2215978701424,1701.2234578804637,left,0,3,0.8124087518663146,W16C01,2022-11-28_09h18.44.336,t1_Paradigm,2021.1.4,59.94129298433906,
G,right,Target,0,28,28,28,1702.7218251583981,1704.7237239857495,right,1,3,0.7520200103463139,W16C01,2022-11-28_09h18.44.336,t1_Paradigm,2021.1.4,59.94129298433906,
D,left,Distractor,0,29,29,29,1706.221473078127,1708.2235313441197,left,1,3,0.9641195731819607,W16C01,2022-11-28_09h18.44.336,t1_Paradigm,2021.1.4,59.94129298433906,
N,left,Pretarget,0,30,30,30,1709.7215662711242,1711.7238250384107,left,1,3,0.9359258844633587,W16C01,2022-11-28_09h18.44.336,t1_Paradigm,2021.1.4,59.94129298433906,
V,left,Distractor,0,31,31,31,1713.2215901708696,1715.2236211686977,right,0,3,1.1482541791629046,W16C01,2022-11-28_09h18.44.336,t1_Paradigm,2021.1.4,59.94129298433906,
R,left,Distractor,0,32,32,32,1716.7215364365256,1718.7238346624654,right,0,3,1.2478590472601354,W16C01,2022-11-28_09h18.44.336,t1_Paradigm,2021.1.4,59.94129298433906,
N,right,Target,0,33,33,33,1720.2215433337842,1722.2238466925628,left,0,3,0.7559867277741432,W16C01,2022-11-28_09h18.44.336,t1_Paradigm,2021.1.4,59.94129298433906,
Z,left,Distractor,0,34,34,34,1723.7206609677232,1725.7236357652,left,1,3,0.6320913695672061,W16C01,2022-11-28_09h18.44.336,t1_Paradigm,2021.1.4,59.94129298433906,
N,left,Lure,0,35,35,35,1727.221522802458,1729.2237302414142,right,0,3,1.1961614750907756,W16C01,2022-11-28_09h18.44.336,t1_Paradigm,2021.1.4,59.94129298433906,
Y,left,Pretarget,0,36,36,36,1730.7215560054756,1732.723860005848,left,1,3,1.1838587162201293,W16C01,2022-11-28_09h18.44.336,t1_Paradigm,2021.1.4,59.94129298433906,
Y,left,Lure,0,37,37,37,1734.2216293087404,1736.2216321959568,left,1,3,1.1741775517584756,W16C01,2022-11-28_09h18.44.336,t1_Paradigm,2021.1.4,59.94129298433906,
B,left,Distractor,0,38,38,38,1737.7215896896669,1739.7234808178036,left,1,3,0.5683258656063117,W16C01,2022-11-28_09h18.44.336,t1_Paradigm,2021.1.4,59.94129298433906,
Y,right,Target,0,39,39,39,1741.2215253688628,1743.223568236368,right,1,3,0.5243413372372743,W16C01,2022-11-28_09h18.44.336,t1_Paradigm,2021.1.4,59.94129298433906,
J,left,Distractor,0,40,40,40,1744.7215059603332,1746.7239122965839,left,1,3,0.607938503526384,W16C01,2022-11-28_09h18.44.336,t1_Paradigm,2021.1.4,59.94129298433906,
X,left,Distractor,0,41,41,41,1748.2215526370564,1750.2230225520616,left,1,3,0.6450556222698651,W16C01,2022-11-28_09h18.44.336,t1_Paradigm,2021.1.4,59.94129298433906,
W,left,Pretarget,0,42,42,42,1751.7213978500513,1753.7236354443885,left,1,3,0.5521349858026952,W16C01,2022-11-28_09h18.44.336,t1_Paradigm,2021.1.4,59.94129298433906,
S,left,Pretarget,0,43,43,43,1755.2217063012358,1757.2232573791698,left,1,3,0.6364760920696426,W16C01,2022-11-28_09h18.44.336,t1_Paradigm,2021.1.4,59.94129298433906,
R,left,Distractor,0,44,44,44,1758.7216358851874,1760.72368163988,left,1,3,1.0561631368182134,W16C01,2022-11-28_09h18.44.336,t1_Paradigm,2021.1.4,59.94129298433906,
W,right,Target,0,45,45,45,1762.2217691784317,1764.2237818905269,left,0,3,0.8677191968308762,W16C01,2022-11-28_09h18.44.336,t1_Paradigm,2021.1.4,59.94129298433906,
S,right,Target,0,46,46,46,1765.7215560054756,1767.7238574394141,right,1,3,0.8239881020854227,W16C01,2022-11-28_09h18.44.336,t1_Paradigm,2021.1.4,59.94129298433906,
D,left,Distractor,0,47,47,47,1769.2214313738514,1771.2236028829939,left,1,3,0.55625280100503,W16C01,2022-11-28_09h18.44.336,t1_Paradigm,2021.1.4,59.94129298433906,
T,left,Distractor,0,48,48,48,1772.7217093488434,1774.7236931887746,left,1,3,0.6241495938738808,W16C01,2022-11-28_09h18.44.336,t1_Paradigm,2021.1.4,59.94129298433906,
S,right,Target,0,49,49,49,1776.2207737296412,1778.2206742810085,right,1,3,0.9028078841802198,W16C01,2022-11-28_09h18.44.336,t1_Paradigm,2021.1.4,59.94129298433906,
K,left,Distractor,0,50,50,50,1779.721481579385,1781.7234859506425,left,1,3,0.7602206733135972,W16C01,2022-11-28_09h18.44.336,t1_Paradigm,2021.1.4,59.94129298433906,
S,left,Lure,0,51,51,51,1783.221505799942,1785.2240006775246,right,0,3,0.5398591743141878,W16C01,2022-11-28_09h18.44.336,t1_Paradigm,2021.1.4,59.94129298433906,
T,left,Pretarget,0,52,52,52,1786.7215928976948,1788.7219637448725,right,0,3,0.849974351876881,W16C01,2022-11-28_09h18.44.336,t1_Paradigm,2021.1.4,59.94129298433906,
V,left,Distractor,0,53,53,53,1790.2214685869112,1792.2239400459512,left,1,3,0.8995347407762893,W16C01,2022-11-28_09h18.44.336,t1_Paradigm,2021.1.4,59.94129298433906,
B,left,Distractor,0,54,54,54,1793.7216320355656,1795.7206539100735,left,1,3,0.7152522450487595,W16C01,2022-11-28_09h18.44.336,t1_Paradigm,2021.1.4,59.94129298433906,
T,right,Target,0,55,55,55,1797.2212838049163,1799.2236035245878,right,1,3,1.2922606182983145,W16C01,2022-11-28_09h18.44.336,t1_Paradigm,2021.1.4,59.94129298433906,
Y,left,Pretarget,0,56,56,56,1800.7216535292973,1802.7235552438942,left,1,3,0.8160787273955066,W16C01,2022-11-28_09h18.44.336,t1_Paradigm,2021.1.4,59.94129298433906,
T,left,Lure,0,57,57,57,1804.2210480154026,1806.2229417099443,left,1,3,0.980907786404714,W16C01,2022-11-28_09h18.44.336,t1_Paradigm,2021.1.4,59.94129298433906,
P,left,Pretarget,0,58,58,58,1807.7215611382853,1809.7237791637017,left,1,3,0.8400272424914874,W16C01,2022-11-28_09h18.44.336,t1_Paradigm,2021.1.4,59.94129298433906,
Y,right,Target,0,59,59,59,1811.2214294490404,1813.2234411987592,right,1,3,0.7803683256788645,W16C01,2022-11-28_09h18.44.336,t1_Paradigm,2021.1.4,59.94129298433906,
R,left,Distractor,0,60,60,60,1814.7214713137073,1816.7235700007877,left,1,3,1.0081823772343341,W16C01,2022-11-28_09h18.44.336,t1_Paradigm,2021.1.4,59.94129298433906,
P,right,Target,0,61,61,61,1818.2215160656197,1820.2237414694682,left,0,3,0.8360111215442885,W16C01,2022-11-28_09h18.44.336,t1_Paradigm,2021.1.4,59.94129298433906,
L,left,Distractor,0,62,62,62,1821.7216423012142,1823.723016296426,left,1,3,0.5527278280060273,W16C01,2022-11-28_09h18.44.336,t1_Paradigm,2021.1.4,59.94129298433906,
V,left,Distractor,0,63,63,63,1825.2214794941829,1827.2230546322826,left,1,3,0.5090063573152293,W16C01,2022-11-28_09h18.44.336,t1_Paradigm,2021.1.4,59.94129298433906,
H,left,Lure,0,0,0,0,1894.8185120109993,1896.8237843927927,None,0,3,,W16C01,2022-11-28_09h18.44.336,t1_Paradigm,2021.1.4,59.94129298433906,
B,left,Distractor,0,1,1,1,1898.321615931287,1900.322578337451,None,0,3,,W16C01,2022-11-28_09h18.44.336,t1_Paradigm,2021.1.4,59.94129298433906,
T,left,Distractor,0,2,2,2,1901.8216077508405,1903.8233869190444,None,0,3,,W16C01,2022-11-28_09h18.44.336,t1_Paradigm,2021.1.4,59.94129298433906,
R,left,Distractor,0,3,3,3,1905.3216557107517,1907.3236026584345,left,1,3,0.9682174986810423,W16C01,2022-11-28_09h18.44.336,t1_Paradigm,2021.1.4,59.94129298433906,
H,left,Pretarget,0,4,4,4,1908.8214996405295,1910.8234635907284,left,1,3,1.388370348024182,W16C01,2022-11-28_09h18.44.336,t1_Paradigm,2021.1.4,59.94129298433906,
K,left,Distractor,0,5,5,5,1912.3217205127585,1914.3229511094396,None,0,3,,W16C01,2022-11-28_09h18.44.336,t1_Paradigm,2021.1.4,59.94129298433906,
G,left,Distractor,0,6,6,6,1915.8216398310324,1917.8237433301401,left,1,3,0.5320088271982968,W16C01,2022-11-28_09h18.44.336,t1_Paradigm,2021.1.4,59.94129298433906,
H,right,Target,0,7,7,7,1919.3215427884134,1921.3239593903127,right,1,3,0.7445578337355983,W16C01,2022-11-28_09h18.44.336,t1_Paradigm,2021.1.4,59.94129298433906,
Y,left,Pretarget,0,8,8,8,1922.8215493648604,1924.8236621672113,left,1,3,0.5722759013005998,W16C01,2022-11-28_09h18.44.336,t1_Paradigm,2021.1.4,59.94129298433906,
S,left,Distractor,0,9,9,9,1926.3216412746406,1928.323810217349,left,1,3,0.7837486169300973,W16C01,2022-11-28_09h18.44.336,t1_Paradigm,2021.1.4,59.94129298433906,
P,left,Distractor,0,10,10,10,1929.8216250741389,1931.823429264914,left,1,3,0.6603713540534955,W16C01,2022-11-28_09h18.44.336,t1_Paradigm,2021.1.4,59.94129298433906,
Y,right,Target,0,11,11,11,1933.3214799112175,1935.3238098965667,right,1,3,1.2560828079876956,W16C01,2022-11-28_09h18.44.336,t1_Paradigm,2021.1.4,59.94129298433906,
H,left,Lure,0,12,12,12,1936.821490658098,1938.8235659265774,right,0,3,1.0042326623224653,W16C01,2022-11-28_09h18.44.336,t1_Paradigm,2021.1.4,59.94129298433906,
Q,left,Distractor,0,13,13,13,1940.32156877339,1942.3343145599065,left,1,3,1.0934605463116895,W16C01,2022-11-28_09h18.44.336,t1_Paradigm,2021.1.4,59.94129298433906,
V,left,Pretarget,0,14,14,14,1943.8215076605848,1945.8237529541948,left,1,3,0.5803036519791931,W16C01,2022-11-28_09h18.44.336,t1_Paradigm,2021.1.4,59.94129298433906,
G,left,Distractor,0,15,15,15,1947.3217217959755,1949.3237835907785,left,1,3,0.6961398209386971,W16C01,2022-11-28_09h18.44.336,t1_Paradigm,2021.1.4,59.94129298433906,
Z,left,Pretarget,0,16,16,16,1950.8215509688598,1952.8235556609288,left,1,3,0.6842310069769155,W16C01,2022-11-28_09h18.44.336,t1_Paradigm,2021.1.4,59.94129298433906,
V,right,Target,0,17,17,17,1954.3213240014156,1956.3231868989533,left,0,3,0.7046048248012085,W16C01,2022-11-28_09h18.44.336,t1_Paradigm,2021.1.4,59.94129298433906,
N,left,Distractor,0,18,18,18,1957.821456653066,1959.8238434203668,left,1,3,0.8199248232413083,W16C01,2022-11-28_09h18.44.336,t1_Paradigm,2021.1.4,59.94129298433906,
Z,right,Target,0,19,19,19,1961.3214157508046,1963.3238509592193,right,1,3,0.7762049565790221,W16C01,2022-11-28_09h18.44.336,t1_Paradigm,2021.1.4,59.94129298433906,
R,left,Distractor,0,20,20,20,1964.8215599513205,1966.8236746784823,left,1,3,0.6840940245019738,W16C01,2022-11-28_09h18.44.336,t1_Paradigm,2021.1.4,59.94129298433906,
P,left,Distractor,0,21,21,21,1968.321491460083,1970.3224166532164,left,1,3,0.8171563014911953,W16C01,2022-11-28_09h18.44.336,t1_Paradigm,2021.1.4,59.94129298433906,
Z,right,Target,0,22,22,22,1971.8213276906463,1973.8220758010284,right,1,3,0.8376651769503951,W16C01,2022-11-28_09h18.44.336,t1_Paradigm,2021.1.4,59.94129298433906,
D,left,Pretarget,0,23,23,23,1975.3214892144897,1977.3236610443855,left,1,3,0.8078771020227578,W16C01,2022-11-28_09h18.44.336,t1_Paradigm,2021.1.4,59.94129298433906,
K,left,Distractor,0,24,24,24,1978.8216228285455,1980.8234055255598,left,1,3,0.7003336662310176,W16C01,2022-11-28_09h18.44.336,t1_Paradigm,2021.1.4,59.94129298433906,
W,left,Distractor,0,25,25,25,1982.3216473698849,1984.3223473599646,left,1,3,0.721400737267686,W16C01,2022-11-28_09h18.44.336,t1_Paradigm,2021.1.4,59.94129298433906,
D,right,Target,0,26,26,26,1985.8214896956924,1987.8236156509083,left,0,3,0.8041740838962141,W16C01,2022-11-28_09h18.44.336,t1_Paradigm,2021.1.4,59.94129298433906,
G,left,Pretarget,0,27,27,27,1989.3215533748735,1991.3232228287961,left,1,3,1.0806226896238513,W16C01,2022-11-28_09h18.44.336,t1_Paradigm,2021.1.4,59.94129298433906,
V,left,Distractor,0,28,28,28,1992.8215387784003,1994.8239730244095,left,1,3,1.13179029681487,W16C01,2022-11-28_09h18.44.336,t1_Paradigm,2021.1.4,59.94129298433906,
D,right,Target,0,29,29,29,1996.3214064475324,1998.3236562323582,right,1,3,1.056219918798888,W16C01,2022-11-28_09h18.44.336,t1_Paradigm,2021.1.4,59.94129298433906,
G,right,Target,0,30,30,30,1999.82153332475,2001.8237128539186,left,0,3,0.7561965323111508,W16C01,2022-11-28_09h18.44.336,t1_Paradigm,2021.1.4,59.94129298433906,
B,left,Pretarget,0,31,31,31,2003.3215408636024,2005.3231836909254,left,1,3,1.2407083694415633,W16C01,2022-11-28_09h18.44.336,t1_Paradigm,2021.1.4,59.94129298433906,
N,left,Distractor,0,32,32,32,2006.8218364827044,2008.8231925129949,left,1,3,1.2605570342566352,W16C01,2022-11-28_09h18.44.336,t1_Paradigm,2021.1.4,59.94129298433906,
F,left,Distractor,0,33,33,33,2010.321610798448,2012.323226036824,left,1,3,0.7365377823007293,W16C01,2022-11-28_09h18.44.336,t1_Paradigm,2021.1.4,59.94129298433906,
B,right,Target,0,34,34,34,2013.8216699864424,2015.823356442852,left,0,3,0.8044326503295451,W16C01,2022-11-28_09h18.44.336,t1_Paradigm,2021.1.4,59.94129298433906,
Q,left,Pretarget,0,35,35,35,2017.3215492044692,2019.3221532747266,left,1,3,1.1459691061172634,W16C01,2022-11-28_09h18.44.336,t1_Paradigm,2021.1.4,59.94129298433906,
S,left,Pretarget,0,36,36,36,2020.8215041317744,2022.8236034604197,left,1,3,1.0361749230942223,W16C01,2022-11-28_09h18.44.336,t1_Paradigm,2021.1.4,59.94129298433906,
W,left,Distractor,0,37,37,37,2024.3216884325666,2026.3221160616959,left,1,3,1.425601351482328,W16C01,2022-11-28_09h18.44.336,t1_Paradigm,2021.1.4,59.94129298433906,
Q,right,Target,0,38,38,38,2027.821588502702,2029.8238315506896,right,1,3,1.108026884496212,W16C01,2022-11-28_09h18.44.336,t1_Paradigm,2021.1.4,59.94129298433906,
S,right,Target,0,39,39,39,2031.321478948812,2033.323167650844,right,1,3,1.1449768653546926,W16C01,2022-11-28_09h18.44.336,t1_Paradigm,2021.1.4,59.94129298433906,
T,left,Distractor,0,40,40,40,2034.82154583605,2036.8237933752534,left,1,3,0.8599952457298059,W16C01,2022-11-28_09h18.44.336,t1_Paradigm,2021.1.4,59.94129298433906,
G,left,Distractor,0,41,41,41,2038.3215010841668,2040.323947841447,right,0,3,0.9919029560696799,W16C01,2022-11-28_09h18.44.336,t1_Paradigm,2021.1.4,59.94129298433906,
D,left,Distractor,0,42,42,42,2041.821520171885,2043.823846949177,left,1,3,1.4281087403360289,W16C01,2022-11-28_09h18.44.336,t1_Paradigm,2021.1.4,59.94129298433906,
S,left,Lure,0,43,43,43,2045.3217439313012,2047.3236430794932,left,1,3,0.6001080461428501,W16C01,2022-11-28_09h18.44.336,t1_Paradigm,2021.1.4,59.94129298433906,
Z,left,Pretarget,0,44,44,44,2048.8206722920295,2050.823458137107,left,1,3,0.5723349289037287,W16C01,2022-11-28_09h18.44.336,t1_Paradigm,2021.1.4,59.94129298433906,
J,left,Distractor,0,45,45,45,2052.3207337256463,2054.3236215857323,left,1,3,0.5123218465887476,W16C01,2022-11-28_09h18.44.336,t1_Paradigm,2021.1.4,59.94129298433906,
M,left,Pretarget,0,46,46,46,2055.8216555503313,2057.82330479371,left,1,3,0.6604576497920789,W16C01,2022-11-28_09h18.44.336,t1_Paradigm,2021.1.4,59.94129298433906,
Z,right,Target,0,47,47,47,2059.321546638035,2061.323795781267,left,0,3,0.9999579749419354,W16C01,2022-11-28_09h18.44.336,t1_Paradigm,2021.1.4,59.94129298433906,
P,left,Distractor,0,48,48,48,2062.821601655596,2064.8238466283947,left,1,3,0.5880407559743617,W16C01,2022-11-28_09h18.44.336,t1_Paradigm,2021.1.4,59.94129298433906,
M,right,Target,0,49,49,49,2066.3216438410745,2068.323076543049,right,1,3,1.1686979318328667,W16C01,2022-11-28_09h18.44.336,t1_Paradigm,2021.1.4,59.94129298433906,
K,left,Distractor,0,50,50,50,2069.8215525728883,2071.8228081921407,left,1,3,0.8370056079584174,W16C01,2022-11-28_09h18.44.336,t1_Paradigm,2021.1.4,59.94129298433906,
Y,left,Distractor,0,51,51,51,2073.3215546580905,2075.3237168639607,left,1,3,0.6000284872425254,W16C01,2022-11-28_09h18.44.336,t1_Paradigm,2021.1.4,59.94129298433906,
X,left,Distractor,0,52,52,52,2076.8216529839265,2078.8237279316236,left,1,3,0.892105285951402,W16C01,2022-11-28_09h18.44.336,t1_Paradigm,2021.1.4,59.94129298433906,
F,left,Pretarget,0,53,53,53,2080.321494668111,2082.3235731446475,left,1,3,0.9923142243351322,W16C01,2022-11-28_09h18.44.336,t1_Paradigm,2021.1.4,59.94129298433906,
M,left,Lure,0,54,54,54,2083.8216417558433,2085.82227951035,left,1,3,0.9174986935395282,W16C01,2022-11-28_09h18.44.336,t1_Paradigm,2021.1.4,59.94129298433906,
V,left,Distractor,0,55,55,55,2087.3216508987243,2089.323804763728,left,1,3,0.6159678582043853,W16C01,2022-11-28_09h18.44.336,t1_Paradigm,2021.1.4,59.94129298433906,
F,right,Target,0,56,56,56,2090.8216523423325,2092.823827701068,left,0,3,0.4919839586073067,W16C01,2022-11-28_09h18.44.336,t1_Paradigm,2021.1.4,59.94129298433906,
S,left,Distractor,0,57,57,57,2094.3214937057055,2096.323557104537,left,1,3,0.9761602367798332,W16C01,2022-11-28_09h18.44.336,t1_Paradigm,2021.1.4,59.94129298433906,
D,left,Distractor,0,58,58,58,2097.821347901161,2099.8237449341395,left,1,3,0.7241397452307865,W16C01,2022-11-28_09h18.44.336,t1_Paradigm,2021.1.4,59.94129298433906,
F,right,Target,0,59,59,59,2101.321659881156,2103.323885605845,right,1,3,0.8236740368593019,W16C01,2022-11-28_09h18.44.336,t1_Paradigm,2021.1.4,59.94129298433906,
V,left,Pretarget,0,60,60,60,2104.82163951025,2106.823487650894,left,1,3,0.8602961580327246,W16C01,2022-11-28_09h18.44.336,t1_Paradigm,2021.1.4,59.94129298433906,
J,left,Distractor,0,61,61,61,2108.321541826008,2110.3234618263086,left,1,3,0.8808557202282827,W16C01,2022-11-28_09h18.44.336,t1_Paradigm,2021.1.4,59.94129298433906,
V,left,Lure,0,62,62,62,2111.8206479110813,2113.820740302064,right,0,3,0.8230754202522803,W16C01,2022-11-28_09h18.44.336,t1_Paradigm,2021.1.4,59.94129298433906,
V,right,Target,0,63,63,63,2115.3215232194925,2117.321549846063,left,0,3,0.9062077443522867,W16C01,2022-11-28_09h18.44.336,t1_Paradigm,2021.1.4,59.94129298433906,
R,left,Distractor,0,0,0,0,2250.4295930914523,2252.4235260829737,None,0,4,,W16C01,2022-11-28_09h18.44.336,t1_Paradigm,2021.1.4,59.94129298433906,
F,left,Distractor,0,1,1,1,2253.9215648596,2255.9235522283416,None,0,4,,W16C01,2022-11-28_09h18.44.336,t1_Paradigm,2021.1.4,59.94129298433906,
P,left,Pretarget,0,2,2,2,2257.4214812906575,2259.4236794263707,None,0,4,,W16C01,2022-11-28_09h18.44.336,t1_Paradigm,2021.1.4,59.94129298433906,
H,left,Distractor,0,3,3,3,2260.921305972355,2262.9235358674487,None,0,4,,W16C01,2022-11-28_09h18.44.336,t1_Paradigm,2021.1.4,59.94129298433906,
Z,left,Distractor,0,4,4,4,2264.4215967794007,2266.424040328682,None,0,4,,W16C01,2022-11-28_09h18.44.336,t1_Paradigm,2021.1.4,59.94129298433906,
T,left,Distractor,0,5,5,5,2267.92177530576,2269.9235522283416,left,1,4,0.5602862452506088,W16C01,2022-11-28_09h18.44.336,t1_Paradigm,2021.1.4,59.94129298433906,
P,right,Target,0,6,6,6,2271.4216404084873,2273.423970714619,left,0,4,0.5642491130565759,W16C01,2022-11-28_09h18.44.336,t1_Paradigm,2021.1.4,59.94129298433906,
G,left,Distractor,0,7,7,7,2274.9212867242168,2276.9233953561343,left,1,4,0.6484484248212539,W16C01,2022-11-28_09h18.44.336,t1_Paradigm,2021.1.4,59.94129298433906,
L,left,Distractor,0,8,8,8,2278.421381200431,2280.4232517972123,left,1,4,0.5566618236189242,W16C01,2022-11-28_09h18.44.336,t1_Paradigm,2021.1.4,59.94129298433906,
P,left,Lure,0,9,9,9,2281.921530212974,2283.92392147152,left,1,4,0.79987373232143,W16C01,2022-11-28_09h18.44.336,t1_Paradigm,2021.1.4,59.94129298433906,
Q,left,Pretarget,0,10,10,10,2285.421592288185,2287.4234911155363,left,1,4,1.2363627847807948,W16C01,2022-11-28_09h18.44.336,t1_Paradigm,2021.1.4,59.94129298433906,
D,left,Distractor,0,11,11,11,2288.921490112727,2290.923840308591,left,1,4,0.8719781649124343,W16C01,2022-11-28_09h18.44.336,t1_Paradigm,2021.1.4,59.94129298433906,
M,left,Pretarget,0,12,12,12,2292.4214315663557,2294.423822504061,None,0,4,,W16C01,2022-11-28_09h18.44.336,t1_Paradigm,2021.1.4,59.94129298433906,
C,left,Distractor,0,13,13,13,2295.9217557368393,2297.9231326192385,None,0,4,,W16C01,2022-11-28_09h18.44.336,t1_Paradigm,2021.1.4,59.94129298433906,
Q,right,Target,0,14,14,14,2299.4215659823967,2301.4221937920374,None,0,4,,W16C01,2022-11-28_09h18.44.336,t1_Paradigm,2021.1.4,59.94129298433906,
R,left,Distractor,0,15,15,15,2302.921608809469,2304.9230954062077,None,0,4,,W16C01,2022-11-28_09h18.44.336,t1_Paradigm,2021.1.4,59.94129298433906,
M,right,Target,0,16,16,16,2306.4214739122253,2308.422182884766,None,0,4,,W16C01,2022-11-28_09h18.44.336,t1_Paradigm,2021.1.4,59.94129298433906,
S,left,Distractor,0,17,17,17,2309.9216562881775,2311.923547737126,left,1,4,1.4403653037152253,W16C01,2022-11-28_09h18.44.336,t1_Paradigm,2021.1.4,59.94129298433906,
Z,left,Distractor,0,18,18,18,2313.421645541326,2315.423809351196,left,1,4,1.1721247393870726,W16C01,2022-11-28_09h18.44.336,t1_Paradigm,2021.1.4,59.94129298433906,
L,left,Pretarget,0,19,19,19,2316.9213152755983,2318.920614964707,left,1,4,0.9552192409464624,W16C01,2022-11-28_09h18.44.336,t1_Paradigm,2021.1.4,59.94129298433906,
M,right,Target,0,20,20,20,2320.4215887593455,2322.4239219527226,left,0,4,0.6358877410821151,W16C01,2022-11-28_09h18.44.336,t1_Paradigm,2021.1.4,59.94129298433906,
P,left,Distractor,0,21,21,21,2323.9215199473256,2325.923735406308,left,1,4,1.0402863222407177,W16C01,2022-11-28_09h18.44.336,t1_Paradigm,2021.1.4,59.94129298433906,
F,left,Distractor,0,22,22,22,2327.4215999874286,2329.423544689489,left,1,4,0.7401477678504307,W16C01,2022-11-28_09h18.44.336,t1_Paradigm,2021.1.4,59.94129298433906,
L,right,Target,0,23,23,23,2330.9215295713802,2332.923730915092,right,1,4,0.9040712026471738,W16C01,2022-11-28_09h18.44.336,t1_Paradigm,2021.1.4,59.94129298433906,
L,left,Lure,0,24,24,24,2334.4206796063227,2336.4215515463147,left,1,4,1.1664863224432338,W16C01,2022-11-28_09h18.44.336,t1_Paradigm,2021.1.4,59.94129298433906,
V,left,Pretarget,0,25,25,25,2337.92164088969,2339.923011676874,left,1,4,1.4409004015324172,W16C01,2022-11-28_09h18.44.336,t1_Paradigm,2021.1.4,59.94129298433906,
Z,left,Distractor,0,26,26,26,2341.4213593858876,2343.4228828748455,None,0,4,,W16C01,2022-11-28_09h18.44.336,t1_Paradigm,2021.1.4,59.94129298433906,
H,left,Distractor,0,27,27,27,2344.9214538621018,2346.9238569902955,left,1,4,1.4159618912963197,W16C01,2022-11-28_09h18.44.336,t1_Paradigm,2021.1.4,59.94129298433906,
X,left,Distractor,0,28,28,28,2348.4214556264924,2350.4236412509053,left,1,4,1.1161511965619866,W16C01,2022-11-28_09h18.44.336,t1_Paradigm,2021.1.4,59.94129298433906,
V,right,Target,0,29,29,29,2351.9216373608797,2353.923976007849,left,0,4,0.7678538374311756,W16C01,2022-11-28_09h18.44.336,t1_Paradigm,2021.1.4,59.94129298433906,
C,left,Distractor,0,30,30,30,2355.4215983834292,2357.4227102833393,left,1,4,1.141211290814681,W16C01,2022-11-28_09h18.44.336,t1_Paradigm,2021.1.4,59.94129298433906,
S,left,Pretarget,0,31,31,31,2358.921609451092,2360.9238444790244,None,0,4,,W16C01,2022-11-28_09h18.44.336,t1_Paradigm,2021.1.4,59.94129298433906,
D,left,Distractor,0,32,32,32,2362.421602874645,2364.4235514263273,left,1,4,1.1804537231801078,W16C01,2022-11-28_09h18.44.336,t1_Paradigm,2021.1.4,59.94129298433906,
V,left,Distractor,0,33,33,33,2365.920793972269,2367.9227024237043,right,0,4,1.3932032309821807,W16C01,2022-11-28_09h18.44.336,t1_Paradigm,2021.1.4,59.94129298433906,
R,left,Distractor,0,34,34,34,2369.421627255593,2371.423898534151,left,1,4,0.7878776601864956,W16C01,2022-11-28_09h18.44.336,t1_Paradigm,2021.1.4,59.94129298433906,
S,right,Target,0,35,35,35,2372.921539195435,2374.9234976919834,right,1,4,1.3203189285704866,W16C01,2022-11-28_09h18.44.336,t1_Paradigm,2021.1.4,59.94129298433906,
Y,left,Distractor,0,36,36,36,2376.4213436665887,2378.4224443384446,left,1,4,0.845549529127311,W16C01,2022-11-28_09h18.44.336,t1_Paradigm,2021.1.4,59.94129298433906,
N,left,Pretarget,0,37,37,37,2379.9213146340044,2381.923397280945,None,0,4,,W16C01,2022-11-28_09h18.44.336,t1_Paradigm,2021.1.4,59.94129298433906,
Z,left,Pretarget,0,38,38,38,2383.4213411001547,2385.4236877672083,left,1,4,1.01228254835587,W16C01,2022-11-28_09h18.44.336,t1_Paradigm,2021.1.4,59.94129298433906,
P,left,Pretarget,0,39,39,39,2386.9217040876974,2388.923344027804,right,0,4,1.2246015397831798,W16C01,2022-11-28_09h18.44.336,t1_Paradigm,2021.1.4,59.94129298433906,
M,left,Distractor,0,40,40,40,2390.421640729299,2392.423818012845,left,1,4,1.1319888732978143,W16C01,2022-11-28_09h18.44.336,t1_Paradigm,2021.1.4,59.94129298433906,
N,right,Target,0,41,41,41,2393.9214654109674,2395.923601631861,None,0,4,,W16C01,2022-11-28_09h18.44.336,t1_Paradigm,2021.1.4,59.94129298433906,
Z,right,Target,0,42,42,42,2397.421621160349,2399.423930614372,left,0,4,0.7718471814296208,W16C01,2022-11-28_09h18.44.336,t1_Paradigm,2021.1.4,59.94129298433906,
P,right,Target,0,43,43,43,2400.9215433658683,2402.920801671513,right,1,4,0.8591441578464583,W16C01,2022-11-28_09h18.44.336,t1_Paradigm,2021.1.4,59.94129298433906,
X,left,Pretarget,0,44,44,44,2404.4216471453256,2406.4233589450887,left,1,4,1.0846426601929124,W16C01,2022-11-28_09h18.44.336,t1_Paradigm,2021.1.4,59.94129298433906,
Z,left,Lure,0,45,45,45,2407.9214201778814,2409.920942824421,left,1,4,1.0270898088638205,W16C01,2022-11-28_09h18.44.336,t1_Paradigm,2021.1.4,59.94129298433906,
R,left,Pretarget,0,46,46,46,2411.4214713457914,2413.423921631911,left,1,4,1.060021743964171,W16C01,2022-11-28_09h18.44.336,t1_Paradigm,2021.1.4,59.94129298433906,
K,left,Distractor,0,47,47,47,2414.92132618287,2416.9228134212026,left,1,4,0.7930724079196807,W16C01,2022-11-28_09h18.44.336,t1_Paradigm,2021.1.4,59.94129298433906,
X,right,Target,0,48,48,48,2418.4213305136946,2420.423606283497,right,1,4,0.9243218324845657,W16C01,2022-11-28_09h18.44.336,t1_Paradigm,2021.1.4,59.94129298433906,
B,left,Distractor,0,49,49,49,2421.9215744836547,2423.923825872509,left,1,4,1.2319944231712725,W16C01,2022-11-28_09h18.44.336,t1_Paradigm,2021.1.4,59.94129298433906,
R,right,Target,0,50,50,50,2425.421513050067,2427.423890193313,right,1,4,0.6120928901655134,W16C01,2022-11-28_09h18.44.336,t1_Paradigm,2021.1.4,59.94129298433906,
Y,left,Pretarget,0,51,51,51,2428.921766002488,2430.920896949712,left,1,4,0.6189355980313849,W16C01,2022-11-28_09h18.44.336,t1_Paradigm,2021.1.4,59.94129298433906,
W,left,Pretarget,0,52,52,52,2432.421541280637,2434.4232322282915,left,1,4,0.748509152646875,W16C01,2022-11-28_09h18.44.336,t1_Paradigm,2021.1.4,59.94129298433906,
Z,left,Distractor,0,53,53,53,2435.921545932273,2437.923483576713,right,0,4,0.8965548104606569,W16C01,2022-11-28_09h18.44.336,t1_Paradigm,2021.1.4,59.94129298433906,
Q,left,Distractor,0,54,54,54,2439.4217068145226,2441.4234086694196,left,1,4,1.0125603629276156,W16C01,2022-11-28_09h18.44.336,t1_Paradigm,2021.1.4,59.94129298433906,
Y,right,Target,0,55,55,55,2442.9213496014127,2444.9237232158484,right,1,4,0.7122617282730062,W16C01,2022-11-28_09h18.44.336,t1_Paradigm,2021.1.4,59.94129298433906,
W,right,Target,0,56,56,56,2446.421587155346,2448.4223381529446,right,1,4,0.8935758425795939,W16C01,2022-11-28_09h18.44.336,t1_Paradigm,2021.1.4,59.94129298433906,
H,left,Pretarget,0,57,57,57,2449.9215042280266,2451.9237540128233,left,1,4,0.7681573161971755,W16C01,2022-11-28_09h18.44.336,t1_Paradigm,2021.1.4,59.94129298433906,
M,left,Distractor,0,58,58,58,2453.4214864234964,2455.4222063033085,left,1,4,0.9658506210835185,W16C01,2022-11-28_09h18.44.336,t1_Paradigm,2021.1.4,59.94129298433906,
R,left,Pretarget,0,59,59,59,2456.921713711752,2458.923073912476,left,1,4,1.3847642120963428,W16C01,2022-11-28_09h18.44.336,t1_Paradigm,2021.1.4,59.94129298433906,
J,left,Distractor,0,60,60,60,2460.4216137819167,2462.4402873488143,left,1,4,0.9076276142441202,W16C01,2022-11-28_09h18.44.336,t1_Paradigm,2021.1.4,59.94129298433906,
H,right,Target,0,61,61,61,2463.9215279673517,2465.9235422834754,left,0,4,0.9607424899586476,W16C01,2022-11-28_09h18.44.336,t1_Paradigm,2021.1.4,59.94129298433906,
Z,left,Distractor,0,62,62,62,2467.4215717568586,2469.4238334113325,left,1,4,1.299993872671621,W16C01,2022-11-28_09h18.44.336,t1_Paradigm,2021.1.4,59.94129298433906,
R,right,Target,0,63,63,63,2470.921610092686,2472.9234970503894,left,0,4,0.7284526080766227,W16C01,2022-11-28_09h18.44.336,t1_Paradigm,2021.1.4,59.94129298433906,
J,left,Pretarget,0,0,0,0,2505.332314038271,2507.3238772649784,None,0,4,,W16C01,2022-11-28_09h18.44.336,t1_Paradigm,2021.1.4,59.94129298433906,
G,left,Pretarget,0,1,1,1,2508.8215435904276,2510.8206937857904,None,0,4,,W16C01,2022-11-28_09h18.44.336,t1_Paradigm,2021.1.4,59.94129298433906,
Z,left,Distractor,0,2,2,2,2512.321526748303,2514.324037024402,None,0,4,,W16C01,2022-11-28_09h18.44.336,t1_Paradigm,2021.1.4,59.94129298433906,
F,left,Distractor,0,3,3,3,2515.821570216998,2517.8232906784106,None,0,4,,W16C01,2022-11-28_09h18.44.336,t1_Paradigm,2021.1.4,59.94129298433906,
J,right,Target,0,4,4,4,2519.32163229218,2521.3239455958246,left,0,4,1.159941318910569,W16C01,2022-11-28_09h18.44.336,t1_Paradigm,2021.1.4,59.94129298433906,
G,right,Target,0,5,5,5,2522.8216266781674,2524.8236175757193,left,0,4,0.8923333762213588,W16C01,2022-11-28_09h18.44.336,t1_Paradigm,2021.1.4,59.94129298433906,
H,left,Distractor,0,6,6,6,2526.3216358210193,2528.323389325058,left,1,4,1.2484737040358596,W16C01,2022-11-28_09h18.44.336,t1_Paradigm,2021.1.4,59.94129298433906,
P,left,Distractor,0,7,7,7,2529.8215724626207,2531.820633154188,left,1,4,0.727351615409134,W16C01,2022-11-28_09h18.44.336,t1_Paradigm,2021.1.4,59.94129298433906,
G,left,Lure,0,8,8,8,2533.321571339795,2535.3237008238502,right,0,4,0.7602970242151059,W16C01,2022-11-28_09h18.44.336,t1_Paradigm,2021.1.4,59.94129298433906,
S,left,Distractor,0,9,9,9,2536.8214903372864,2538.823496633355,right,0,4,1.388427450787276,W16C01,2022-11-28_09h18.44.336,t1_Paradigm,2021.1.4,59.94129298433906,
R,left,Pretarget,0,10,10,10,2540.321534768358,2542.32328891402,None,0,4,,W16C01,2022-11-28_09h18.44.336,t1_Paradigm,2021.1.4,59.94129298433906,
T,left,Pretarget,0,11,11,11,2543.8213135753467,2545.823547961685,left,1,4,0.7404063343128655,W16C01,2022-11-28_09h18.44.336,t1_Paradigm,2021.1.4,59.94129298433906,
X,left,Distractor,0,12,12,12,2547.3214747783786,2549.3237848739955,left,1,4,0.744305362488376,W16C01,2022-11-28_09h18.44.336,t1_Paradigm,2021.1.4,59.94129298433906,
F,left,Pretarget,0,13,13,13,2550.821529475128,2552.8234680819733,left,1,4,1.1323417555831838,W16C01,2022-11-28_09h18.44.336,t1_Paradigm,2021.1.4,59.94129298433906,
R,right,Target,0,14,14,14,2554.3213365126867,2556.323808292538,left,0,4,1.152051513112383,W16C01,2022-11-28_09h18.44.336,t1_Paradigm,2021.1.4,59.94129298433906,
T,right,Target,0,15,15,15,2557.821580482676,2559.8238379667455,left,0,4,0.9319752071460243,W16C01,2022-11-28_09h18.44.336,t1_Paradigm,2021.1.4,59.94129298433906,
C,left,Distractor,0,16,16,16,2561.3215771142277,2563.3238066885388,left,1,4,0.9840192455449142,W16C01,2022-11-28_09h18.44.336,t1_Paradigm,2021.1.4,59.94129298433906,
F,right,Target,0,17,17,17,2564.8214909788803,2566.8232669390854,right,1,4,0.8127343659289181,W16C01,2022-11-28_09h18.44.336,t1_Paradigm,2021.1.4,59.94129298433906,
M,left,Distractor,0,18,18,18,2568.321420562832,2570.3234512398485,left,1,4,0.7203995140444022,W16C01,2022-11-28_09h18.44.336,t1_Paradigm,2021.1.4,59.94129298433906,
N,left,Distractor,0,19,19,19,2571.821590427513,2573.823168452829,left,1,4,1.0928000148851424,W16C01,2022-11-28_09h18.44.336,t1_Paradigm,2021.1.4,59.94129298433906,
R,left,Lure,0,20,20,20,2575.3215296355484,2577.322455149464,right,0,4,0.7295815105026122,W16C01,2022-11-28_09h18.44.336,t1_Paradigm,2021.1.4,59.94129298433906,
F,right,Target,0,21,21,21,2578.821398908709,2580.823876462993,right,1,4,1.0199676823976915,W16C01,2022-11-28_09h18.44.336,t1_Paradigm,2021.1.4,59.94129298433906,
P,left,Distractor,0,22,22,22,2582.321474457596,2584.323567049403,left,1,4,0.7681701482797507,W16C01,2022-11-28_09h18.44.336,t1_Paradigm,2021.1.4,59.94129298433906,
L,left,Pretarget,0,23,23,23,2585.820630587783,2587.8237821471703,left,1,4,0.5160835714777932,W16C01,2022-11-28_09h18.44.336,t1_Paradigm,2021.1.4,59.94129298433906,
T,left,Distractor,0,24,24,24,2589.3214856856503,2591.324143209902,left,1,4,0.7278604074963368,W16C01,2022-11-28_09h18.44.336,t1_Paradigm,2021.1.4,59.94129298433906,
F,left,Distractor,0,25,25,25,2592.821481034014,2594.823049756087,left,1,4,1.1809009212302044,W16C01,2022-11-28_09h18.44.336,t1_Paradigm,2021.1.4,59.94129298433906,
V,left,Distractor,0,26,26,26,2596.321710247081,2598.3239927537215,left,1,4,0.7358580027357675,W16C01,2022-11-28_09h18.44.336,t1_Paradigm,2021.1.4,59.94129298433906,
L,right,Target,0,27,27,27,2599.8215461568325,2601.8238418163673,right,1,4,0.7881073544849642,W16C01,2022-11-28_09h18.44.336,t1_Paradigm,2021.1.4,59.94129298433906,
S,left,Pretarget,0,28,28,28,2603.3207757507043,2605.323875660979,left,1,4,0.7281106330920011,W16C01,2022-11-28_09h18.44.336,t1_Paradigm,2021.1.4,59.94129298433906,
W,left,Distractor,0,29,29,29,2606.821502527775,2608.8236162925023,left,1,4,1.1483430413354654,W16C01,2022-11-28_09h18.44.336,t1_Paradigm,2021.1.4,59.94129298433906,
Q,left,Distractor,0,30,30,30,2610.3217035102425,2612.3238432599755,left,1,4,0.8318374868249521,W16C01,2022-11-28_09h18.44.336,t1_Paradigm,2021.1.4,59.94129298433906,
L,right,Target,0,31,31,31,2613.8214608234994,2615.82328362079,right,1,4,0.7246889583475422,W16C01,2022-11-28_09h18.44.336,t1_Paradigm,2021.1.4,59.94129298433906,
S,right,Target,0,32,32,32,2617.3215886631224,2619.3233588488656,left,0,4,1.016434368561022,W16C01,2022-11-28_09h18.44.336,t1_Paradigm,2021.1.4,59.94129298433906,
Z,left,Pretarget,0,33,33,33,2620.8213860766264,2622.823494066921,left,1,4,0.7323619019298349,W16C01,2022-11-28_09h18.44.336,t1_Paradigm,2021.1.4,59.94129298433906,
F,left,Distractor,0,34,34,34,2624.3215453548473,2626.323513796262,left,1,4,0.9604011565679684,W16C01,2022-11-28_09h18.44.336,t1_Paradigm,2021.1.4,59.94129298433906,
V,left,Distractor,0,35,35,35,2627.821572141809,2629.8240634905815,left,1,4,0.9799739316222258,W16C01,2022-11-28_09h18.44.336,t1_Paradigm,2021.1.4,59.94129298433906,
M,left,Distractor,0,36,36,36,2631.321460021485,2633.3240010945883,left,1,4,0.9838434460107237,W16C01,2022-11-28_09h18.44.336,t1_Paradigm,2021.1.4,59.94129298433906,
Z,right,Target,0,37,37,37,2634.821611921274,2636.823228122026,left,0,4,0.972763263824163,W16C01,2022-11-28_09h18.44.336,t1_Paradigm,2021.1.4,59.94129298433906,
H,left,Pretarget,0,38,38,38,2638.3214917808946,2640.323710447905,left,1,4,0.6242567417502869,W16C01,2022-11-28_09h18.44.336,t1_Paradigm,2021.1.4,59.94129298433906,
L,left,Distractor,0,39,39,39,2641.821628282167,2643.8234315105365,right,0,4,1.108503596362425,W16C01,2022-11-28_09h18.44.336,t1_Paradigm,2021.1.4,59.94129298433906,
G,left,Distractor,0,40,40,40,2645.321424412454,2647.3237784579396,left,1,4,0.8238517612044234,W16C01,2022-11-28_09h18.44.336,t1_Paradigm,2021.1.4,59.94129298433906,
K,left,Distractor,0,41,41,41,2648.8215362119663,2650.823924904078,left,1,4,0.7319272151507903,W16C01,2022-11-28_09h18.44.336,t1_Paradigm,2021.1.4,59.94129298433906,
H,right,Target,0,42,42,42,2652.32149980095,2654.323781986779,left,0,4,1.4081230930169113,W16C01,2022-11-28_09h18.44.336,t1_Paradigm,2021.1.4,59.94129298433906,
B,left,Distractor,0,43,43,43,2655.8215573849156,2657.8236859065655,left,1,4,0.6923213140689768,W16C01,2022-11-28_09h18.44.336,t1_Paradigm,2021.1.4,59.94129298433906,
Z,left,Distractor,0,44,44,44,2659.321706397459,2661.3238426183525,right,0,4,1.4320035981363617,W16C01,2022-11-28_09h18.44.336,t1_Paradigm,2021.1.4,59.94129298433906,
T,left,Pretarget,0,45,45,45,2662.8216584375477,2664.8236477311,left,1,4,0.7002210647042375,W16C01,2022-11-28_09h18.44.336,t1_Paradigm,2021.1.4,59.94129298433906,
H,right,Target,0,46,46,46,2666.321537334792,2668.323457335093,left,0,4,1.0725304577499628,W16C01,2022-11-28_09h18.44.336,t1_Paradigm,2021.1.4,59.94129298433906,
F,left,Distractor,0,47,47,47,2669.8215095853957,2671.823367029312,left,1,4,0.6609314744418953,W16C01,2022-11-28_09h18.44.336,t1_Paradigm,2021.1.4,59.94129298433906,
R,left,Distractor,0,48,48,48,2673.32149980095,2675.3237829491845,left,1,4,0.7602081620134413,W16C01,2022-11-28_09h18.44.336,t1_Paradigm,2021.1.4,59.94129298433906,
T,right,Target,0,49,49,49,2676.82163951025,2678.823534167197,left,0,4,0.7163320647960063,W16C01,2022-11-28_09h18.44.336,t1_Paradigm,2021.1.4,59.94129298433906,
H,right,Target,0,50,50,50,2680.3215620365518,2682.323899400333,right,1,4,0.7039738071616739,W16C01,2022-11-28_09h18.44.336,t1_Paradigm,2021.1.4,59.94129298433906,
Y,left,Pretarget,0,51,51,51,2683.8215875402966,2685.823722157191,left,1,4,0.8841275804152247,W16C01,2022-11-28_09h18.44.336,t1_Paradigm,2021.1.4,59.94129298433906,
H,left,Distractor,0,52,52,52,2687.321546317253,2689.3238804730063,left,1,4,1.1921228979772422,W16C01,2022-11-28_09h18.44.336,t1_Paradigm,2021.1.4,59.94129298433906,
S,left,Distractor,0,53,53,53,2690.821557064104,2692.8228383475216,left,1,4,0.685069262777688,W16C01,2022-11-28_09h18.44.336,t1_Paradigm,2021.1.4,59.94129298433906,
Q,left,Distractor,0,54,54,54,2694.321440773376,2696.323280573153,left,1,4,0.8805467878410127,W16C01,2022-11-28_09h18.44.336,t1_Paradigm,2021.1.4,59.94129298433906,
Y,right,Target,0,55,55,55,2697.8215557809162,2699.8237398013007,left,0,4,0.9161259815446101,W16C01,2022-11-28_09h18.44.336,t1_Paradigm,2021.1.4,59.94129298433906,
R,left,Distractor,0,56,56,56,2701.3215318811417,2703.32363185141,left,1,4,1.0803342885628808,W16C01,2022-11-28_09h18.44.336,t1_Paradigm,2021.1.4,59.94129298433906,
H,left,Pretarget,0,57,57,57,2704.8206799913023,2706.823581325094,left,1,4,1.1646176504727919,W16C01,2022-11-28_09h18.44.336,t1_Paradigm,2021.1.4,59.94129298433906,
J,left,Distractor,0,58,58,58,2708.321585775906,2710.3235619165644,left,1,4,0.6884145865915343,W16C01,2022-11-28_09h18.44.336,t1_Paradigm,2021.1.4,59.94129298433906,
V,left,Distractor,0,59,59,59,2711.8215034901805,2713.8236130845034,left,1,4,1.0444772803166416,W16C01,2022-11-28_09h18.44.336,t1_Paradigm,2021.1.4,59.94129298433906,
Y,left,Lure,0,60,60,60,2715.3218793097767,2717.3205996303877,left,1,4,0.9552888549806084,W16C01,2022-11-28_09h18.44.336,t1_Paradigm,2021.1.4,59.94129298433906,
H,right,Target,0,61,61,61,2718.821543911239,2720.82341611202,right,1,4,1.3085233577294275,W16C01,2022-11-28_09h18.44.336,t1_Paradigm,2021.1.4,59.94129298433906,
L,left,Distractor,0,62,62,62,2722.321461946296,2724.3222803123354,left,1,4,0.7056233713228721,W16C01,2022-11-28_09h18.44.336,t1_Paradigm,2021.1.4,59.94129298433906,
P,left,Distractor,0,63,63,63,2725.8217636606423,2727.8235239015194,left,1,4,0.7404881388356443,W16C01,2022-11-28_09h18.44.336,t1_Paradigm,2021.1.4,59.94129298433906,
