Currentstep,EDround.thisRepN,EDround.thisTrialN,EDround.thisN,EDround.thisIndex,question.started,EDclick.clicked_name,EDleftbutton.wasclicked,EDrightbutton.wasclicked,EDleftbutton.value,EDrightbutton.value,EDleftbutton.nback,EDrightbutton.nback,Participant,date,expName,psychopyVersion,frameRate,
,,,,,,,,,,,,,W17L05,2022-12-01_12h24.00.790,t1_Paradigm,2021.1.4,60.2453736270178,
0,0,0,0,0,2617.5227679708623,EDrightbutton,0,1,1.00,2.00,1,4,W17L05,2022-12-01_12h24.00.790,t1_Paradigm,2021.1.4,60.2453736270178,
1,0,1,1,1,2638.64162773735,EDleftbutton,1,0,1.50,2.00,1,4,W17L05,2022-12-01_12h24.00.790,t1_Paradigm,2021.1.4,60.2453736270178,
2,0,2,2,2,2642.600328629749,EDrightbutton,0,1,1.25,2.00,1,4,W17L05,2022-12-01_12h24.00.790,t1_Paradigm,2021.1.4,60.2453736270178,
3,0,3,3,3,2648.081214274687,EDrightbutton,0,1,1.38,2.00,1,4,W17L05,2022-12-01_12h24.00.790,t1_Paradigm,2021.1.4,60.2453736270178,
4,0,4,4,4,2655.358206407982,EDrightbutton,0,1,1.44,2.00,1,4,W17L05,2022-12-01_12h24.00.790,t1_Paradigm,2021.1.4,60.2453736270178,
5,0,5,5,5,2657.868385781301,EDrightbutton,0,1,1.47,2.00,1,4,W17L05,2022-12-01_12h24.00.790,t1_Paradigm,2021.1.4,60.2453736270178,
0,0,0,0,0,2663.435375046596,EDrightbutton,0,1,1.00,2.00,1,3,W17L05,2022-12-01_12h24.00.790,t1_Paradigm,2021.1.4,60.2453736270178,
1,0,1,1,1,2667.5507027813,EDleftbutton,1,0,1.50,2.00,1,3,W17L05,2022-12-01_12h24.00.790,t1_Paradigm,2021.1.4,60.2453736270178,
2,0,2,2,2,2674.136798381631,EDrightbutton,0,1,1.25,2.00,1,3,W17L05,2022-12-01_12h24.00.790,t1_Paradigm,2021.1.4,60.2453736270178,
3,0,3,3,3,2676.550759242469,EDrightbutton,0,1,1.38,2.00,1,3,W17L05,2022-12-01_12h24.00.790,t1_Paradigm,2021.1.4,60.2453736270178,
4,0,4,4,4,2678.9610488434264,EDrightbutton,0,1,1.44,2.00,1,3,W17L05,2022-12-01_12h24.00.790,t1_Paradigm,2021.1.4,60.2453736270178,
5,0,5,5,5,2681.2041065242956,EDrightbutton,0,1,1.47,2.00,1,3,W17L05,2022-12-01_12h24.00.790,t1_Paradigm,2021.1.4,60.2453736270178,
0,0,0,0,0,2683.880729285971,EDrightbutton,0,1,1.00,2.00,2,4,W17L05,2022-12-01_12h24.00.790,t1_Paradigm,2021.1.4,60.2453736270178,
1,0,1,1,1,2688.137866973615,EDleftbutton,1,0,1.50,2.00,2,4,W17L05,2022-12-01_12h24.00.790,t1_Paradigm,2021.1.4,60.2453736270178,
2,0,2,2,2,2691.737013126607,EDrightbutton,0,1,1.25,2.00,2,4,W17L05,2022-12-01_12h24.00.790,t1_Paradigm,2021.1.4,60.2453736270178,
3,0,3,3,3,2693.9647027800092,EDrightbutton,0,1,1.38,2.00,2,4,W17L05,2022-12-01_12h24.00.790,t1_Paradigm,2021.1.4,60.2453736270178,
4,0,4,4,4,2695.8471615104354,EDrightbutton,0,1,1.44,2.00,2,4,W17L05,2022-12-01_12h24.00.790,t1_Paradigm,2021.1.4,60.2453736270178,
5,0,5,5,5,2697.637607444689,EDrightbutton,0,1,1.47,2.00,2,4,W17L05,2022-12-01_12h24.00.790,t1_Paradigm,2021.1.4,60.2453736270178,
0,0,0,0,0,2699.4354302245774,EDrightbutton,0,1,1.00,2.00,1,2,W17L05,2022-12-01_12h24.00.790,t1_Paradigm,2021.1.4,60.2453736270178,
1,0,1,1,1,2704.5863496756356,EDrightbutton,0,1,1.50,2.00,1,2,W17L05,2022-12-01_12h24.00.790,t1_Paradigm,2021.1.4,60.2453736270178,
2,0,2,2,2,2711.3670855701494,EDleftbutton,1,0,1.75,2.00,1,2,W17L05,2022-12-01_12h24.00.790,t1_Paradigm,2021.1.4,60.2453736270178,
3,0,3,3,3,2714.811747197644,EDrightbutton,0,1,1.62,2.00,1,2,W17L05,2022-12-01_12h24.00.790,t1_Paradigm,2021.1.4,60.2453736270178,
4,0,4,4,4,2716.927445138019,EDrightbutton,0,1,1.68,2.00,1,2,W17L05,2022-12-01_12h24.00.790,t1_Paradigm,2021.1.4,60.2453736270178,
5,0,5,5,5,2722.4837786388234,EDleftbutton,1,0,1.71,2.00,1,2,W17L05,2022-12-01_12h24.00.790,t1_Paradigm,2021.1.4,60.2453736270178,
0,0,0,0,0,2727.7174451572646,EDrightbutton,0,1,1.00,2.00,3,4,W17L05,2022-12-01_12h24.00.790,t1_Paradigm,2021.1.4,60.2453736270178,
1,0,1,1,1,2733.5042583278846,EDrightbutton,0,1,1.50,2.00,3,4,W17L05,2022-12-01_12h24.00.790,t1_Paradigm,2021.1.4,60.2453736270178,
2,0,2,2,2,2739.220950562478,EDrightbutton,0,1,1.75,2.00,3,4,W17L05,2022-12-01_12h24.00.790,t1_Paradigm,2021.1.4,60.2453736270178,
3,0,3,3,3,2745.518693141843,EDleftbutton,1,0,1.88,2.00,3,4,W17L05,2022-12-01_12h24.00.790,t1_Paradigm,2021.1.4,60.2453736270178,
4,0,4,4,4,2750.71948995025,EDrightbutton,0,1,1.82,2.00,3,4,W17L05,2022-12-01_12h24.00.790,t1_Paradigm,2021.1.4,60.2453736270178,
5,0,5,5,5,2753.201709169749,EDleftbutton,1,0,1.85,2.00,3,4,W17L05,2022-12-01_12h24.00.790,t1_Paradigm,2021.1.4,60.2453736270178,
0,0,0,0,0,2756.184187276609,EDrightbutton,0,1,1.00,2.00,2,3,W17L05,2022-12-01_12h24.00.790,t1_Paradigm,2021.1.4,60.2453736270178,
1,0,1,1,1,2760.8452809681767,EDrightbutton,0,1,1.50,2.00,2,3,W17L05,2022-12-01_12h24.00.790,t1_Paradigm,2021.1.4,60.2453736270178,
2,0,2,2,2,2763.4866597630025,EDleftbutton,1,0,1.75,2.00,2,3,W17L05,2022-12-01_12h24.00.790,t1_Paradigm,2021.1.4,60.2453736270178,
3,0,3,3,3,2772.55373115369,EDrightbutton,0,1,1.62,2.00,2,3,W17L05,2022-12-01_12h24.00.790,t1_Paradigm,2021.1.4,60.2453736270178,
4,0,4,4,4,2775.5352786134754,EDrightbutton,0,1,1.68,2.00,2,3,W17L05,2022-12-01_12h24.00.790,t1_Paradigm,2021.1.4,60.2453736270178,
5,0,5,5,5,2777.3663919958635,EDrightbutton,0,1,1.71,2.00,2,3,W17L05,2022-12-01_12h24.00.790,t1_Paradigm,2021.1.4,60.2453736270178,
