Letter,CorrAnswer,Stimulus,nback_run.thisRepN,nback_run.thisTrialN,nback_run.thisN,nback_run.thisIndex,fixcross.started,nback_trial.started,trial_resp.keys,trial_resp.corr,currentlevel,trial_resp.rt,Participant,date,expName,psychopyVersion,frameRate,
H,left,Distractor,0,0,0,0,44.56450336938724,46.52314138459042,None,0,1,,W17L05,2022-12-01_12h24.00.790,t1_Paradigm,2021.1.4,60.2453736270178,
Q,left,Pretarget,0,1,1,1,48.01032341350219,50.01191619623569,left,1,1,0.7886394973029383,W17L05,2022-12-01_12h24.00.790,t1_Paradigm,2021.1.4,60.2453736270178,
Q,right,Target,0,2,2,2,51.51022717283922,53.51049087222782,right,1,1,1.0982677966821939,W17L05,2022-12-01_12h24.00.790,t1_Paradigm,2021.1.4,60.2453736270178,
T,left,Distractor,0,3,3,3,55.01012676177197,57.011620737437624,left,1,1,1.08492338922224,W17L05,2022-12-01_12h24.00.790,t1_Paradigm,2021.1.4,60.2453736270178,
Q,left,Lure,0,4,4,4,58.51039046116057,60.51109590509441,None,0,1,,W17L05,2022-12-01_12h24.00.790,t1_Paradigm,2021.1.4,60.2453736270178,
L,left,Distractor,0,5,5,5,62.01024962900556,64.01164479760337,left,1,1,1.3651880253455602,W17L05,2022-12-01_12h24.00.790,t1_Paradigm,2021.1.4,60.2453736270178,
V,left,Pretarget,0,6,6,6,65.5105345013144,67.51194603083422,left,1,1,0.9206637011666317,W17L05,2022-12-01_12h24.00.790,t1_Paradigm,2021.1.4,60.2453736270178,
V,right,Target,0,7,7,7,69.01045462157344,71.01004688203102,right,1,1,0.8306944147916511,W17L05,2022-12-01_12h24.00.790,t1_Paradigm,2021.1.4,60.2453736270178,
K,left,Distractor,0,8,8,8,72.51019637583522,74.51200794565375,left,1,1,1.008659733517561,W17L05,2022-12-01_12h24.00.790,t1_Paradigm,2021.1.4,60.2453736270178,
G,left,Pretarget,0,9,9,9,76.0102765763877,78.01167816101224,left,1,1,1.1889877601061016,W17L05,2022-12-01_12h24.00.790,t1_Paradigm,2021.1.4,60.2453736270178,
G,right,Target,0,10,10,10,79.51054220058722,81.51024802500615,right,1,1,0.8904643483110704,W17L05,2022-12-01_12h24.00.790,t1_Paradigm,2021.1.4,60.2453736270178,
G,right,Target,0,11,11,11,83.01051012036623,85.01056754394085,right,1,1,0.8464310439012479,W17L05,2022-12-01_12h24.00.790,t1_Paradigm,2021.1.4,60.2453736270178,
P,left,Pretarget,0,12,12,12,86.51050274190493,88.51194795564516,left,1,1,0.9928897409408819,W17L05,2022-12-01_12h24.00.790,t1_Paradigm,2021.1.4,60.2453736270178,
P,right,Target,0,13,13,13,90.0105652983184,92.01056176950806,right,1,1,0.9020193212782033,W17L05,2022-12-01_12h24.00.790,t1_Paradigm,2021.1.4,60.2453736270178,
G,left,Lure,0,14,14,14,93.51057139356271,95.51046841609059,None,0,1,,W17L05,2022-12-01_12h24.00.790,t1_Paradigm,2021.1.4,60.2453736270178,
Y,left,Distractor,0,15,15,15,97.0105681855348,99.01188828644808,None,0,1,,W17L05,2022-12-01_12h24.00.790,t1_Paradigm,2021.1.4,60.2453736270178,
B,left,Distractor,0,16,16,16,100.51048830582295,102.51098234113306,left,1,1,1.217566420469666,W17L05,2022-12-01_12h24.00.790,t1_Paradigm,2021.1.4,60.2453736270178,
T,left,Pretarget,0,17,17,17,104.01007799984654,106.01041420051479,left,1,1,1.1902648735267576,W17L05,2022-12-01_12h24.00.790,t1_Paradigm,2021.1.4,60.2453736270178,
T,right,Target,0,18,18,18,107.5103323959629,109.51031346863601,None,0,1,,W17L05,2022-12-01_12h24.00.790,t1_Paradigm,2021.1.4,60.2453736270178,
S,left,Distractor,0,19,19,19,111.01045077195158,113.01227902347455,left,1,1,1.308418233616976,W17L05,2022-12-01_12h24.00.790,t1_Paradigm,2021.1.4,60.2453736270178,
T,left,Lure,0,20,20,20,114.51021049113479,116.51169420112274,left,1,1,1.0409596989047714,W17L05,2022-12-01_12h24.00.790,t1_Paradigm,2021.1.4,60.2453736270178,
J,left,Distractor,0,21,21,21,118.01025829065475,120.01031218541902,left,1,1,1.2383742901438382,W17L05,2022-12-01_12h24.00.790,t1_Paradigm,2021.1.4,60.2453736270178,
P,left,Distractor,0,22,22,22,121.51056080710259,123.5106884863635,left,1,1,0.8740216336154845,W17L05,2022-12-01_12h24.00.790,t1_Paradigm,2021.1.4,60.2453736270178,
F,left,Distractor,0,23,23,23,125.01029101246968,127.01171986528789,left,1,1,0.8130804514221381,W17L05,2022-12-01_12h24.00.790,t1_Paradigm,2021.1.4,60.2453736270178,
L,left,Distractor,0,24,24,24,128.51024353376124,130.51178691294626,left,1,1,0.6729194215440657,W17L05,2022-12-01_12h24.00.790,t1_Paradigm,2021.1.4,60.2453736270178,
W,left,Pretarget,0,25,25,25,132.0102502705995,134.0124397453328,left,1,1,0.7242407093872316,W17L05,2022-12-01_12h24.00.790,t1_Paradigm,2021.1.4,60.2453736270178,
W,right,Target,0,26,26,26,135.51020535829593,137.51006452617003,left,0,1,0.9706966475350782,W17L05,2022-12-01_12h24.00.790,t1_Paradigm,2021.1.4,60.2453736270178,
V,left,Distractor,0,27,27,27,139.01047515292885,141.0106782206858,left,1,1,0.782091283617774,W17L05,2022-12-01_12h24.00.790,t1_Paradigm,2021.1.4,60.2453736270178,
W,left,Lure,0,28,28,28,142.51058069683495,144.5117185821,left,1,1,0.9131020734785125,W17L05,2022-12-01_12h24.00.790,t1_Paradigm,2021.1.4,60.2453736270178,
R,left,Pretarget,0,29,29,29,146.01040970926988,148.0122488680645,left,1,1,1.332336601044517,W17L05,2022-12-01_12h24.00.790,t1_Paradigm,2021.1.4,60.2453736270178,
R,right,Target,0,30,30,30,149.51062336351606,151.510500817094,right,1,1,0.8741396887926385,W17L05,2022-12-01_12h24.00.790,t1_Paradigm,2021.1.4,60.2453736270178,
G,left,Distractor,0,31,31,31,153.01024513776065,155.01201243686955,None,0,1,,W17L05,2022-12-01_12h24.00.790,t1_Paradigm,2021.1.4,60.2453736270178,
R,left,Lure,0,32,32,32,156.51054989983095,158.51059930335032,left,1,1,0.8982017755915876,W17L05,2022-12-01_12h24.00.790,t1_Paradigm,2021.1.4,60.2453736270178,
S,left,Distractor,0,33,33,33,160.01069939363515,162.01197875264916,left,1,1,0.9166584862105083,W17L05,2022-12-01_12h24.00.790,t1_Paradigm,2021.1.4,60.2453736270178,
R,left,Lure,0,34,34,34,163.51057877202402,165.51197169499937,left,1,1,0.7609594037639908,W17L05,2022-12-01_12h24.00.790,t1_Paradigm,2021.1.4,60.2453736270178,
P,left,Pretarget,0,35,35,35,167.0103295087465,169.0106503108982,left,1,1,0.7500348070461769,W17L05,2022-12-01_12h24.00.790,t1_Paradigm,2021.1.4,60.2453736270178,
P,right,Target,0,36,36,36,170.51024513776065,172.51053706774837,right,1,1,0.45006971032125875,W17L05,2022-12-01_12h24.00.790,t1_Paradigm,2021.1.4,60.2453736270178,
Y,left,Pretarget,0,37,37,37,174.01023904254544,176.01231078288401,left,1,1,0.6445717387541663,W17L05,2022-12-01_12h24.00.790,t1_Paradigm,2021.1.4,60.2453736270178,
Y,right,Target,0,38,38,38,177.510780556564,179.51032020547427,right,1,1,1.0342828435532283,W17L05,2022-12-01_12h24.00.790,t1_Paradigm,2021.1.4,60.2453736270178,
J,left,Distractor,0,39,39,39,181.0103057693923,183.0110971883114,left,1,1,0.7335093254223466,W17L05,2022-12-01_12h24.00.790,t1_Paradigm,2021.1.4,60.2453736270178,
Y,left,Lure,0,40,40,40,184.5106445364654,186.51075328839943,left,1,1,1.0259596315445378,W17L05,2022-12-01_12h24.00.790,t1_Paradigm,2021.1.4,60.2453736270178,
T,left,Distractor,0,41,41,41,188.0106855991471,190.01151166469208,left,1,1,1.1412726093258243,W17L05,2022-12-01_12h24.00.790,t1_Paradigm,2021.1.4,60.2453736270178,
V,left,Distractor,0,42,42,42,191.5105431629927,193.51051942360937,left,1,1,0.8582009543315507,W17L05,2022-12-01_12h24.00.790,t1_Paradigm,2021.1.4,60.2453736270178,
N,left,Pretarget,0,43,43,43,195.01049375944422,197.01199671757058,left,1,1,0.7966877818398643,W17L05,2022-12-01_12h24.00.790,t1_Paradigm,2021.1.4,60.2453736270178,
N,right,Target,0,44,44,44,198.51025700746686,200.51058711286169,right,1,1,0.7860037867503706,W17L05,2022-12-01_12h24.00.790,t1_Paradigm,2021.1.4,60.2453736270178,
N,right,Target,0,45,45,45,202.01037955388892,204.01051204517717,right,1,1,0.7422662619501352,W17L05,2022-12-01_12h24.00.790,t1_Paradigm,2021.1.4,60.2453736270178,
X,left,Distractor,0,46,46,46,205.51007799984654,207.5102412881388,left,1,1,0.8904906540701631,W17L05,2022-12-01_12h24.00.790,t1_Paradigm,2021.1.4,60.2453736270178,
Z,left,Distractor,0,47,47,47,209.0102926164982,211.00981333808159,left,1,1,1.006916815356817,W17L05,2022-12-01_12h24.00.790,t1_Paradigm,2021.1.4,60.2453736270178,
H,left,Pretarget,0,48,48,48,212.51031058141962,214.51040650127106,left,1,1,1.2822606671543326,W17L05,2022-12-01_12h24.00.790,t1_Paradigm,2021.1.4,60.2453736270178,
H,right,Target,0,49,49,49,216.01010462641716,218.0105755639961,right,1,1,0.8380087040131912,W17L05,2022-12-01_12h24.00.790,t1_Paradigm,2021.1.4,60.2453736270178,
K,left,Distractor,0,50,50,50,219.51015018034377,221.5122386023868,left,1,1,0.6483931340626441,W17L05,2022-12-01_12h24.00.790,t1_Paradigm,2021.1.4,60.2453736270178,
V,left,Pretarget,0,51,51,51,223.01021177435177,225.011935444345,left,1,1,0.5728054084756877,W17L05,2022-12-01_12h24.00.790,t1_Paradigm,2021.1.4,60.2453736270178,
V,right,Target,0,52,52,52,226.5103705714282,228.5102868420654,right,1,1,0.7384025207429659,W17L05,2022-12-01_12h24.00.790,t1_Paradigm,2021.1.4,60.2453736270178,
R,left,Distractor,0,53,53,53,230.01034651126247,232.01195693810587,left,1,1,0.9167428571672644,W17L05,2022-12-01_12h24.00.790,t1_Paradigm,2021.1.4,60.2453736270178,
V,left,Lure,0,54,54,54,233.5106926567969,235.51053642612533,left,1,1,0.8741977539903019,W17L05,2022-12-01_12h24.00.790,t1_Paradigm,2021.1.4,60.2453736270178,
Y,left,Distractor,0,55,55,55,237.01025732824928,239.01213370007463,left,1,1,0.6525318027415778,W17L05,2022-12-01_12h24.00.790,t1_Paradigm,2021.1.4,60.2453736270178,
Q,left,Distractor,0,56,56,56,240.51025668665534,242.51060860662255,left,1,1,0.5780550150084309,W17L05,2022-12-01_12h24.00.790,t1_Paradigm,2021.1.4,60.2453736270178,
Z,left,Pretarget,0,57,57,57,244.01073275704402,246.01066570941475,left,1,1,0.9821470390306786,W17L05,2022-12-01_12h24.00.790,t1_Paradigm,2021.1.4,60.2453736270178,
Z,right,Target,0,58,58,58,247.51013478182722,249.5104142005148,left,0,1,1.290173573215725,W17L05,2022-12-01_12h24.00.790,t1_Paradigm,2021.1.4,60.2453736270178,
B,left,Distractor,0,59,59,59,251.01050755393226,253.0108129575965,left,1,1,0.6858506358112209,W17L05,2022-12-01_12h24.00.790,t1_Paradigm,2021.1.4,60.2453736270178,
S,left,Pretarget,0,60,60,60,254.51052808528766,256.5105422005872,left,1,1,0.6421763090183958,W17L05,2022-12-01_12h24.00.790,t1_Paradigm,2021.1.4,60.2453736270178,
S,right,Target,0,61,61,61,258.01007671662956,260.01031828066334,right,1,1,0.5023027179122437,W17L05,2022-12-01_12h24.00.790,t1_Paradigm,2021.1.4,60.2453736270178,
T,left,Distractor,0,62,62,62,261.5102605362772,263.5101299697999,left,1,1,0.6826378021505661,W17L05,2022-12-01_12h24.00.790,t1_Paradigm,2021.1.4,60.2453736270178,
D,left,Distractor,0,63,63,63,265.0103339999623,267.0120891085826,left,1,1,0.7324949489848223,W17L05,2022-12-01_12h24.00.790,t1_Paradigm,2021.1.4,60.2453736270178,
R,left,Distractor,0,0,0,0,273.58872585723293,275.59387986472575,None,0,1,,W17L05,2022-12-01_12h24.00.790,t1_Paradigm,2021.1.4,60.2453736270178,
V,left,Distractor,0,1,1,1,277.0938455389114,279.09545083291596,None,0,1,,W17L05,2022-12-01_12h24.00.790,t1_Paradigm,2021.1.4,60.2453736270178,
N,left,Pretarget,0,2,2,2,280.59372908773366,282.5930759345356,left,1,1,0.8318140142946504,W17L05,2022-12-01_12h24.00.790,t1_Paradigm,2021.1.4,60.2453736270178,
N,right,Target,0,3,3,3,284.09368610024103,286.0936533784261,right,1,1,0.7231188642617781,W17L05,2022-12-01_12h24.00.790,t1_Paradigm,2021.1.4,60.2453736270178,
S,left,Distractor,0,4,4,4,287.59350163899944,289.59534978022566,left,1,1,0.6295533856609836,W17L05,2022-12-01_12h24.00.790,t1_Paradigm,2021.1.4,60.2453736270178,
N,left,Lure,0,5,5,5,291.0938801855373,293.09408197010634,left,1,1,0.6345283855334856,W17L05,2022-12-01_12h24.00.790,t1_Paradigm,2021.1.4,60.2453736270178,
Z,left,Distractor,0,6,6,6,294.5935975588218,296.5945705517952,left,1,1,0.5902070008160081,W17L05,2022-12-01_12h24.00.790,t1_Paradigm,2021.1.4,60.2453736270178,
L,left,Pretarget,0,7,7,7,298.09366749369656,300.0935115838656,left,1,1,0.6912349792255554,W17L05,2022-12-01_12h24.00.790,t1_Paradigm,2021.1.4,60.2453736270178,
L,right,Target,0,8,8,8,301.5936957242957,303.59352537835366,right,1,1,0.7272501544794068,W17L05,2022-12-01_12h24.00.790,t1_Paradigm,2021.1.4,60.2453736270178,
H,left,Distractor,0,9,9,9,305.0940033735533,307.09389430083684,left,1,1,0.5068917927856091,W17L05,2022-12-01_12h24.00.790,t1_Paradigm,2021.1.4,60.2453736270178,
L,left,Lure,0,10,10,10,308.59363060144824,310.5940258297196,left,1,1,0.9748144640761893,W17L05,2022-12-01_12h24.00.790,t1_Paradigm,2021.1.4,60.2453736270178,
X,left,Pretarget,0,11,11,11,312.0936488871812,314.0944258700183,left,1,1,0.8663563868030906,W17L05,2022-12-01_12h24.00.790,t1_Paradigm,2021.1.4,60.2453736270178,
X,right,Target,0,12,12,12,315.59350741343223,317.59357189465663,left,0,1,0.7272020341188181,W17L05,2022-12-01_12h24.00.790,t1_Paradigm,2021.1.4,60.2453736270178,
X,right,Target,0,13,13,13,319.09369540348416,321.093608145311,right,1,1,0.7795097886410076,W17L05,2022-12-01_12h24.00.790,t1_Paradigm,2021.1.4,60.2453736270178,
R,left,Distractor,0,14,14,14,322.59351382945897,324.59372138846084,left,1,1,0.831138084147824,W17L05,2022-12-01_12h24.00.790,t1_Paradigm,2021.1.4,60.2453736270178,
T,left,Distractor,0,15,15,15,326.0939421003568,328.0935022805934,left,1,1,0.7872035868349485,W17L05,2022-12-01_12h24.00.790,t1_Paradigm,2021.1.4,60.2453736270178,
V,left,Pretarget,0,16,16,16,329.59362065658206,331.5946145016933,left,1,1,0.5982485485146753,W17L05,2022-12-01_12h24.00.790,t1_Paradigm,2021.1.4,60.2453736270178,
V,right,Target,0,17,17,17,333.09390456651454,335.09411693754373,right,1,1,0.6346127564902417,W17L05,2022-12-01_12h24.00.790,t1_Paradigm,2021.1.4,60.2453736270178,
N,left,Distractor,0,18,18,18,336.59361456133774,338.59404090742464,left,1,1,0.5109059902315494,W17L05,2022-12-01_12h24.00.790,t1_Paradigm,2021.1.4,60.2453736270178,
B,left,Distractor,0,19,19,19,340.09354013524717,342.09302396458224,left,1,1,1.0117942913784645,W17L05,2022-12-01_12h24.00.790,t1_Paradigm,2021.1.4,60.2453736270178,
V,left,Lure,0,20,20,20,343.59381089228555,345.5935009973764,left,1,1,0.6795026026666164,W17L05,2022-12-01_12h24.00.790,t1_Paradigm,2021.1.4,60.2453736270178,
P,left,Distractor,0,21,21,21,347.09373486216646,349.09400433598785,left,1,1,0.5067740583908744,W17L05,2022-12-01_12h24.00.790,t1_Paradigm,2021.1.4,60.2453736270178,
K,left,Pretarget,0,22,22,22,350.5936665312911,352.59341406001477,left,1,1,0.5754642167594284,W17L05,2022-12-01_12h24.00.790,t1_Paradigm,2021.1.4,60.2453736270178,
K,right,Target,0,23,23,23,354.0933880750381,356.09381987474626,right,1,1,0.8348244217922911,W17L05,2022-12-01_12h24.00.790,t1_Paradigm,2021.1.4,60.2453736270178,
J,left,Pretarget,0,24,24,24,357.5936912330799,359.5950809480273,left,1,1,0.5821048214565963,W17L05,2022-12-01_12h24.00.790,t1_Paradigm,2021.1.4,60.2453736270178,
J,right,Target,0,25,25,25,361.09365402002004,363.093640225532,right,1,1,0.6030589769361541,W17L05,2022-12-01_12h24.00.790,t1_Paradigm,2021.1.4,60.2453736270178,
H,left,Distractor,0,26,26,26,364.59366460648016,366.59459814077127,left,1,1,0.47858805986470543,W17L05,2022-12-01_12h24.00.790,t1_Paradigm,2021.1.4,60.2453736270178,
J,left,Lure,0,27,27,27,368.093672305753,370.09384874693933,left,1,1,0.6749677433690522,W17L05,2022-12-01_12h24.00.790,t1_Paradigm,2021.1.4,60.2453736270178,
V,left,Distractor,0,28,28,28,371.594012356014,373.5954662314034,left,1,1,0.5814372321474366,W17L05,2022-12-01_12h24.00.790,t1_Paradigm,2021.1.4,60.2453736270178,
Z,left,Pretarget,0,29,29,29,375.0940296793415,377.0945894791221,left,1,1,0.5701190111867618,W17L05,2022-12-01_12h24.00.790,t1_Paradigm,2021.1.4,60.2453736270178,
Z,right,Target,0,30,30,30,378.5938003057963,380.5937095187837,right,1,1,0.5270683238049969,W17L05,2022-12-01_12h24.00.790,t1_Paradigm,2021.1.4,60.2453736270178,
T,left,Distractor,0,31,31,31,382.0938792231318,384.0939263810578,left,1,1,0.8988966330653057,W17L05,2022-12-01_12h24.00.790,t1_Paradigm,2021.1.4,60.2453736270178,
Z,left,Lure,0,32,32,32,385.59350613021525,387.59335374919465,left,1,1,0.6315968954004347,W17L05,2022-12-01_12h24.00.790,t1_Paradigm,2021.1.4,60.2453736270178,
F,left,Distractor,0,33,33,33,389.09405951394,391.09349009010475,left,1,1,0.5872286735684611,W17L05,2022-12-01_12h24.00.790,t1_Paradigm,2021.1.4,60.2453736270178,
Y,left,Pretarget,0,34,34,34,392.59380511782365,394.5940854989167,left,1,1,0.5746962164121214,W17L05,2022-12-01_12h24.00.790,t1_Paradigm,2021.1.4,60.2453736270178,
Y,right,Target,0,35,35,35,396.09366139845224,398.0937563558982,right,1,1,0.7067717486061156,W17L05,2022-12-01_12h24.00.790,t1_Paradigm,2021.1.4,60.2453736270178,
Y,right,Target,0,36,36,36,399.593935042707,401.59407042121165,right,1,1,0.5830576038861182,W17L05,2022-12-01_12h24.00.790,t1_Paradigm,2021.1.4,60.2453736270178,
W,left,Distractor,0,37,37,37,403.09408485732274,405.10653198108776,left,1,1,0.6703963125764858,W17L05,2022-12-01_12h24.00.790,t1_Paradigm,2021.1.4,60.2453736270178,
Q,left,Distractor,0,38,38,38,406.59377015038626,408.59383912285557,left,1,1,0.5909663395141251,W17L05,2022-12-01_12h24.00.790,t1_Paradigm,2021.1.4,60.2453736270178,
P,left,Pretarget,0,39,39,39,410.09357798990095,412.0947976797179,left,1,1,0.9620491045643575,W17L05,2022-12-01_12h24.00.790,t1_Paradigm,2021.1.4,60.2453736270178,
P,right,Target,0,40,40,40,413.59367647615727,415.5937592431146,right,1,1,0.663100309058791,W17L05,2022-12-01_12h24.00.790,t1_Paradigm,2021.1.4,60.2453736270178,
J,left,Distractor,0,41,41,41,417.0937704711978,419.0934939397266,left,1,1,0.5552488686807919,W17L05,2022-12-01_12h24.00.790,t1_Paradigm,2021.1.4,60.2453736270178,
P,left,Lure,0,42,42,42,420.59349907256546,422.594918301329,left,1,1,0.5259256265126169,W17L05,2022-12-01_12h24.00.790,t1_Paradigm,2021.1.4,60.2453736270178,
L,left,Distractor,0,43,43,43,424.0937794536585,426.09352698235307,left,1,1,0.5951553741178941,W17L05,2022-12-01_12h24.00.790,t1_Paradigm,2021.1.4,60.2453736270178,
Z,left,Distractor,0,44,44,44,427.5935712530627,429.5938882055925,left,1,1,0.9989843403745908,W17L05,2022-12-01_12h24.00.790,t1_Paradigm,2021.1.4,60.2453736270178,
F,left,Pretarget,0,45,45,45,431.0937762456306,433.0951759054733,left,1,1,0.8577136558305938,W17L05,2022-12-01_12h24.00.790,t1_Paradigm,2021.1.4,60.2453736270178,
F,right,Target,0,46,46,46,434.593748977466,436.5937823408749,right,1,1,0.607111670600716,W17L05,2022-12-01_12h24.00.790,t1_Paradigm,2021.1.4,60.2453736270178,
G,left,Pretarget,0,47,47,47,438.0937428822217,440.0935863307677,left,1,1,0.5153651402215473,W17L05,2022-12-01_12h24.00.790,t1_Paradigm,2021.1.4,60.2453736270178,
G,right,Target,0,48,48,48,441.59374512781505,443.59369379948475,left,0,1,0.3911537521344144,W17L05,2022-12-01_12h24.00.790,t1_Paradigm,2021.1.4,60.2453736270178,
V,left,Distractor,0,49,49,49,445.0937823408749,447.0941278448154,left,1,1,0.6987696595606394,W17L05,2022-12-01_12h24.00.790,t1_Paradigm,2021.1.4,60.2453736270178,
G,left,Lure,0,50,50,50,448.59360172925517,450.5948227022891,left,1,1,0.6061890435812529,W17L05,2022-12-01_12h24.00.790,t1_Paradigm,2021.1.4,60.2453736270178,
Q,left,Pretarget,0,51,51,51,452.0937752832251,454.0949051484349,left,1,1,0.5619853932294063,W17L05,2022-12-01_12h24.00.790,t1_Paradigm,2021.1.4,60.2453736270178,
Q,right,Target,0,52,52,52,455.59381698750076,457.59385805018246,right,1,1,0.7109931842132937,W17L05,2022-12-01_12h24.00.790,t1_Paradigm,2021.1.4,60.2453736270178,
Y,left,Distractor,0,53,53,53,459.0935978796333,461.0945500204398,left,1,1,0.5062819478625897,W17L05,2022-12-01_12h24.00.790,t1_Paradigm,2021.1.4,60.2453736270178,
V,left,Distractor,0,54,54,54,462.593560987385,464.5935715738742,left,1,1,0.5912646855285857,W17L05,2022-12-01_12h24.00.790,t1_Paradigm,2021.1.4,60.2453736270178,
B,left,Distractor,0,55,55,55,466.0935888971726,468.0943203261122,left,1,1,0.5466026088979561,W17L05,2022-12-01_12h24.00.790,t1_Paradigm,2021.1.4,60.2453736270178,
J,left,Pretarget,0,56,56,56,469.5934936189442,471.5957559157687,left,1,1,0.5649300362565555,W17L05,2022-12-01_12h24.00.790,t1_Paradigm,2021.1.4,60.2453736270178,
J,right,Target,0,57,57,57,473.09368802505196,475.09385323815513,right,1,1,0.7472290713631082,W17L05,2022-12-01_12h24.00.790,t1_Paradigm,2021.1.4,60.2453736270178,
H,left,Distractor,0,58,58,58,476.59376694238745,478.5945724766061,left,1,1,0.6062939458934125,W17L05,2022-12-01_12h24.00.790,t1_Paradigm,2021.1.4,60.2453736270178,
J,left,Lure,0,59,59,59,480.0936229022045,482.0939745013602,left,1,1,0.9787503857805859,W17L05,2022-12-01_12h24.00.790,t1_Paradigm,2021.1.4,60.2453736270178,
D,left,Pretarget,0,60,60,60,483.59412303275894,485.59472999046557,left,1,1,0.5179973219346721,W17L05,2022-12-01_12h24.00.790,t1_Paradigm,2021.1.4,60.2453736270178,
D,right,Target,0,61,61,61,487.0936636440747,489.09402647131355,right,1,1,0.49088504826067947,W17L05,2022-12-01_12h24.00.790,t1_Paradigm,2021.1.4,60.2453736270178,
R,left,Distractor,0,62,62,62,490.5936431127484,492.59386831586016,left,1,1,0.5590805296669714,W17L05,2022-12-01_12h24.00.790,t1_Paradigm,2021.1.4,60.2453736270178,
F,left,Distractor,0,63,63,63,494.0938731278875,496.09398380463244,left,1,1,0.515008087415481,W17L05,2022-12-01_12h24.00.790,t1_Paradigm,2021.1.4,60.2453736270178,
F,left,Distractor,0,0,0,0,636.0762501820573,638.0772940722818,None,0,2,,W17L05,2022-12-01_12h24.00.790,t1_Paradigm,2021.1.4,60.2453736270178,
N,left,Pretarget,0,1,1,1,639.5773364181805,641.5770736811974,None,0,2,,W17L05,2022-12-01_12h24.00.790,t1_Paradigm,2021.1.4,60.2453736270178,
V,left,Distractor,0,2,2,2,643.0772106637305,645.0776293105446,left,1,2,1.1314207750256173,W17L05,2022-12-01_12h24.00.790,t1_Paradigm,2021.1.4,60.2453736270178,
N,right,Target,0,3,3,3,646.577116027096,648.5777027742588,right,1,2,1.1031882601964753,W17L05,2022-12-01_12h24.00.790,t1_Paradigm,2021.1.4,60.2453736270178,
N,left,Lure,0,4,4,4,650.0771866035648,652.0771721674828,left,1,2,1.1557337290723808,W17L05,2022-12-01_12h24.00.790,t1_Paradigm,2021.1.4,60.2453736270178,
X,left,Distractor,0,5,5,5,653.5770149744058,655.5899946297868,left,1,2,1.1949431314133108,W17L05,2022-12-01_12h24.00.790,t1_Paradigm,2021.1.4,60.2453736270178,
G,left,Pretarget,0,6,6,6,657.0770037463517,659.0770050295396,left,1,2,1.1800402670924086,W17L05,2022-12-01_12h24.00.790,t1_Paradigm,2021.1.4,60.2453736270178,
H,left,Pretarget,0,7,7,7,660.5771878867818,662.5770624531433,left,1,2,1.023943069158122,W17L05,2022-12-01_12h24.00.790,t1_Paradigm,2021.1.4,60.2453736270178,
G,right,Target,0,8,8,8,664.0771365584224,666.0773454006412,right,1,2,0.6275952092837542,W17L05,2022-12-01_12h24.00.790,t1_Paradigm,2021.1.4,60.2453736270178,
H,right,Target,0,9,9,9,667.5771872451878,669.577307866799,left,0,2,1.1596452698286157,W17L05,2022-12-01_12h24.00.790,t1_Paradigm,2021.1.4,60.2453736270178,
T,left,Pretarget,0,10,10,10,671.0770156160288,673.077414052299,None,0,2,,W17L05,2022-12-01_12h24.00.790,t1_Paradigm,2021.1.4,60.2453736270178,
K,left,Distractor,0,11,11,11,674.5770547538705,676.5770926085243,left,1,2,1.343948997586267,W17L05,2022-12-01_12h24.00.790,t1_Paradigm,2021.1.4,60.2453736270178,
T,right,Target,0,12,12,12,678.0772440271685,680.0781230250723,right,1,2,0.8026370579027571,W17L05,2022-12-01_12h24.00.790,t1_Paradigm,2021.1.4,60.2453736270178,
T,left,Lure,0,13,13,13,681.577071435604,683.5772183629742,left,1,2,1.1277889737684745,W17L05,2022-12-01_12h24.00.790,t1_Paradigm,2021.1.4,60.2453736270178,
J,left,Distractor,0,14,14,14,685.0771307839896,687.0770239568665,None,0,2,,W17L05,2022-12-01_12h24.00.790,t1_Paradigm,2021.1.4,60.2453736270178,
Q,left,Pretarget,0,15,15,15,688.5774785335234,690.5787203586951,None,0,2,,W17L05,2022-12-01_12h24.00.790,t1_Paradigm,2021.1.4,60.2453736270178,
M,left,Distractor,0,16,16,16,692.0771529193444,694.0788194865745,right,0,2,1.1541338887182064,W17L05,2022-12-01_12h24.00.790,t1_Paradigm,2021.1.4,60.2453736270178,
Q,right,Target,0,17,17,17,695.5773912753502,697.578302995098,None,0,2,,W17L05,2022-12-01_12h24.00.790,t1_Paradigm,2021.1.4,60.2453736270178,
R,left,Distractor,0,18,18,18,699.0772568592511,701.0779026339878,left,1,2,0.8910398673615418,W17L05,2022-12-01_12h24.00.790,t1_Paradigm,2021.1.4,60.2453736270178,
W,left,Distractor,0,19,19,19,702.5773652903736,704.5773482878576,right,0,2,1.263766101852525,W17L05,2022-12-01_12h24.00.790,t1_Paradigm,2021.1.4,60.2453736270178,
C,left,Pretarget,0,20,20,20,706.0769023728499,708.0776434258441,None,0,2,,W17L05,2022-12-01_12h24.00.790,t1_Paradigm,2021.1.4,60.2453736270178,
T,left,Distractor,0,21,21,21,709.5772000772704,711.5770047087572,left,1,2,1.0000821253634058,W17L05,2022-12-01_12h24.00.790,t1_Paradigm,2021.1.4,60.2453736270178,
C,right,Target,0,22,22,22,713.0770666235767,715.0777935612423,None,0,2,,W17L05,2022-12-01_12h24.00.790,t1_Paradigm,2021.1.4,60.2453736270178,
F,left,Pretarget,0,23,23,23,716.5772145133524,718.5768779919017,left,1,2,1.2641731998010073,W17L05,2022-12-01_12h24.00.790,t1_Paradigm,2021.1.4,60.2453736270178,
C,right,Target,0,24,24,24,720.0770772100368,722.0785586744023,right,1,2,0.8343104967207182,W17L05,2022-12-01_12h24.00.790,t1_Paradigm,2021.1.4,60.2453736270178,
F,right,Target,0,25,25,25,723.5769373402873,725.5776870549307,right,1,2,0.743317209824454,W17L05,2022-12-01_12h24.00.790,t1_Paradigm,2021.1.4,60.2453736270178,
H,left,Distractor,0,26,26,26,727.0772068141086,729.0778869146889,None,0,2,,W17L05,2022-12-01_12h24.00.790,t1_Paradigm,2021.1.4,60.2453736270178,
H,left,Lure,0,27,27,27,730.577227345435,732.5775696413475,None,0,2,,W17L05,2022-12-01_12h24.00.790,t1_Paradigm,2021.1.4,60.2453736270178,
P,left,Distractor,0,28,28,28,734.0771567689662,736.0781297619105,left,1,2,1.042807198537048,W17L05,2022-12-01_12h24.00.790,t1_Paradigm,2021.1.4,60.2453736270178,
G,left,Pretarget,0,29,29,29,737.5770419217879,739.578006894706,None,0,2,,W17L05,2022-12-01_12h24.00.790,t1_Paradigm,2021.1.4,60.2453736270178,
K,left,Distractor,0,30,30,30,741.0771570897778,743.0771561273723,left,1,2,1.259851353126578,W17L05,2022-12-01_12h24.00.790,t1_Paradigm,2021.1.4,60.2453736270178,
G,right,Target,0,31,31,31,744.5770675859821,746.577475004713,left,0,2,1.1358058197365608,W17L05,2022-12-01_12h24.00.790,t1_Paradigm,2021.1.4,60.2453736270178,
M,left,Pretarget,0,32,32,32,748.0769617212645,750.0774640974414,left,1,2,1.2193122258177027,W17L05,2022-12-01_12h24.00.790,t1_Paradigm,2021.1.4,60.2453736270178,
B,left,Distractor,0,33,33,33,751.5770698315755,753.5790462936857,left,1,2,1.2219466531823855,W17L05,2022-12-01_12h24.00.790,t1_Paradigm,2021.1.4,60.2453736270178,
M,right,Target,0,34,34,34,755.0940409074246,757.0774974608503,right,1,2,0.6034105760918465,W17L05,2022-12-01_12h24.00.790,t1_Paradigm,2021.1.4,60.2453736270178,
M,left,Lure,0,35,35,35,758.5772013604583,760.5769251497986,left,1,2,1.0080457181611564,W17L05,2022-12-01_12h24.00.790,t1_Paradigm,2021.1.4,60.2453736270178,
T,left,Distractor,0,36,36,36,762.0769816109969,764.0772080973256,left,1,2,0.9798776845564134,W17L05,2022-12-01_12h24.00.790,t1_Paradigm,2021.1.4,60.2453736270178,
F,left,Distractor,0,37,37,37,765.5773816512956,767.5778865938773,left,1,2,1.3670204473019112,W17L05,2022-12-01_12h24.00.790,t1_Paradigm,2021.1.4,60.2453736270178,
X,left,Distractor,0,38,38,38,769.0776200073014,771.0779558871582,left,1,2,1.0990162281086668,W17L05,2022-12-01_12h24.00.790,t1_Paradigm,2021.1.4,60.2453736270178,
C,left,Distractor,0,39,39,39,772.5768106234318,774.5774438868975,left,1,2,0.6714703581819776,W17L05,2022-12-01_12h24.00.790,t1_Paradigm,2021.1.4,60.2453736270178,
R,left,Distractor,0,40,40,40,776.0771702426719,778.0779748144851,right,0,2,1.170964453194756,W17L05,2022-12-01_12h24.00.790,t1_Paradigm,2021.1.4,60.2453736270178,
B,left,Pretarget,0,41,41,41,779.5772549344401,781.576868367818,None,0,2,,W17L05,2022-12-01_12h24.00.790,t1_Paradigm,2021.1.4,60.2453736270178,
H,left,Distractor,0,42,42,42,783.0772039268923,785.0780056114891,None,0,2,,W17L05,2022-12-01_12h24.00.790,t1_Paradigm,2021.1.4,60.2453736270178,
B,right,Target,0,43,43,43,786.5771012702025,788.579457241256,left,0,2,1.1494543476146646,W17L05,2022-12-01_12h24.00.790,t1_Paradigm,2021.1.4,60.2453736270178,
W,left,Pretarget,0,44,44,44,790.0773232652864,792.0900770759326,left,1,2,1.4150310568511486,W17L05,2022-12-01_12h24.00.790,t1_Paradigm,2021.1.4,60.2453736270178,
L,left,Pretarget,0,45,45,45,793.577149390534,795.5770428841934,left,1,2,0.7760226691607386,W17L05,2022-12-01_12h24.00.790,t1_Paradigm,2021.1.4,60.2453736270178,
W,right,Target,0,46,46,46,797.0774788543349,799.0774987440673,right,1,2,0.5713884253345896,W17L05,2022-12-01_12h24.00.790,t1_Paradigm,2021.1.4,60.2453736270178,
L,right,Target,0,47,47,47,800.5769832149963,802.5785172909382,right,1,2,1.2785890864324756,W17L05,2022-12-01_12h24.00.790,t1_Paradigm,2021.1.4,60.2453736270178,
W,right,Target,0,48,48,48,804.0770432050049,806.0780155563552,None,0,2,,W17L05,2022-12-01_12h24.00.790,t1_Paradigm,2021.1.4,60.2453736270178,
X,left,Distractor,0,49,49,49,807.5771253303683,809.5781137218,left,1,2,0.8708649403706659,W17L05,2022-12-01_12h24.00.790,t1_Paradigm,2021.1.4,60.2453736270178,
R,left,Distractor,0,50,50,50,811.0775141425838,813.0785615616187,left,1,2,1.1786604969820473,W17L05,2022-12-01_12h24.00.790,t1_Paradigm,2021.1.4,60.2453736270178,
V,left,Pretarget,0,51,51,51,814.5769617212645,816.5771468241,left,1,2,0.7677212716953363,W17L05,2022-12-01_12h24.00.790,t1_Paradigm,2021.1.4,60.2453736270178,
Z,left,Distractor,0,52,52,52,818.0771564481547,820.0769485683704,left,1,2,0.6118890563375317,W17L05,2022-12-01_12h24.00.790,t1_Paradigm,2021.1.4,60.2453736270178,
V,right,Target,0,53,53,53,821.5772148341639,823.5770464130328,None,0,2,,W17L05,2022-12-01_12h24.00.790,t1_Paradigm,2021.1.4,60.2453736270178,
V,left,Lure,0,54,54,54,825.077180829132,827.0769793653744,None,0,2,,W17L05,2022-12-01_12h24.00.790,t1_Paradigm,2021.1.4,60.2453736270178,
N,left,Distractor,0,55,55,55,828.5771805083205,830.5780348044937,left,1,2,1.3270327789359726,W17L05,2022-12-01_12h24.00.790,t1_Paradigm,2021.1.4,60.2453736270178,
B,left,Distractor,0,56,56,56,832.0770874757145,834.0770390345715,None,0,2,,W17L05,2022-12-01_12h24.00.790,t1_Paradigm,2021.1.4,60.2453736270178,
V,left,Lure,0,57,57,57,835.5771359168284,837.5797610408918,None,0,2,,W17L05,2022-12-01_12h24.00.790,t1_Paradigm,2021.1.4,60.2453736270178,
J,left,Distractor,0,58,58,58,839.0771388040448,841.0772992051207,left,1,2,1.3077118272776715,W17L05,2022-12-01_12h24.00.790,t1_Paradigm,2021.1.4,60.2453736270178,
H,left,Distractor,0,59,59,59,842.5771038366074,844.5773585535353,None,0,2,,W17L05,2022-12-01_12h24.00.790,t1_Paradigm,2021.1.4,60.2453736270178,
X,left,Pretarget,0,60,60,60,846.0771256511507,848.0775343530986,left,1,2,1.411304618959548,W17L05,2022-12-01_12h24.00.790,t1_Paradigm,2021.1.4,60.2453736270178,
P,left,Distractor,0,61,61,61,849.5769861022127,851.5770826636581,left,1,2,1.2717906470643356,W17L05,2022-12-01_12h24.00.790,t1_Paradigm,2021.1.4,60.2453736270178,
X,right,Target,0,62,62,62,853.077165109833,855.0786741631746,right,1,2,0.7785210763977375,W17L05,2022-12-01_12h24.00.790,t1_Paradigm,2021.1.4,60.2453736270178,
Q,left,Distractor,0,63,63,63,856.5769103929051,858.5770306937338,left,1,2,0.6400015911785886,W17L05,2022-12-01_12h24.00.790,t1_Paradigm,2021.1.4,60.2453736270178,
B,left,Pretarget,0,0,0,0,880.492669670668,882.4958000581537,None,0,2,,W17L05,2022-12-01_12h24.00.790,t1_Paradigm,2021.1.4,60.2453736270178,
F,left,Distractor,0,1,1,1,883.9938617715088,885.9944135512051,None,0,2,,W17L05,2022-12-01_12h24.00.790,t1_Paradigm,2021.1.4,60.2453736270178,
B,right,Target,0,2,2,2,887.4936128290137,889.4942037466099,right,1,2,0.634683332988061,W17L05,2022-12-01_12h24.00.790,t1_Paradigm,2021.1.4,60.2453736270178,
V,left,Distractor,0,3,3,3,890.9936490796681,892.9949778422015,left,1,2,1.1340022700023837,W17L05,2022-12-01_12h24.00.790,t1_Paradigm,2021.1.4,60.2453736270178,
G,left,Pretarget,0,4,4,4,894.4939275359502,896.4956518475374,left,1,2,1.2974243436183315,W17L05,2022-12-01_12h24.00.790,t1_Paradigm,2021.1.4,60.2453736270178,
B,left,Lure,0,5,5,5,897.9938531098305,899.9957529002277,left,1,2,0.9973803295870312,W17L05,2022-12-01_12h24.00.790,t1_Paradigm,2021.1.4,60.2453736270178,
G,right,Target,0,6,6,6,901.493917591084,903.4941302828956,left,0,2,1.2430085981322918,W17L05,2022-12-01_12h24.00.790,t1_Paradigm,2021.1.4,60.2453736270178,
Y,left,Pretarget,0,7,7,7,904.9938800572127,906.9942993456498,left,1,2,0.894951728900196,W17L05,2022-12-01_12h24.00.790,t1_Paradigm,2021.1.4,60.2453736270178,
P,left,Distractor,0,8,8,8,908.4938537514536,910.4948389348865,left,1,2,0.674305928463582,W17L05,2022-12-01_12h24.00.790,t1_Paradigm,2021.1.4,60.2453736270178,
Y,right,Target,0,9,9,9,911.9942855511326,913.9957512961992,left,0,2,0.8531887413701043,W17L05,2022-12-01_12h24.00.790,t1_Paradigm,2021.1.4,60.2453736270178,
X,left,Distractor,0,10,10,10,915.493822633638,917.4942582829681,left,1,2,1.434730234235758,W17L05,2022-12-01_12h24.00.790,t1_Paradigm,2021.1.4,60.2453736270178,
Y,right,Target,0,11,11,11,918.994041420694,920.9950747244584,right,1,2,0.6060578355100006,W17L05,2022-12-01_12h24.00.790,t1_Paradigm,2021.1.4,60.2453736270178,
N,left,Distractor,0,12,12,12,922.4939647489809,924.4953769200947,left,1,2,1.2656427944893949,W17L05,2022-12-01_12h24.00.790,t1_Paradigm,2021.1.4,60.2453736270178,
Y,right,Target,0,13,13,13,925.9942521877238,927.9941668543615,right,1,2,0.6151682960335165,W17L05,2022-12-01_12h24.00.790,t1_Paradigm,2021.1.4,60.2453736270178,
Y,left,Lure,0,14,14,14,929.4937004079984,931.4938373905316,left,1,2,1.1153809878451284,W17L05,2022-12-01_12h24.00.790,t1_Paradigm,2021.1.4,60.2453736270178,
K,left,Distractor,0,15,15,15,932.9939679570089,934.993915666244,left,1,2,0.9431249851768371,W17L05,2022-12-01_12h24.00.790,t1_Paradigm,2021.1.4,60.2453736270178,
T,left,Pretarget,0,16,16,16,936.4937825333618,938.4957930005039,left,1,2,1.4252463600132614,W17L05,2022-12-01_12h24.00.790,t1_Paradigm,2021.1.4,60.2453736270178,
J,left,Distractor,0,17,17,17,939.9938213504211,941.9947240877082,left,1,2,1.0304611274332274,W17L05,2022-12-01_12h24.00.790,t1_Paradigm,2021.1.4,60.2453736270178,
T,right,Target,0,18,18,18,943.4938457313983,945.4957968501258,left,0,2,1.385284355841577,W17L05,2022-12-01_12h24.00.790,t1_Paradigm,2021.1.4,60.2453736270178,
S,left,Pretarget,0,19,19,19,946.9940314758278,948.9945075462456,left,1,2,0.9905334490758833,W17L05,2022-12-01_12h24.00.790,t1_Paradigm,2021.1.4,60.2453736270178,
R,left,Distractor,0,20,20,20,950.4940398166946,952.4937263929751,left,1,2,1.1392881271895021,W17L05,2022-12-01_12h24.00.790,t1_Paradigm,2021.1.4,60.2453736270178,
S,right,Target,0,21,21,21,953.9942999872437,955.9940260222065,left,0,2,0.9189211038465146,W17L05,2022-12-01_12h24.00.790,t1_Paradigm,2021.1.4,60.2453736270178,
Q,left,Distractor,0,22,22,22,957.493713240081,959.4945652906317,left,1,2,0.7625868331233505,W17L05,2022-12-01_12h24.00.790,t1_Paradigm,2021.1.4,60.2453736270178,
D,left,Distractor,0,23,23,23,960.9935557262215,962.9952611105109,left,1,2,0.44588869577273726,W17L05,2022-12-01_12h24.00.790,t1_Paradigm,2021.1.4,60.2453736270178,
F,left,Distractor,0,24,24,24,964.4939538417093,966.4937469243305,left,1,2,0.563489313761238,W17L05,2022-12-01_12h24.00.790,t1_Paradigm,2021.1.4,60.2453736270178,
Z,left,Distractor,0,25,25,25,967.9939881675527,969.9942313355859,left,1,2,0.8547545767214615,W17L05,2022-12-01_12h24.00.790,t1_Paradigm,2021.1.4,60.2453736270178,
P,left,Distractor,0,26,26,26,971.4935910144704,973.4955584941199,left,1,2,0.9374291428248398,W17L05,2022-12-01_12h24.00.790,t1_Paradigm,2021.1.4,60.2453736270178,
H,left,Distractor,0,27,27,27,974.9938736411859,976.9948299524258,left,1,2,0.9742498522682581,W17L05,2022-12-01_12h24.00.790,t1_Paradigm,2021.1.4,60.2453736270178,
Z,left,Pretarget,0,28,28,28,978.4936968791881,980.4937956862559,left,1,2,1.251211830182001,W17L05,2022-12-01_12h24.00.790,t1_Paradigm,2021.1.4,60.2453736270178,
J,left,Pretarget,0,29,29,29,981.9941418317903,983.9947151052475,left,1,2,0.9182310583710205,W17L05,2022-12-01_12h24.00.790,t1_Paradigm,2021.1.4,60.2453736270178,
Z,right,Target,0,30,30,30,985.4939124582452,987.4945922380139,right,1,2,1.0183296729810536,W17L05,2022-12-01_12h24.00.790,t1_Paradigm,2021.1.4,60.2453736270178,
J,right,Target,0,31,31,31,988.9942380724242,990.9937382626522,None,0,2,,W17L05,2022-12-01_12h24.00.790,t1_Paradigm,2021.1.4,60.2453736270178,
V,left,Pretarget,0,32,32,32,992.4939297815436,994.4943009496492,left,1,2,1.282884306536289,W17L05,2022-12-01_12h24.00.790,t1_Paradigm,2021.1.4,60.2453736270178,
Z,left,Lure,0,33,33,33,995.9939702026313,997.9952909451094,left,1,2,1.269735588459298,W17L05,2022-12-01_12h24.00.790,t1_Paradigm,2021.1.4,60.2453736270178,
V,right,Target,0,34,34,34,999.4940619520494,1001.4938235960435,right,1,2,0.5073306501435582,W17L05,2022-12-01_12h24.00.790,t1_Paradigm,2021.1.4,60.2453736270178,
X,left,Distractor,0,35,35,35,1002.9941889896872,1004.9951100127073,left,1,2,0.701917370344745,W17L05,2022-12-01_12h24.00.790,t1_Paradigm,2021.1.4,60.2453736270178,
S,left,Distractor,0,36,36,36,1006.4940398166946,1008.4941107139748,left,1,2,0.8349113591539208,W17L05,2022-12-01_12h24.00.790,t1_Paradigm,2021.1.4,60.2453736270178,
Q,left,Distractor,0,37,37,37,1009.9942951752164,1011.9948796767567,left,1,2,1.4303512847982347,W17L05,2022-12-01_12h24.00.790,t1_Paradigm,2021.1.4,60.2453736270178,
P,left,Distractor,0,38,38,38,1013.4943952654721,1015.4940892202139,None,0,2,,W17L05,2022-12-01_12h24.00.790,t1_Paradigm,2021.1.4,60.2453736270178,
S,left,Lure,0,39,39,39,1016.9939105334342,1018.9948135915038,left,1,2,0.7021679168392438,W17L05,2022-12-01_12h24.00.790,t1_Paradigm,2021.1.4,60.2453736270178,
K,left,Pretarget,0,40,40,40,1020.493993621174,1022.4938601674803,left,1,2,0.5633330830896739,W17L05,2022-12-01_12h24.00.790,t1_Paradigm,2021.1.4,60.2453736270178,
L,left,Distractor,0,41,41,41,1023.9937504531408,1025.9948485589412,left,1,2,0.9181434794154484,W17L05,2022-12-01_12h24.00.790,t1_Paradigm,2021.1.4,60.2453736270178,
K,right,Target,0,42,42,42,1027.4939002677565,1029.4958270055358,right,1,2,0.9852556119731162,W17L05,2022-12-01_12h24.00.790,t1_Paradigm,2021.1.4,60.2453736270178,
B,left,Distractor,0,43,43,43,1030.9942659822118,1032.9948633158347,left,1,2,1.0542303218389861,W17L05,2022-12-01_12h24.00.790,t1_Paradigm,2021.1.4,60.2453736270178,
N,left,Distractor,0,44,44,44,1034.4942255611531,1036.5069873918546,left,1,2,1.2540076209697872,W17L05,2022-12-01_12h24.00.790,t1_Paradigm,2021.1.4,60.2453736270178,
S,left,Pretarget,0,45,45,45,1037.993871716375,1039.994773170416,left,1,2,1.0143947136821225,W17L05,2022-12-01_12h24.00.790,t1_Paradigm,2021.1.4,60.2453736270178,
Z,left,Distractor,0,46,46,46,1041.4936795558606,1043.4939974707959,left,1,2,1.0670941676362418,W17L05,2022-12-01_12h24.00.790,t1_Paradigm,2021.1.4,60.2453736270178,
S,right,Target,0,47,47,47,1044.9940600272384,1046.9957618826884,None,0,2,,W17L05,2022-12-01_12h24.00.790,t1_Paradigm,2021.1.4,60.2453736270178,
C,left,Distractor,0,48,48,48,1048.4938482978032,1050.493697520782,left,1,2,0.9953714664443396,W17L05,2022-12-01_12h24.00.790,t1_Paradigm,2021.1.4,60.2453736270178,
T,left,Pretarget,0,49,49,49,1051.9941642879276,1053.9941463230061,left,1,2,1.2868863134935964,W17L05,2022-12-01_12h24.00.790,t1_Paradigm,2021.1.4,60.2453736270178,
S,left,Lure,0,50,50,50,1055.4942704734567,1057.4944369697769,left,1,2,0.6987606770999264,W17L05,2022-12-01_12h24.00.790,t1_Paradigm,2021.1.4,60.2453736270178,
T,right,Target,0,51,51,51,1058.9939438968431,1060.9942579621566,right,1,2,0.7507309477368835,W17L05,2022-12-01_12h24.00.790,t1_Paradigm,2021.1.4,60.2453736270178,
N,left,Pretarget,0,52,52,52,1062.493919515895,1064.4938640171022,left,1,2,0.947344175161561,W17L05,2022-12-01_12h24.00.790,t1_Paradigm,2021.1.4,60.2453736270178,
B,left,Distractor,0,53,53,53,1065.9938588842633,1067.9941443981952,left,1,2,0.9668534376833122,W17L05,2022-12-01_12h24.00.790,t1_Paradigm,2021.1.4,60.2453736270178,
N,right,Target,0,54,54,54,1069.4940661224828,1071.494477711647,left,0,2,0.6668347669765353,W17L05,2022-12-01_12h24.00.790,t1_Paradigm,2021.1.4,60.2453736270178,
N,left,Lure,0,55,55,55,1072.9942152954754,1074.9939089294057,None,0,2,,W17L05,2022-12-01_12h24.00.790,t1_Paradigm,2021.1.4,60.2453736270178,
X,left,Distractor,0,56,56,56,1076.4941434357897,1078.4941893104988,left,1,2,0.6909356708347332,W17L05,2022-12-01_12h24.00.790,t1_Paradigm,2021.1.4,60.2453736270178,
W,left,Distractor,0,57,57,57,1079.9939836763078,1081.9940035660402,left,1,2,0.8549833086726721,W17L05,2022-12-01_12h24.00.790,t1_Paradigm,2021.1.4,60.2453736270178,
S,left,Distractor,0,58,58,58,1083.4942650198063,1085.494306082488,left,1,2,0.810864670900628,W17L05,2022-12-01_12h24.00.790,t1_Paradigm,2021.1.4,60.2453736270178,
L,left,Distractor,0,59,59,59,1086.9939734106592,1088.995417661965,left,1,2,0.5577363686461467,W17L05,2022-12-01_12h24.00.790,t1_Paradigm,2021.1.4,60.2453736270178,
K,left,Pretarget,0,60,60,60,1090.4937751549005,1092.4938576010754,left,1,2,0.5313933785073459,W17L05,2022-12-01_12h24.00.790,t1_Paradigm,2021.1.4,60.2453736270178,
V,left,Pretarget,0,61,61,61,1093.9943253306265,1095.9947340325743,left,1,2,0.486340244038729,W17L05,2022-12-01_12h24.00.790,t1_Paradigm,2021.1.4,60.2453736270178,
K,right,Target,0,62,62,62,1097.493900588568,1099.493651646073,right,1,2,0.6196386741357855,W17L05,2022-12-01_12h24.00.790,t1_Paradigm,2021.1.4,60.2453736270178,
V,right,Target,0,63,63,63,1100.99390443819,1102.9941838568484,left,0,2,0.7989917829690967,W17L05,2022-12-01_12h24.00.790,t1_Paradigm,2021.1.4,60.2453736270178,
R,left,Distractor,0,0,0,0,1223.1757549918548,1225.1775960754603,None,0,3,,W17L05,2022-12-01_12h24.00.790,t1_Paradigm,2021.1.4,60.2453736270178,
P,left,Lure,0,1,1,1,1226.6772528171423,1228.6783923064067,None,0,3,,W17L05,2022-12-01_12h24.00.790,t1_Paradigm,2021.1.4,60.2453736270178,
V,left,Distractor,0,2,2,2,1230.1772951630119,1232.178957238997,None,0,3,,W17L05,2022-12-01_12h24.00.790,t1_Paradigm,2021.1.4,60.2453736270178,
P,left,Pretarget,0,3,3,3,1233.6777507020743,1235.6771421403973,None,0,3,,W17L05,2022-12-01_12h24.00.790,t1_Paradigm,2021.1.4,60.2453736270178,
Z,left,Distractor,0,4,4,4,1237.1772306817875,1239.1791715348372,None,0,3,,W17L05,2022-12-01_12h24.00.790,t1_Paradigm,2021.1.4,60.2453736270178,
L,left,Pretarget,0,5,5,5,1240.6772964462289,1242.6772704612522,left,1,3,1.0517938294215128,W17L05,2022-12-01_12h24.00.790,t1_Paradigm,2021.1.4,60.2453736270178,
P,right,Target,0,6,6,6,1244.177242872276,1246.1774639049545,right,1,3,1.1998530084383674,W17L05,2022-12-01_12h24.00.790,t1_Paradigm,2021.1.4,60.2453736270178,
S,left,Distractor,0,7,7,7,1247.6773407169385,1249.6790708029876,left,1,3,0.9302422120526899,W17L05,2022-12-01_12h24.00.790,t1_Paradigm,2021.1.4,60.2453736270178,
L,right,Target,0,8,8,8,1251.1772948422295,1253.1770837543881,right,1,3,1.0642156098620035,W17L05,2022-12-01_12h24.00.790,t1_Paradigm,2021.1.4,60.2453736270178,
D,left,Distractor,0,9,9,9,1254.6770792631723,1256.6781603664567,left,1,3,1.0829575136012863,W17L05,2022-12-01_12h24.00.790,t1_Paradigm,2021.1.4,60.2453736270178,
G,left,Distractor,0,10,10,10,1258.177167483751,1260.177635854925,left,1,3,0.7995114824734628,W17L05,2022-12-01_12h24.00.790,t1_Paradigm,2021.1.4,60.2453736270178,
M,left,Pretarget,0,11,11,11,1261.6777292083425,1263.677726321126,left,1,3,1.0273968252295163,W17L05,2022-12-01_12h24.00.790,t1_Paradigm,2021.1.4,60.2453736270178,
Y,left,Distractor,0,12,12,12,1265.1770940200659,1267.177384987619,left,1,3,1.207850606268039,W17L05,2022-12-01_12h24.00.790,t1_Paradigm,2021.1.4,60.2453736270178,
V,left,Distractor,0,13,13,13,1268.677274310874,1270.6775020804198,left,1,3,1.1478285222547129,W17L05,2022-12-01_12h24.00.790,t1_Paradigm,2021.1.4,60.2453736270178,
M,right,Target,0,14,14,14,1272.177620135597,1274.177665368712,right,1,3,0.49554790763068013,W17L05,2022-12-01_12h24.00.790,t1_Paradigm,2021.1.4,60.2453736270178,
S,left,Pretarget,0,15,15,15,1275.6771305915026,1277.6772810477123,left,1,3,0.819855151406955,W17L05,2022-12-01_12h24.00.790,t1_Paradigm,2021.1.4,60.2453736270178,
Q,left,Distractor,0,16,16,16,1279.1773506618047,1281.178042632062,left,1,3,1.0155088595929556,W17L05,2022-12-01_12h24.00.790,t1_Paradigm,2021.1.4,60.2453736270178,
R,left,Pretarget,0,17,17,17,1282.6773304512608,1284.6775793937268,left,1,3,0.9236827702843584,W17L05,2022-12-01_12h24.00.790,t1_Paradigm,2021.1.4,60.2453736270178,
S,right,Target,0,18,18,18,1286.1774106518133,1288.1777292083425,right,1,3,0.6392390444234479,W17L05,2022-12-01_12h24.00.790,t1_Paradigm,2021.1.4,60.2453736270178,
F,left,Distractor,0,19,19,19,1289.6772053384047,1291.6775386518566,left,1,3,0.8836440943996422,W17L05,2022-12-01_12h24.00.790,t1_Paradigm,2021.1.4,60.2453736270178,
R,right,Target,0,20,20,20,1293.1776952033106,1295.1771113433933,left,0,3,1.1601431547605898,W17L05,2022-12-01_12h24.00.790,t1_Paradigm,2021.1.4,60.2453736270178,
P,left,Distractor,0,21,21,21,1296.6771809574566,1298.677356115426,left,1,3,0.6998693693603855,W17L05,2022-12-01_12h24.00.790,t1_Paradigm,2021.1.4,60.2453736270178,
L,left,Distractor,0,22,22,22,1300.1773375089106,1302.1788192940876,left,1,3,0.8305462041753344,W17L05,2022-12-01_12h24.00.790,t1_Paradigm,2021.1.4,60.2453736270178,
R,right,Target,0,23,23,23,1303.6773166567727,1305.6790024721122,right,1,3,0.5623280099243857,W17L05,2022-12-01_12h24.00.790,t1_Paradigm,2021.1.4,60.2453736270178,
H,left,Pretarget,0,24,24,24,1307.1772342105978,1309.1771296290972,left,1,3,0.7921230879437644,W17L05,2022-12-01_12h24.00.790,t1_Paradigm,2021.1.4,60.2453736270178,
G,left,Pretarget,0,25,25,25,1310.6773237144225,1312.677136686747,left,1,3,0.7641914855048526,W17L05,2022-12-01_12h24.00.790,t1_Paradigm,2021.1.4,60.2453736270178,
T,left,Distractor,0,26,26,26,1314.1771892983234,1316.177745248453,left,1,3,0.6552874932531267,W17L05,2022-12-01_12h24.00.790,t1_Paradigm,2021.1.4,60.2453736270178,
H,right,Target,0,27,27,27,1317.6771350827476,1319.6776996945555,right,1,3,0.5317132182826754,W17L05,2022-12-01_12h24.00.790,t1_Paradigm,2021.1.4,60.2453736270178,
G,right,Target,0,28,28,28,1321.1772666116303,1323.1775655992387,right,1,3,0.9675438039121218,W17L05,2022-12-01_12h24.00.790,t1_Paradigm,2021.1.4,60.2453736270178,
D,left,Distractor,0,29,29,29,1324.6772714236577,1326.678120586992,left,1,3,0.8751697845582385,W17L05,2022-12-01_12h24.00.790,t1_Paradigm,2021.1.4,60.2453736270178,
N,left,Pretarget,0,30,30,30,1328.1772752732795,1330.1793537504855,left,1,3,0.7979385894723237,W17L05,2022-12-01_12h24.00.790,t1_Paradigm,2021.1.4,60.2453736270178,
V,left,Distractor,0,31,31,31,1331.6775306318013,1333.6776984113385,left,1,3,0.5795929405721836,W17L05,2022-12-01_12h24.00.790,t1_Paradigm,2021.1.4,60.2453736270178,
R,left,Distractor,0,32,32,32,1335.1773971781076,1337.1775963962427,left,1,3,0.663725231657736,W17L05,2022-12-01_12h24.00.790,t1_Paradigm,2021.1.4,60.2453736270178,
N,right,Target,0,33,33,33,1338.677591905027,1340.6776111531362,right,1,3,0.507663321972359,W17L05,2022-12-01_12h24.00.790,t1_Paradigm,2021.1.4,60.2453736270178,
Z,left,Distractor,0,34,34,34,1342.1773349424766,1344.177696165716,left,1,3,0.4957358976826072,W17L05,2022-12-01_12h24.00.790,t1_Paradigm,2021.1.4,60.2453736270178,
N,left,Lure,0,35,35,35,1345.6771960351616,1347.6778273738164,right,0,3,0.9794904763402883,W17L05,2022-12-01_12h24.00.790,t1_Paradigm,2021.1.4,60.2453736270178,
Y,left,Pretarget,0,36,36,36,1349.1774722458213,1351.1783724166744,left,1,3,0.4229182987473905,W17L05,2022-12-01_12h24.00.790,t1_Paradigm,2021.1.4,60.2453736270178,
Y,left,Lure,0,37,37,37,1352.6771607469127,1354.6772826517408,left,1,3,1.100101822608849,W17L05,2022-12-01_12h24.00.790,t1_Paradigm,2021.1.4,60.2453736270178,
B,left,Distractor,0,38,38,38,1356.1774186718394,1358.1775922258093,left,1,3,1.2957093352742959,W17L05,2022-12-01_12h24.00.790,t1_Paradigm,2021.1.4,60.2453736270178,
Y,right,Target,0,39,39,39,1359.6772848973633,1361.6788250685204,right,1,3,0.5785654112405609,W17L05,2022-12-01_12h24.00.790,t1_Paradigm,2021.1.4,60.2453736270178,
J,left,Distractor,0,40,40,40,1363.177728245937,1365.17762077722,left,1,3,0.8876695198996458,W17L05,2022-12-01_12h24.00.790,t1_Paradigm,2021.1.4,60.2453736270178,
X,left,Distractor,0,41,41,41,1366.6771809574566,1368.677745248453,left,1,3,0.5875238115550019,W17L05,2022-12-01_12h24.00.790,t1_Paradigm,2021.1.4,60.2453736270178,
W,left,Pretarget,0,42,42,42,1370.1775758649164,1372.1784365771164,left,1,3,1.11882255342789,W17L05,2022-12-01_12h24.00.790,t1_Paradigm,2021.1.4,60.2453736270178,
S,left,Pretarget,0,43,43,43,1373.677389478864,1375.677585488971,left,1,3,1.171628834475996,W17L05,2022-12-01_12h24.00.790,t1_Paradigm,2021.1.4,60.2453736270178,
R,left,Distractor,0,44,44,44,1377.1774273335177,1379.1777102810156,left,1,3,0.6959385804948397,W17L05,2022-12-01_12h24.00.790,t1_Paradigm,2021.1.4,60.2453736270178,
W,right,Target,0,45,45,45,1380.677355473832,1382.6776419501693,right,1,3,0.7477189362398349,W17L05,2022-12-01_12h24.00.790,t1_Paradigm,2021.1.4,60.2453736270178,
S,right,Target,0,46,46,46,1384.1774571681162,1386.1777474940754,right,1,3,1.103463187610032,W17L05,2022-12-01_12h24.00.790,t1_Paradigm,2021.1.4,60.2453736270178,
D,left,Distractor,0,47,47,47,1387.6769365062064,1389.6781231533969,left,1,3,0.5474954012897797,W17L05,2022-12-01_12h24.00.790,t1_Paradigm,2021.1.4,60.2453736270178,
T,left,Distractor,0,48,48,48,1391.177493097959,1393.1777975391888,left,1,3,0.8394920931896195,W17L05,2022-12-01_12h24.00.790,t1_Paradigm,2021.1.4,60.2453736270178,
S,right,Target,0,49,49,49,1394.677341679344,1396.6781857098104,right,1,3,1.1632414620253257,W17L05,2022-12-01_12h24.00.790,t1_Paradigm,2021.1.4,60.2453736270178,
K,left,Distractor,0,50,50,50,1398.177353549021,1400.1774902107427,left,1,3,0.6078180769400205,W17L05,2022-12-01_12h24.00.790,t1_Paradigm,2021.1.4,60.2453736270178,
S,left,Lure,0,51,51,51,1401.6772188121104,1403.6775084964465,left,1,3,0.7397312832763419,W17L05,2022-12-01_12h24.00.790,t1_Paradigm,2021.1.4,60.2453736270178,
T,left,Pretarget,0,52,52,52,1405.1770590526285,1407.1791356050235,left,1,3,0.9020398526045028,W17L05,2022-12-01_12h24.00.790,t1_Paradigm,2021.1.4,60.2453736270178,
V,left,Distractor,0,53,53,53,1408.6771581805078,1410.6771055689314,left,1,3,0.9081861011800356,W17L05,2022-12-01_12h24.00.790,t1_Paradigm,2021.1.4,60.2453736270178,
B,left,Distractor,0,54,54,54,1412.1770840751997,1414.1777385116147,left,1,3,0.8158066281757783,W17L05,2022-12-01_12h24.00.790,t1_Paradigm,2021.1.4,60.2453736270178,
T,right,Target,0,55,55,55,1415.6773551530205,1417.6776615190902,right,1,3,0.5156862631847616,W17L05,2022-12-01_12h24.00.790,t1_Paradigm,2021.1.4,60.2453736270178,
Y,left,Pretarget,0,56,56,56,1419.1773615690763,1421.1773336592887,left,1,3,0.664158956205938,W17L05,2022-12-01_12h24.00.790,t1_Paradigm,2021.1.4,60.2453736270178,
T,left,Lure,0,57,57,57,1422.67782256176,1424.6776387421414,left,1,3,0.81154156345292,W17L05,2022-12-01_12h24.00.790,t1_Paradigm,2021.1.4,60.2453736270178,
P,left,Pretarget,0,58,58,58,1426.1771013985272,1428.1784660909034,left,1,3,0.6385990441485774,W17L05,2022-12-01_12h24.00.790,t1_Paradigm,2021.1.4,60.2453736270178,
Y,right,Target,0,59,59,59,1429.6774205966794,1431.6771225714474,left,0,3,0.6601925583090633,W17L05,2022-12-01_12h24.00.790,t1_Paradigm,2021.1.4,60.2453736270178,
R,left,Distractor,0,60,60,60,1433.177480586659,1435.17763842133,left,1,3,0.6157415694906376,W17L05,2022-12-01_12h24.00.790,t1_Paradigm,2021.1.4,60.2453736270178,
P,right,Target,0,61,61,61,1436.6777478148579,1438.6786434944952,left,0,3,0.4265398343268316,W17L05,2022-12-01_12h24.00.790,t1_Paradigm,2021.1.4,60.2453736270178,
L,left,Distractor,0,62,62,62,1440.177122892259,1442.1774228422728,left,1,3,0.6556718142528553,W17L05,2022-12-01_12h24.00.790,t1_Paradigm,2021.1.4,60.2453736270178,
V,left,Distractor,0,63,63,63,1443.6773336592887,1445.6778475843312,left,1,3,0.5955271838174667,W17L05,2022-12-01_12h24.00.790,t1_Paradigm,2021.1.4,60.2453736270178,
H,left,Lure,0,0,0,0,1469.7442966188246,1471.7441432753985,None,0,3,,W17L05,2022-12-01_12h24.00.790,t1_Paradigm,2021.1.4,60.2453736270178,
B,left,Distractor,0,1,1,1,1473.2439742126444,1475.2439921775658,None,0,3,,W17L05,2022-12-01_12h24.00.790,t1_Paradigm,2021.1.4,60.2453736270178,
T,left,Distractor,0,2,2,2,1476.743971967022,1478.7442250799504,None,0,3,,W17L05,2022-12-01_12h24.00.790,t1_Paradigm,2021.1.4,60.2453736270178,
R,left,Distractor,0,3,3,3,1480.2441211400437,1482.2449940427032,left,1,3,0.9244170864403713,W17L05,2022-12-01_12h24.00.790,t1_Paradigm,2021.1.4,60.2453736270178,
H,left,Pretarget,0,4,4,4,1483.7444230148685,1485.7452291907102,left,1,3,0.6881094037962612,W17L05,2022-12-01_12h24.00.790,t1_Paradigm,2021.1.4,60.2453736270178,
K,left,Distractor,0,5,5,5,1487.2442000573792,1489.2460834868543,left,1,3,0.8031801759498194,W17L05,2022-12-01_12h24.00.790,t1_Paradigm,2021.1.4,60.2453736270178,
G,left,Distractor,0,6,6,6,1490.7441025335283,1492.7443752153486,left,1,3,1.2090391782985535,W17L05,2022-12-01_12h24.00.790,t1_Paradigm,2021.1.4,60.2453736270178,
H,right,Target,0,7,7,7,1494.2442029445956,1496.2440107841103,right,1,3,1.0212342157319654,W17L05,2022-12-01_12h24.00.790,t1_Paradigm,2021.1.4,60.2453736270178,
Y,left,Pretarget,0,8,8,8,1497.7440271450032,1499.7441711851861,left,1,3,0.8652794539520983,W17L05,2022-12-01_12h24.00.790,t1_Paradigm,2021.1.4,60.2453736270178,
S,left,Distractor,0,9,9,9,1501.2442821827135,1503.2439344331797,left,1,3,0.6933625391684473,W17L05,2022-12-01_12h24.00.790,t1_Paradigm,2021.1.4,60.2453736270178,
P,left,Distractor,0,10,10,10,1504.7441150447994,1506.7458169002493,left,1,3,0.9034680638287682,W17L05,2022-12-01_12h24.00.790,t1_Paradigm,2021.1.4,60.2453736270178,
Y,right,Target,0,11,11,11,1508.2440868142003,1510.243860648683,right,1,3,0.5095024807669688,W17L05,2022-12-01_12h24.00.790,t1_Paradigm,2021.1.4,60.2453736270178,
H,left,Lure,0,12,12,12,1511.7439697214286,1513.744346663967,left,1,3,1.0410087816417217,W17L05,2022-12-01_12h24.00.790,t1_Paradigm,2021.1.4,60.2453736270178,
Q,left,Distractor,0,13,13,13,1515.2441230648546,1517.2443213205843,left,1,3,0.7410468929156195,W17L05,2022-12-01_12h24.00.790,t1_Paradigm,2021.1.4,60.2453736270178,
V,left,Pretarget,0,14,14,14,1518.7441092703666,1520.7461441184569,left,1,3,0.535136818914907,W17L05,2022-12-01_12h24.00.790,t1_Paradigm,2021.1.4,60.2453736270178,
G,left,Distractor,0,15,15,15,1522.2442292503547,1524.244235345599,left,1,3,0.860945096006617,W17L05,2022-12-01_12h24.00.790,t1_Paradigm,2021.1.4,60.2453736270178,
Z,left,Pretarget,0,16,16,16,1525.743843646167,1527.7455689201888,left,1,3,0.6717423984373454,W17L05,2022-12-01_12h24.00.790,t1_Paradigm,2021.1.4,60.2453736270178,
V,right,Target,0,17,17,17,1529.2439607389679,1531.2439357163967,left,0,3,0.517313371761702,W17L05,2022-12-01_12h24.00.790,t1_Paradigm,2021.1.4,60.2453736270178,
N,left,Distractor,0,18,18,18,1532.7441811300523,1534.7444563783065,left,1,3,0.6491739664925262,W17L05,2022-12-01_12h24.00.790,t1_Paradigm,2021.1.4,60.2453736270178,
Z,right,Target,0,19,19,19,1536.2439886487555,1538.2442796163086,left,0,3,1.0850347075902391,W17L05,2022-12-01_12h24.00.790,t1_Paradigm,2021.1.4,60.2453736270178,
R,left,Distractor,0,20,20,20,1539.7443280574225,1541.7437541423715,left,1,3,0.7214709035761189,W17L05,2022-12-01_12h24.00.790,t1_Paradigm,2021.1.4,60.2453736270178,
P,left,Distractor,0,21,21,21,1543.2439276963414,1545.2442594057648,left,1,3,0.5169806999037974,W17L05,2022-12-01_12h24.00.790,t1_Paradigm,2021.1.4,60.2453736270178,
Z,right,Target,0,22,22,22,1546.744034202653,1548.745107285882,left,0,3,0.6963745506363921,W17L05,2022-12-01_12h24.00.790,t1_Paradigm,2021.1.4,60.2453736270178,
D,left,Pretarget,0,23,23,23,1550.2440226537874,1552.2447710852139,left,1,3,0.780696115019964,W17L05,2022-12-01_12h24.00.790,t1_Paradigm,2021.1.4,60.2453736270178,
K,left,Distractor,0,24,24,24,1553.7441038167162,1555.7439979519986,left,1,3,0.6254179250099696,W17L05,2022-12-01_12h24.00.790,t1_Paradigm,2021.1.4,60.2453736270178,
W,left,Distractor,0,25,25,25,1557.2443713657267,1559.2439334707742,left,1,3,0.885253558808472,W17L05,2022-12-01_12h24.00.790,t1_Paradigm,2021.1.4,60.2453736270178,
D,right,Target,0,26,26,26,1560.7443091300956,1562.7444499622507,left,0,3,0.7289224961132277,W17L05,2022-12-01_12h24.00.790,t1_Paradigm,2021.1.4,60.2453736270178,
G,left,Pretarget,0,27,27,27,1564.2440534507914,1566.244082643767,left,1,3,0.6531397228245623,W17L05,2022-12-01_12h24.00.790,t1_Paradigm,2021.1.4,60.2453736270178,
V,left,Distractor,0,28,28,28,1567.7438725183601,1569.7445429948857,left,1,3,0.49693762257811613,W17L05,2022-12-01_12h24.00.790,t1_Paradigm,2021.1.4,60.2453736270178,
D,right,Target,0,29,29,29,1571.244069490902,1573.2450803385,left,0,3,0.7562978276109789,W17L05,2022-12-01_12h24.00.790,t1_Paradigm,2021.1.4,60.2453736270178,
G,right,Target,0,30,30,30,1574.7440540923853,1576.74417182678,right,1,3,0.9850743587303441,W17L05,2022-12-01_12h24.00.790,t1_Paradigm,2021.1.4,60.2453736270178,
B,left,Pretarget,0,31,31,31,1578.2440874558233,1580.2443662328878,left,1,3,0.6207672560994979,W17L05,2022-12-01_12h24.00.790,t1_Paradigm,2021.1.4,60.2453736270178,
N,left,Distractor,0,32,32,32,1581.7440601876297,1583.7442626137927,left,1,3,0.7370333371218294,W17L05,2022-12-01_12h24.00.790,t1_Paradigm,2021.1.4,60.2453736270178,
F,left,Distractor,0,33,33,33,1585.2439684382116,1587.2445606389956,left,1,3,0.6128864302590955,W17L05,2022-12-01_12h24.00.790,t1_Paradigm,2021.1.4,60.2453736270178,
B,right,Target,0,34,34,34,1588.7439482276677,1590.7448856115807,right,1,3,0.48850501704146154,W17L05,2022-12-01_12h24.00.790,t1_Paradigm,2021.1.4,60.2453736270178,
Q,left,Pretarget,0,35,35,35,1592.2441493706428,1594.2444182028412,left,1,3,0.60469185988768,W17L05,2022-12-01_12h24.00.790,t1_Paradigm,2021.1.4,60.2453736270178,
S,left,Pretarget,0,36,36,36,1595.7438988241483,1597.743845570978,left,1,3,0.7535126232251059,W17L05,2022-12-01_12h24.00.790,t1_Paradigm,2021.1.4,60.2453736270178,
W,left,Distractor,0,37,37,37,1599.2444489998452,1601.244283786742,left,1,3,0.9972010011551902,W17L05,2022-12-01_12h24.00.790,t1_Paradigm,2021.1.4,60.2453736270178,
Q,right,Target,0,38,38,38,1602.7439671549946,1604.7450530703063,right,1,3,1.1124398736574221,W17L05,2022-12-01_12h24.00.790,t1_Paradigm,2021.1.4,60.2453736270178,
S,right,Target,0,39,39,39,1606.2443813105929,1608.24484647371,right,1,3,0.8606018376885913,W17L05,2022-12-01_12h24.00.790,t1_Paradigm,2021.1.4,60.2453736270178,
T,left,Distractor,0,40,40,40,1609.7443858018087,1611.7443213205843,left,1,3,0.6091494059073739,W17L05,2022-12-01_12h24.00.790,t1_Paradigm,2021.1.4,60.2453736270178,
G,left,Distractor,0,41,41,41,1613.244331586262,1615.2438792551984,left,1,3,0.6295960523420945,W17L05,2022-12-01_12h24.00.790,t1_Paradigm,2021.1.4,60.2453736270178,
D,left,Distractor,0,42,42,42,1616.7441381425597,1618.7442103230278,left,1,3,0.5851193993585184,W17L05,2022-12-01_12h24.00.790,t1_Paradigm,2021.1.4,60.2453736270178,
S,left,Lure,0,43,43,43,1620.2445154058805,1622.2441375009366,left,1,3,0.6050206821237225,W17L05,2022-12-01_12h24.00.790,t1_Paradigm,2021.1.4,60.2453736270178,
Z,left,Pretarget,0,44,44,44,1623.7440534507914,1625.7439982728101,left,1,3,0.7053027955407742,W17L05,2022-12-01_12h24.00.790,t1_Paradigm,2021.1.4,60.2453736270178,
J,left,Distractor,0,45,45,45,1627.2440239369753,1629.2439331499627,left,1,3,0.6296631000004709,W17L05,2022-12-01_12h24.00.790,t1_Paradigm,2021.1.4,60.2453736270178,
M,left,Pretarget,0,46,46,46,1630.744032919436,1632.7444005587313,left,1,3,0.8090588755148929,W17L05,2022-12-01_12h24.00.790,t1_Paradigm,2021.1.4,60.2453736270178,
Z,right,Target,0,47,47,47,1634.2441853004857,1636.2443874058372,right,1,3,0.7971150903322268,W17L05,2022-12-01_12h24.00.790,t1_Paradigm,2021.1.4,60.2453736270178,
P,left,Distractor,0,48,48,48,1637.7441602779145,1639.7457873864623,left,1,3,0.6236438890628051,W17L05,2022-12-01_12h24.00.790,t1_Paradigm,2021.1.4,60.2453736270178,
M,right,Target,0,49,49,49,1641.2441516162362,1643.244286353147,right,1,3,1.1571067623153795,W17L05,2022-12-01_12h24.00.790,t1_Paradigm,2021.1.4,60.2453736270178,
K,left,Distractor,0,50,50,50,1644.7442603681702,1646.7443075260962,left,1,3,0.7931977751723025,W17L05,2022-12-01_12h24.00.790,t1_Paradigm,2021.1.4,60.2453736270178,
Y,left,Distractor,0,51,51,51,1648.2444586238998,1650.2440393354918,left,1,3,0.6532702893018723,W17L05,2022-12-01_12h24.00.790,t1_Paradigm,2021.1.4,60.2453736270178,
X,left,Distractor,0,52,52,52,1651.7442571601423,1653.744205190218,left,1,3,0.7051606801978778,W17L05,2022-12-01_12h24.00.790,t1_Paradigm,2021.1.4,60.2453736270178,
F,left,Pretarget,0,53,53,53,1655.2437644080492,1657.2450104036252,left,1,3,0.5484825095336419,W17L05,2022-12-01_12h24.00.790,t1_Paradigm,2021.1.4,60.2453736270178,
M,left,Lure,0,54,54,54,1658.7440884182288,1660.7438452501956,left,1,3,0.5374860531010199,W17L05,2022-12-01_12h24.00.790,t1_Paradigm,2021.1.4,60.2453736270178,
V,left,Distractor,0,55,55,55,1662.2441753556195,1664.2442780123092,left,1,3,0.8449861509725451,W17L05,2022-12-01_12h24.00.790,t1_Paradigm,2021.1.4,60.2453736270178,
F,right,Target,0,56,56,56,1665.743975816673,1667.7450251605187,right,1,3,0.8162775657256134,W17L05,2022-12-01_12h24.00.790,t1_Paradigm,2021.1.4,60.2453736270178,
S,left,Distractor,0,57,57,57,1669.2441233856662,1671.2439729294565,left,1,3,1.3176079322875012,W17L05,2022-12-01_12h24.00.790,t1_Paradigm,2021.1.4,60.2453736270178,
D,left,Distractor,0,58,58,58,1672.744018483354,1674.7438670647389,left,1,3,1.0498860189982224,W17L05,2022-12-01_12h24.00.790,t1_Paradigm,2021.1.4,60.2453736270178,
F,right,Target,0,59,59,59,1676.2441965285398,1678.2450886793667,right,1,3,0.508324495254783,W17L05,2022-12-01_12h24.00.790,t1_Paradigm,2021.1.4,60.2453736270178,
V,left,Pretarget,0,60,60,60,1679.7444133908139,1681.7438596862776,left,1,3,0.9936625533446204,W17L05,2022-12-01_12h24.00.790,t1_Paradigm,2021.1.4,60.2453736270178,
J,left,Distractor,0,61,61,61,1683.244488137716,1685.2443142629345,left,1,3,0.7251190657261759,W17L05,2022-12-01_12h24.00.790,t1_Paradigm,2021.1.4,60.2453736270178,
V,left,Lure,0,62,62,62,1686.7441589946975,1688.7438372301403,left,1,3,1.0977173001447227,W17L05,2022-12-01_12h24.00.790,t1_Paradigm,2021.1.4,60.2453736270178,
V,right,Target,0,63,63,63,1690.2442042278126,1692.244052488386,right,1,3,0.797505827358691,W17L05,2022-12-01_12h24.00.790,t1_Paradigm,2021.1.4,60.2453736270178,
R,left,Distractor,0,0,0,0,1809.5924186109041,1811.5950511134288,None,0,4,,W17L05,2022-12-01_12h24.00.790,t1_Paradigm,2021.1.4,60.2453736270178,
F,left,Distractor,0,1,1,1,1813.0941294488148,1815.0952538603742,None,0,4,,W17L05,2022-12-01_12h24.00.790,t1_Paradigm,2021.1.4,60.2453736270178,
P,left,Pretarget,0,2,2,2,1816.5941166167322,1818.595431263966,None,0,4,,W17L05,2022-12-01_12h24.00.790,t1_Paradigm,2021.1.4,60.2453736270178,
H,left,Distractor,0,3,3,3,1820.0940822908888,1822.0943318749778,None,0,4,,W17L05,2022-12-01_12h24.00.790,t1_Paradigm,2021.1.4,60.2453736270178,
Z,left,Distractor,0,4,4,4,1823.594510240975,1825.594028075342,left,1,4,0.7114182471123058,W17L05,2022-12-01_12h24.00.790,t1_Paradigm,2021.1.4,60.2453736270178,
T,left,Distractor,0,5,5,5,1827.0943976394192,1829.0945076745702,left,1,4,0.7790917834208813,W17L05,2022-12-01_12h24.00.790,t1_Paradigm,2021.1.4,60.2453736270178,
P,right,Target,0,6,6,6,1830.5941493385471,1832.5944412685058,right,1,4,0.6550796134688426,W17L05,2022-12-01_12h24.00.790,t1_Paradigm,2021.1.4,60.2453736270178,
G,left,Distractor,0,7,7,7,1834.0942564864818,1836.0941082758654,left,1,4,0.6593514150008559,W17L05,2022-12-01_12h24.00.790,t1_Paradigm,2021.1.4,60.2453736270178,
L,left,Distractor,0,8,8,8,1837.5943126268394,1839.59496802566,left,1,4,1.206537883845158,W17L05,2022-12-01_12h24.00.790,t1_Paradigm,2021.1.4,60.2453736270178,
P,left,Lure,0,9,9,9,1841.094140035275,1843.094544246007,right,0,4,0.4750342135375831,W17L05,2022-12-01_12h24.00.790,t1_Paradigm,2021.1.4,60.2453736270178,
Q,left,Pretarget,0,10,10,10,1844.594124957599,1846.594451854995,left,1,4,0.6070308284251951,W17L05,2022-12-01_12h24.00.790,t1_Paradigm,2021.1.4,60.2453736270178,
D,left,Distractor,0,11,11,11,1848.0941634538467,1850.0939674437395,left,1,4,0.6113950210274197,W17L05,2022-12-01_12h24.00.790,t1_Paradigm,2021.1.4,60.2453736270178,
M,left,Pretarget,0,12,12,12,1851.5941461305192,1853.5944775191601,left,1,4,0.6633502139593475,W17L05,2022-12-01_12h24.00.790,t1_Paradigm,2021.1.4,60.2453736270178,
C,left,Distractor,0,13,13,13,1855.0944091883139,1857.0955669632822,left,1,4,0.5698565950151533,W17L05,2022-12-01_12h24.00.790,t1_Paradigm,2021.1.4,60.2453736270178,
Q,right,Target,0,14,14,14,1858.5939927870932,1860.595150882902,right,1,4,0.8623899889353197,W17L05,2022-12-01_12h24.00.790,t1_Paradigm,2021.1.4,60.2453736270178,
R,left,Distractor,0,15,15,15,1862.0941592834133,1864.095058491861,left,1,4,0.8984462268126663,W17L05,2022-12-01_12h24.00.790,t1_Paradigm,2021.1.4,60.2453736270178,
M,right,Target,0,16,16,16,1865.5942070829333,1867.5948374591826,right,1,4,0.7746916610049084,W17L05,2022-12-01_12h24.00.790,t1_Paradigm,2021.1.4,60.2453736270178,
S,left,Distractor,0,17,17,17,1869.0942359551264,1871.0945282058965,left,1,4,0.6508568946446758,W17L05,2022-12-01_12h24.00.790,t1_Paradigm,2021.1.4,60.2453736270178,
Z,left,Distractor,0,18,18,18,1872.5940591931576,1874.5942491080204,left,1,4,0.5912788008281495,W17L05,2022-12-01_12h24.00.790,t1_Paradigm,2021.1.4,60.2453736270178,
L,left,Pretarget,0,19,19,19,1876.0942189526104,1878.0941307320318,left,1,4,0.6913786985969637,W17L05,2022-12-01_12h24.00.790,t1_Paradigm,2021.1.4,60.2453736270178,
M,right,Target,0,20,20,20,1879.5941313736257,1881.5953908429074,right,1,4,0.8062104731507134,W17L05,2022-12-01_12h24.00.790,t1_Paradigm,2021.1.4,60.2453736270178,
P,left,Distractor,0,21,21,21,1883.0942686769413,1885.0941589626018,left,1,4,1.1793848682718817,W17L05,2022-12-01_12h24.00.790,t1_Paradigm,2021.1.4,60.2453736270178,
F,left,Distractor,0,22,22,22,1886.5942629025085,1888.595994592557,left,1,4,0.5895670004829299,W17L05,2022-12-01_12h24.00.790,t1_Paradigm,2021.1.4,60.2453736270178,
L,right,Target,0,23,23,23,1890.0939109825413,1892.0956962465716,right,1,4,0.44968699335004203,W17L05,2022-12-01_12h24.00.790,t1_Paradigm,2021.1.4,60.2453736270178,
L,left,Lure,0,24,24,24,1893.5942917747016,1895.594246862398,left,1,4,1.2552077418367844,W17L05,2022-12-01_12h24.00.790,t1_Paradigm,2021.1.4,60.2453736270178,
V,left,Pretarget,0,25,25,25,1897.0941018598387,1899.0947117047326,left,1,4,0.9068287872360088,W17L05,2022-12-01_12h24.00.790,t1_Paradigm,2021.1.4,60.2453736270178,
Z,left,Distractor,0,26,26,26,1900.5941769275232,1902.5943860905536,left,1,4,1.0870586484088562,W17L05,2022-12-01_12h24.00.790,t1_Paradigm,2021.1.4,60.2453736270178,
H,left,Distractor,0,27,27,27,1904.0941182207316,1906.0963670438796,left,1,4,0.5772016812697984,W17L05,2022-12-01_12h24.00.790,t1_Paradigm,2021.1.4,60.2453736270178,
X,left,Distractor,0,28,28,28,1907.5938949424308,1909.59413746887,left,1,4,0.8713817526586354,W17L05,2022-12-01_12h24.00.790,t1_Paradigm,2021.1.4,60.2453736270178,
V,right,Target,0,29,29,29,1911.0943966770137,1913.0949808577425,right,1,4,0.6024731921497732,W17L05,2022-12-01_12h24.00.790,t1_Paradigm,2021.1.4,60.2453736270178,
C,left,Distractor,0,30,30,30,1914.5941150127328,1916.596043675294,left,1,4,0.6214467150857672,W17L05,2022-12-01_12h24.00.790,t1_Paradigm,2021.1.4,60.2453736270178,
S,left,Pretarget,0,31,31,31,1918.0940389826137,1920.0941493385471,left,1,4,1.1074741770280525,W17L05,2022-12-01_12h24.00.790,t1_Paradigm,2021.1.4,60.2453736270178,
D,left,Distractor,0,32,32,32,1921.5942850378633,1923.5958001864492,left,1,4,1.1898061264073476,W17L05,2022-12-01_12h24.00.790,t1_Paradigm,2021.1.4,60.2453736270178,
V,left,Distractor,0,33,33,33,1925.094292095513,1927.0939562156564,right,0,4,0.7797452574304771,W17L05,2022-12-01_12h24.00.790,t1_Paradigm,2021.1.4,60.2453736270178,
R,left,Distractor,0,34,34,34,1928.5945949327433,1930.594467574294,left,1,4,0.7349378574290313,W17L05,2022-12-01_12h24.00.790,t1_Paradigm,2021.1.4,60.2453736270178,
S,right,Target,0,35,35,35,1932.0941522257635,1934.0944877848378,right,1,4,0.7387756136304233,W17L05,2022-12-01_12h24.00.790,t1_Paradigm,2021.1.4,60.2453736270178,
Y,left,Distractor,0,36,36,36,1935.5942747721856,1937.5940277545305,left,1,4,0.7595206060796045,W17L05,2022-12-01_12h24.00.790,t1_Paradigm,2021.1.4,60.2453736270178,
N,left,Pretarget,0,37,37,37,1939.0939712933614,1941.095133238763,left,1,4,0.6343397538585123,W17L05,2022-12-01_12h24.00.790,t1_Paradigm,2021.1.4,60.2453736270178,
Z,left,Pretarget,0,38,38,38,1942.594123674382,1944.5944723863213,left,1,4,0.8792378767102491,W17L05,2022-12-01_12h24.00.790,t1_Paradigm,2021.1.4,60.2453736270178,
P,left,Pretarget,0,39,39,39,1946.0939597444667,1948.0951268227363,left,1,4,0.6266238203388639,W17L05,2022-12-01_12h24.00.790,t1_Paradigm,2021.1.4,60.2453736270178,
M,left,Distractor,0,40,40,40,1949.5941265615984,1951.5950373189407,left,1,4,0.6306514914322179,W17L05,2022-12-01_12h24.00.790,t1_Paradigm,2021.1.4,60.2453736270178,
N,right,Target,0,41,41,41,1953.0945160154079,1955.0940643259673,left,0,4,0.6034057640645187,W17L05,2022-12-01_12h24.00.790,t1_Paradigm,2021.1.4,60.2453736270178,
Z,right,Target,0,42,42,42,1956.5948236646946,1958.5965909637744,right,1,4,0.6369424217846245,W17L05,2022-12-01_12h24.00.790,t1_Paradigm,2021.1.4,60.2453736270178,
P,right,Target,0,43,43,43,1960.0941570377909,1962.0947870932287,right,1,4,0.40268466496490873,W17L05,2022-12-01_12h24.00.790,t1_Paradigm,2021.1.4,60.2453736270178,
X,left,Pretarget,0,44,44,44,1963.5941316944372,1965.5947482761694,left,1,4,0.6788561863068026,W17L05,2022-12-01_12h24.00.790,t1_Paradigm,2021.1.4,60.2453736270178,
Z,left,Lure,0,45,45,45,1967.0942799050245,1969.0940967269999,left,1,4,0.747555968730012,W17L05,2022-12-01_12h24.00.790,t1_Paradigm,2021.1.4,60.2453736270178,
R,left,Pretarget,0,46,46,46,1970.5941474137362,1972.5962865225447,left,1,4,0.6212612914387137,W17L05,2022-12-01_12h24.00.790,t1_Paradigm,2021.1.4,60.2453736270178,
K,left,Distractor,0,47,47,47,1974.0940617595625,1976.0946725668618,left,1,4,0.6588769486406818,W17L05,2022-12-01_12h24.00.790,t1_Paradigm,2021.1.4,60.2453736270178,
X,right,Target,0,48,48,48,1977.5943697296316,1979.5952240257757,right,1,4,0.822312495962251,W17L05,2022-12-01_12h24.00.790,t1_Paradigm,2021.1.4,60.2453736270178,
B,left,Distractor,0,49,49,49,1981.0946007071761,1983.0958476651867,left,1,4,0.6655868465895765,W17L05,2022-12-01_12h24.00.790,t1_Paradigm,2021.1.4,60.2453736270178,
R,right,Target,0,50,50,50,1984.59424557921,1986.5944303612341,right,1,4,0.46317832815111615,W17L05,2022-12-01_12h24.00.790,t1_Paradigm,2021.1.4,60.2453736270178,
Y,left,Pretarget,0,51,51,51,1988.0941762859293,1990.0951880959328,left,1,4,0.7862370099464897,W17L05,2022-12-01_12h24.00.790,t1_Paradigm,2021.1.4,60.2453736270178,
W,left,Pretarget,0,52,52,52,1991.594056305912,1993.5948316847498,left,1,4,1.062772962555755,W17L05,2022-12-01_12h24.00.790,t1_Paradigm,2021.1.4,60.2453736270178,
Z,left,Distractor,0,53,53,53,1995.0942577696696,1997.095794732828,right,0,4,1.401889717206359,W17L05,2022-12-01_12h24.00.790,t1_Paradigm,2021.1.4,60.2453736270178,
Q,left,Distractor,0,54,54,54,1998.594200346095,2000.5944938800822,left,1,4,0.9109565486432984,W17L05,2022-12-01_12h24.00.790,t1_Paradigm,2021.1.4,60.2453736270178,
Y,right,Target,0,55,55,55,2002.0942407671537,2004.094493238459,right,1,4,1.202981150301639,W17L05,2022-12-01_12h24.00.790,t1_Paradigm,2021.1.4,60.2453736270178,
W,right,Target,0,56,56,56,2005.5938673534547,2007.5950726071605,right,1,4,0.9343722190533299,W17L05,2022-12-01_12h24.00.790,t1_Paradigm,2021.1.4,60.2453736270178,
H,left,Pretarget,0,57,57,57,2009.0942211982328,2011.0940999350278,left,1,4,0.6673008925281465,W17L05,2022-12-01_12h24.00.790,t1_Paradigm,2021.1.4,60.2453736270178,
M,left,Distractor,0,58,58,58,2012.5945108825981,2014.5963105827104,left,1,4,0.6692581065290142,W17L05,2022-12-01_12h24.00.790,t1_Paradigm,2021.1.4,60.2453736270178,
R,left,Pretarget,0,59,59,59,2016.0945092785696,2018.0946311833977,left,1,4,0.7707557393296156,W17L05,2022-12-01_12h24.00.790,t1_Paradigm,2021.1.4,60.2453736270178,
J,left,Distractor,0,60,60,60,2019.5943604263593,2021.596324697981,left,1,4,0.8053330792754423,W17L05,2022-12-01_12h24.00.790,t1_Paradigm,2021.1.4,60.2453736270178,
H,right,Target,0,61,61,61,2023.0944653286715,2025.0942025917175,left,0,4,0.5233861566230189,W17L05,2022-12-01_12h24.00.790,t1_Paradigm,2021.1.4,60.2453736270178,
Z,left,Distractor,0,62,62,62,2026.5942629025085,2028.5945477748464,left,1,4,0.6549115131492727,W17L05,2022-12-01_12h24.00.790,t1_Paradigm,2021.1.4,60.2453736270178,
R,right,Target,0,63,63,63,2030.0942372383433,2032.0940736292396,right,1,4,0.6595342722721398,W17L05,2022-12-01_12h24.00.790,t1_Paradigm,2021.1.4,60.2453736270178,
J,left,Pretarget,0,0,0,0,2058.260435213044,2060.2610206769896,None,0,4,,W17L05,2022-12-01_12h24.00.790,t1_Paradigm,2021.1.4,60.2453736270178,
G,left,Pretarget,0,1,1,1,2061.7612728274835,2063.7621239156288,None,0,4,,W17L05,2022-12-01_12h24.00.790,t1_Paradigm,2021.1.4,60.2453736270178,
Z,left,Distractor,0,2,2,2,2065.261175624444,2067.261820115964,None,0,4,,W17L05,2022-12-01_12h24.00.790,t1_Paradigm,2021.1.4,60.2453736270178,
F,left,Distractor,0,3,3,3,2068.760857067886,2070.7620328078046,None,0,4,,W17L05,2022-12-01_12h24.00.790,t1_Paradigm,2021.1.4,60.2453736270178,
J,right,Target,0,4,4,4,2072.2606033133925,2074.2612131582864,right,1,4,0.7003098307177424,W17L05,2022-12-01_12h24.00.790,t1_Paradigm,2021.1.4,60.2453736270178,
G,right,Target,0,5,5,5,2075.760879524052,2077.7611634339555,right,1,4,0.7683253421564586,W17L05,2022-12-01_12h24.00.790,t1_Paradigm,2021.1.4,60.2453736270178,
H,left,Distractor,0,6,6,6,2079.2609510629263,2081.262268918188,left,1,4,0.6913440519711003,W17L05,2022-12-01_12h24.00.790,t1_Paradigm,2021.1.4,60.2453736270178,
P,left,Distractor,0,7,7,7,2082.7610270930454,2084.762448888214,left,1,4,0.6312995117914397,W17L05,2022-12-01_12h24.00.790,t1_Paradigm,2021.1.4,60.2453736270178,
G,left,Lure,0,8,8,8,2086.260985709552,2088.261341799953,right,0,4,0.7643935908854473,W17L05,2022-12-01_12h24.00.790,t1_Paradigm,2021.1.4,60.2453736270178,
S,left,Distractor,0,9,9,9,2089.76125807059,2091.7618983917055,left,1,4,1.375750757259084,W17L05,2022-12-01_12h24.00.790,t1_Paradigm,2021.1.4,60.2453736270178,
R,left,Pretarget,0,10,10,10,2093.2608221004484,2095.2611887773382,left,1,4,0.9805250633216929,W17L05,2022-12-01_12h24.00.790,t1_Paradigm,2021.1.4,60.2453736270178,
T,left,Pretarget,0,11,11,11,2096.7606597745616,2098.761200967798,left,1,4,0.8723826553905383,W17L05,2022-12-01_12h24.00.790,t1_Paradigm,2021.1.4,60.2453736270178,
X,left,Distractor,0,12,12,12,2100.260941759654,2102.260789699445,left,1,4,1.084745985630434,W17L05,2022-12-01_12h24.00.790,t1_Paradigm,2021.1.4,60.2453736270178,
F,left,Pretarget,0,13,13,13,2103.760877599241,2105.761294000433,left,1,4,0.5604808311036322,W17L05,2022-12-01_12h24.00.790,t1_Paradigm,2021.1.4,60.2453736270178,
R,right,Target,0,14,14,14,2107.2609164163005,2109.2606427720457,left,0,4,0.6769955337804276,W17L05,2022-12-01_12h24.00.790,t1_Paradigm,2021.1.4,60.2453736270178,
T,right,Target,0,15,15,15,2110.760913529084,2112.761184606905,left,0,4,0.4724562474002596,W17L05,2022-12-01_12h24.00.790,t1_Paradigm,2021.1.4,60.2453736270178,
C,left,Distractor,0,16,16,16,2114.260730030248,2116.262408467126,left,1,4,0.619014072290156,W17L05,2022-12-01_12h24.00.790,t1_Paradigm,2021.1.4,60.2453736270178,
F,right,Target,0,17,17,17,2117.760663944995,2119.7617719956615,right,1,4,0.6719605438993312,W17L05,2022-12-01_12h24.00.790,t1_Paradigm,2021.1.4,60.2453736270178,
M,left,Distractor,0,18,18,18,2121.261235935235,2123.27424093397,left,1,4,0.5834919699991588,W17L05,2022-12-01_12h24.00.790,t1_Paradigm,2021.1.4,60.2453736270178,
N,left,Distractor,0,19,19,19,2124.7609526669257,2126.7608025315276,left,1,4,0.9527753557194956,W17L05,2022-12-01_12h24.00.790,t1_Paradigm,2021.1.4,60.2453736270178,
R,left,Lure,0,20,20,20,2128.261298170866,2130.26132543906,left,1,4,0.6200938923866488,W17L05,2022-12-01_12h24.00.790,t1_Paradigm,2021.1.4,60.2453736270178,
F,right,Target,0,21,21,21,2131.7612709026725,2133.7614569679426,right,1,4,0.44822894752724096,W17L05,2022-12-01_12h24.00.790,t1_Paradigm,2021.1.4,60.2453736270178,
P,left,Distractor,0,22,22,22,2135.260977047903,2137.2610370379116,left,1,4,0.8685237262106966,W17L05,2022-12-01_12h24.00.790,t1_Paradigm,2021.1.4,60.2453736270178,
L,left,Pretarget,0,23,23,23,2138.7609812183364,2140.762724136468,left,1,4,0.7267051115923095,W17L05,2022-12-01_12h24.00.790,t1_Paradigm,2021.1.4,60.2453736270178,
T,left,Distractor,0,24,24,24,2142.2607114237035,2144.26064886729,left,1,4,0.7971163735492155,W17L05,2022-12-01_12h24.00.790,t1_Paradigm,2021.1.4,60.2453736270178,
F,left,Distractor,0,25,25,25,2145.7608987721615,2147.762383444555,left,1,4,0.9272305213962682,W17L05,2022-12-01_12h24.00.790,t1_Paradigm,2021.1.4,60.2453736270178,
V,left,Distractor,0,26,26,26,2149.2612198951247,2151.2622673141886,left,1,4,0.6116744396858849,W17L05,2022-12-01_12h24.00.790,t1_Paradigm,2021.1.4,60.2453736270178,
L,right,Target,0,27,27,27,2152.7608496894536,2154.7614701208076,left,0,4,0.456239698221907,W17L05,2022-12-01_12h24.00.790,t1_Paradigm,2021.1.4,60.2453736270178,
S,left,Pretarget,0,28,28,28,2156.2610591732664,2158.261356877658,left,1,4,0.6040714285045397,W17L05,2022-12-01_12h24.00.790,t1_Paradigm,2021.1.4,60.2453736270178,
W,left,Distractor,0,29,29,29,2159.76086316313,2161.762054622348,left,1,4,0.7199695494782645,W17L05,2022-12-01_12h24.00.790,t1_Paradigm,2021.1.4,60.2453736270178,
Q,left,Distractor,0,30,30,30,2163.2612670530507,2165.2632046981016,left,1,4,0.6584714546916075,W17L05,2022-12-01_12h24.00.790,t1_Paradigm,2021.1.4,60.2453736270178,
L,right,Target,0,31,31,31,2166.760991483985,2168.7617934893933,right,1,4,0.5997322585026268,W17L05,2022-12-01_12h24.00.790,t1_Paradigm,2021.1.4,60.2453736270178,
S,right,Target,0,32,32,32,2170.260828837316,2172.261458571942,left,0,4,0.4922077155497391,W17L05,2022-12-01_12h24.00.790,t1_Paradigm,2021.1.4,60.2453736270178,
Z,left,Pretarget,0,33,33,33,2173.761207704665,2175.762381519744,left,1,4,0.7191595239855815,W17L05,2022-12-01_12h24.00.790,t1_Paradigm,2021.1.4,60.2453736270178,
F,left,Distractor,0,34,34,34,2177.2609818599303,2179.260247864586,right,0,4,1.1414859427604824,W17L05,2022-12-01_12h24.00.790,t1_Paradigm,2021.1.4,60.2453736270178,
V,left,Distractor,0,35,35,35,2180.7609048674058,2182.761178832472,left,1,4,0.6165381212485954,W17L05,2022-12-01_12h24.00.790,t1_Paradigm,2021.1.4,60.2453736270178,
M,left,Distractor,0,36,36,36,2184.2610049576906,2186.2612676946446,left,1,4,1.196521157224197,W17L05,2022-12-01_12h24.00.790,t1_Paradigm,2021.1.4,60.2453736270178,
Z,right,Target,0,37,37,37,2187.761062381265,2189.762299715192,right,1,4,1.1354019298159983,W17L05,2022-12-01_12h24.00.790,t1_Paradigm,2021.1.4,60.2453736270178,
H,left,Pretarget,0,38,38,38,2191.2610447371553,2193.2624334896973,left,1,4,0.6911660067853518,W17L05,2022-12-01_12h24.00.790,t1_Paradigm,2021.1.4,60.2453736270178,
L,left,Distractor,0,39,39,39,2194.7608926769462,2196.760982822336,right,0,4,0.664817883836804,W17L05,2022-12-01_12h24.00.790,t1_Paradigm,2021.1.4,60.2453736270178,
G,left,Distractor,0,40,40,40,2198.261230481614,2200.262080928136,left,1,4,1.4195303071464878,W17L05,2022-12-01_12h24.00.790,t1_Paradigm,2021.1.4,60.2453736270178,
K,left,Distractor,0,41,41,41,2201.7609433636826,2203.7629512643907,left,1,4,1.118715084710857,W17L05,2022-12-01_12h24.00.790,t1_Paradigm,2021.1.4,60.2453736270178,
H,right,Target,0,42,42,42,2205.2610604564543,2207.262428036076,right,1,4,0.7392632329137996,W17L05,2022-12-01_12h24.00.790,t1_Paradigm,2021.1.4,60.2453736270178,
B,left,Distractor,0,43,43,43,2208.76071431092,2210.7625332591706,left,1,4,0.5510466812120285,W17L05,2022-12-01_12h24.00.790,t1_Paradigm,2021.1.4,60.2453736270178,
Z,left,Distractor,0,44,44,44,2212.2602857192396,2214.2627337605227,left,1,4,0.6027035281294957,W17L05,2022-12-01_12h24.00.790,t1_Paradigm,2021.1.4,60.2453736270178,
T,left,Pretarget,0,45,45,45,2215.7610716845375,2217.7607303510304,left,1,4,1.3135019854526035,W17L05,2022-12-01_12h24.00.790,t1_Paradigm,2021.1.4,60.2453736270178,
H,right,Target,0,46,46,46,2219.2609577997646,2221.2629496603913,right,1,4,0.5947842060122639,W17L05,2022-12-01_12h24.00.790,t1_Paradigm,2021.1.4,60.2453736270178,
F,left,Distractor,0,47,47,47,2222.760924115544,2224.761640787561,left,1,4,0.5199224557145499,W17L05,2022-12-01_12h24.00.790,t1_Paradigm,2021.1.4,60.2453736270178,
R,left,Distractor,0,48,48,48,2226.260902301001,2228.2607919450675,left,1,4,0.5726398745318875,W17L05,2022-12-01_12h24.00.790,t1_Paradigm,2021.1.4,60.2453736270178,
T,right,Target,0,49,49,49,2229.761024205829,2231.7618172287475,right,1,4,0.6877988673222717,W17L05,2022-12-01_12h24.00.790,t1_Paradigm,2021.1.4,60.2453736270178,
H,right,Target,0,50,50,50,2233.260918661894,2235.2609395140607,right,1,4,0.5006197897600941,W17L05,2022-12-01_12h24.00.790,t1_Paradigm,2021.1.4,60.2453736270178,
Y,left,Pretarget,0,51,51,51,2236.7612484465353,2238.761657790077,left,1,4,0.5199596687452868,W17L05,2022-12-01_12h24.00.790,t1_Paradigm,2021.1.4,60.2453736270178,
H,left,Distractor,0,52,52,52,2240.261178190849,2242.2618146623427,left,1,4,1.1160444067209028,W17L05,2022-12-01_12h24.00.790,t1_Paradigm,2021.1.4,60.2453736270178,
S,left,Distractor,0,53,53,53,2243.761246842507,2245.761065589293,left,1,4,0.6087346087151673,W17L05,2022-12-01_12h24.00.790,t1_Paradigm,2021.1.4,60.2453736270178,
Q,left,Distractor,0,54,54,54,2247.26098891758,2249.260838140559,left,1,4,0.596901500277454,W17L05,2022-12-01_12h24.00.790,t1_Paradigm,2021.1.4,60.2453736270178,
Y,right,Target,0,55,55,55,2250.7608586719143,2252.761336667114,right,1,4,0.504362909385236,W17L05,2022-12-01_12h24.00.790,t1_Paradigm,2021.1.4,60.2453736270178,
R,left,Distractor,0,56,56,56,2254.2612295192084,2256.261147393845,left,1,4,0.7003377405344509,W17L05,2022-12-01_12h24.00.790,t1_Paradigm,2021.1.4,60.2453736270178,
H,left,Pretarget,0,57,57,57,2257.760711102921,2259.7608083059604,left,1,4,0.6728825293248519,W17L05,2022-12-01_12h24.00.790,t1_Paradigm,2021.1.4,60.2453736270178,
J,left,Distractor,0,58,58,58,2261.261029980262,2263.262460757891,left,1,4,0.9954616118629929,W17L05,2022-12-01_12h24.00.790,t1_Paradigm,2021.1.4,60.2453736270178,
V,left,Distractor,0,59,59,59,2264.760817288421,2266.7619692889857,left,1,4,0.6638448908634018,W17L05,2022-12-01_12h24.00.790,t1_Paradigm,2021.1.4,60.2453736270178,
Y,left,Lure,0,60,60,60,2268.261023564206,2270.26305552508,left,1,4,0.7947754802007694,W17L05,2022-12-01_12h24.00.790,t1_Paradigm,2021.1.4,60.2453736270178,
H,right,Target,0,61,61,61,2271.7612564665906,2273.7618708027294,left,0,4,0.6878152282151859,W17L05,2022-12-01_12h24.00.790,t1_Paradigm,2021.1.4,60.2453736270178,
L,left,Distractor,0,62,62,62,2275.2610277346394,2277.261432907777,left,1,4,0.8999899268092122,W17L05,2022-12-01_12h24.00.790,t1_Paradigm,2021.1.4,60.2453736270178,
P,left,Distractor,0,63,63,63,2278.7613873538503,2280.7614168676664,left,1,4,0.6804040567367338,W17L05,2022-12-01_12h24.00.790,t1_Paradigm,2021.1.4,60.2453736270178,
