Letter,CorrAnswer,Stimulus,nback_run.thisRepN,nback_run.thisTrialN,nback_run.thisN,nback_run.thisIndex,fixcross.started,nback_trial.started,trial_resp.keys,trial_resp.corr,currentlevel,trial_resp.rt,Participant,date,expName,psychopyVersion,frameRate,
H,left,Distractor,0,0,0,0,3039.088454449942,3041.1040400362544,None,0,1,,W19A12,2022-12-09_12h42.14.434,t1_Paradigm,2021.1.4,59.87531957832585,
Q,left,Pretarget,0,1,1,1,3042.5973443903495,3044.6009027404652,left,1,1,0.9100688925100258,W19A12,2022-12-09_12h42.14.434,t1_Paradigm,2021.1.4,59.87531957832585,
Q,right,Target,0,2,2,2,3046.0968543633207,3048.0965056501445,None,0,1,,W19A12,2022-12-09_12h42.14.434,t1_Paradigm,2021.1.4,59.87531957832585,
T,left,Distractor,0,3,3,3,3049.5961548517516,3051.597498375937,None,0,1,,W19A12,2022-12-09_12h42.14.434,t1_Paradigm,2021.1.4,59.87531957832585,
Q,left,Lure,0,4,4,4,3053.095694017815,3055.0973195280967,None,0,1,,W19A12,2022-12-09_12h42.14.434,t1_Paradigm,2021.1.4,59.87531957832585,
L,left,Distractor,0,5,5,5,3056.5947879089217,3058.597616110739,left,1,1,1.2856034710857784,W19A12,2022-12-09_12h42.14.434,t1_Paradigm,2021.1.4,59.87531957832585,
V,left,Pretarget,0,6,6,6,3060.0944303736615,3062.0968890100776,None,0,1,,W19A12,2022-12-09_12h42.14.434,t1_Paradigm,2021.1.4,59.87531957832585,
V,right,Target,0,7,7,7,3063.5938187621796,3065.5933552014176,right,1,1,1.1356269699317636,W19A12,2022-12-09_12h42.14.434,t1_Paradigm,2021.1.4,59.87531957832585,
K,left,Distractor,0,8,8,8,3067.0932915219746,3069.095022897338,None,0,1,,W19A12,2022-12-09_12h42.14.434,t1_Paradigm,2021.1.4,59.87531957832585,
G,left,Pretarget,0,9,9,9,3070.5926276195532,3072.59168894912,left,1,1,0.5881382983061485,W19A12,2022-12-09_12h42.14.434,t1_Paradigm,2021.1.4,59.87531957832585,
G,right,Target,0,10,10,10,3074.0923599092057,3076.091935807257,None,0,1,,W19A12,2022-12-09_12h42.14.434,t1_Paradigm,2021.1.4,59.87531957832585,
G,right,Target,0,11,11,11,3077.591528868288,3079.5913286870345,None,0,1,,W19A12,2022-12-09_12h42.14.434,t1_Paradigm,2021.1.4,59.87531957832585,
P,left,Pretarget,0,12,12,12,3081.091097227458,3083.092486947309,None,0,1,,W19A12,2022-12-09_12h42.14.434,t1_Paradigm,2021.1.4,59.87531957832585,
P,right,Target,0,13,13,13,3084.5905330948735,3086.5901343363803,right,1,1,1.0068793057871517,W19A12,2022-12-09_12h42.14.434,t1_Paradigm,2021.1.4,59.87531957832585,
G,left,Lure,0,14,14,14,3088.0899003103696,3090.0920397475275,None,0,1,,W19A12,2022-12-09_12h42.14.434,t1_Paradigm,2021.1.4,59.87531957832585,
Y,left,Distractor,0,15,15,15,3091.5888966772764,3093.5884122643038,left,1,1,1.0055579170148121,W19A12,2022-12-09_12h42.14.434,t1_Paradigm,2021.1.4,59.87531957832585,
B,left,Distractor,0,16,16,16,3095.08882690256,3097.0904168036795,None,0,1,,W19A12,2022-12-09_12h42.14.434,t1_Paradigm,2021.1.4,59.87531957832585,
T,left,Pretarget,0,17,17,17,3098.5882217071485,3100.6001456446975,left,1,1,1.0925466167245759,W19A12,2022-12-09_12h42.14.434,t1_Paradigm,2021.1.4,59.87531957832585,
T,right,Target,0,18,18,18,3102.0876627074176,3104.0872870467574,None,0,1,,W19A12,2022-12-09_12h42.14.434,t1_Paradigm,2021.1.4,59.87531957832585,
S,left,Distractor,0,19,19,19,3105.587074835392,3107.5860530768987,left,1,1,1.239974656549748,W19A12,2022-12-09_12h42.14.434,t1_Paradigm,2021.1.4,59.87531957832585,
T,left,Lure,0,20,20,20,3109.0868821930053,3111.085580052444,None,0,1,,W19A12,2022-12-09_12h42.14.434,t1_Paradigm,2021.1.4,59.87531957832585,
J,left,Distractor,0,21,21,21,3112.5858381386934,3114.5873013225064,left,1,1,0.636054440314183,W19A12,2022-12-09_12h42.14.434,t1_Paradigm,2021.1.4,59.87531957832585,
P,left,Distractor,0,22,22,22,3116.08499875688,3118.0868533207104,None,0,1,,W19A12,2022-12-09_12h42.14.434,t1_Paradigm,2021.1.4,59.87531957832585,
F,left,Distractor,0,23,23,23,3119.5845225243975,3121.5861679244845,left,1,1,1.1605094356345944,W19A12,2022-12-09_12h42.14.434,t1_Paradigm,2021.1.4,59.87531957832585,
L,left,Distractor,0,24,24,24,3123.0839561461908,3125.0861122651113,None,0,1,,W19A12,2022-12-09_12h42.14.434,t1_Paradigm,2021.1.4,59.87531957832585,
W,left,Pretarget,0,25,25,25,3126.583595082091,3128.5848712375737,left,1,1,0.9544282884307904,W19A12,2022-12-09_12h42.14.434,t1_Paradigm,2021.1.4,59.87531957832585,
W,right,Target,0,26,26,26,3130.082952352692,3132.0827964422933,None,0,1,,W19A12,2022-12-09_12h42.14.434,t1_Paradigm,2021.1.4,59.87531957832585,
V,left,Distractor,0,27,27,27,3133.5824039394647,3135.5842177612794,left,1,1,0.6992940723575884,W19A12,2022-12-09_12h42.14.434,t1_Paradigm,2021.1.4,59.87531957832585,
W,left,Lure,0,28,28,28,3137.0986094781256,3139.1004508890182,None,0,1,,W19A12,2022-12-09_12h42.14.434,t1_Paradigm,2021.1.4,59.87531957832585,
R,left,Pretarget,0,29,29,29,3140.597342144727,3142.599365451082,left,1,1,1.1299185961688636,W19A12,2022-12-09_12h42.14.434,t1_Paradigm,2021.1.4,59.87531957832585,
R,right,Target,0,30,30,30,3144.0973127912293,3146.096946113059,None,0,1,,W19A12,2022-12-09_12h42.14.434,t1_Paradigm,2021.1.4,59.87531957832585,
G,left,Distractor,0,31,31,31,3147.59667006183,3149.598659363037,left,1,1,0.9768030347913736,W19A12,2022-12-09_12h42.14.434,t1_Paradigm,2021.1.4,59.87531957832585,
R,left,Lure,0,32,32,32,3151.0959256377973,3153.098159391113,None,0,1,,W19A12,2022-12-09_12h42.14.434,t1_Paradigm,2021.1.4,59.87531957832585,
S,left,Distractor,0,33,33,33,3154.5957076519553,3156.59516677761,left,1,1,0.7360238036053488,W19A12,2022-12-09_12h42.14.434,t1_Paradigm,2021.1.4,59.87531957832585,
R,left,Lure,0,34,34,34,3158.095145123385,3160.0956138170004,None,0,1,,W19A12,2022-12-09_12h42.14.434,t1_Paradigm,2021.1.4,59.87531957832585,
P,left,Pretarget,0,35,35,35,3161.5942277863796,3163.606774723914,left,1,1,0.7212678146170219,W19A12,2022-12-09_12h42.14.434,t1_Paradigm,2021.1.4,59.87531957832585,
P,right,Target,0,36,36,36,3165.0938484364888,3167.093486891172,None,0,1,,W19A12,2022-12-09_12h42.14.434,t1_Paradigm,2021.1.4,59.87531957832585,
Y,left,Pretarget,0,37,37,37,3168.593212443957,3170.59530408142,left,1,1,1.1862741103832377,W19A12,2022-12-09_12h42.14.434,t1_Paradigm,2021.1.4,59.87531957832585,
Y,right,Target,0,38,38,38,3172.0923669668846,3174.092555920026,None,0,1,,W19A12,2022-12-09_12h42.14.434,t1_Paradigm,2021.1.4,59.87531957832585,
J,left,Distractor,0,39,39,39,3175.592590727174,3177.5932557524065,left,1,1,1.0632344991900027,W19A12,2022-12-09_12h42.14.434,t1_Paradigm,2021.1.4,59.87531957832585,
Y,left,Lure,0,40,40,40,3179.0916060214804,3181.09345769808,None,0,1,,W19A12,2022-12-09_12h42.14.434,t1_Paradigm,2021.1.4,59.87531957832585,
T,left,Distractor,0,41,41,41,3182.590876354385,3184.592855069088,left,1,1,0.636593710645684,W19A12,2022-12-09_12h42.14.434,t1_Paradigm,2021.1.4,59.87531957832585,
V,left,Distractor,0,42,42,42,3186.0906323834934,3188.102650957997,None,0,1,,W19A12,2022-12-09_12h42.14.434,t1_Paradigm,2021.1.4,59.87531957832585,
N,left,Pretarget,0,43,43,43,3189.5897907560575,3191.592976653541,None,0,1,,W19A12,2022-12-09_12h42.14.434,t1_Paradigm,2021.1.4,59.87531957832585,
N,right,Target,0,44,44,44,3193.088870852618,3195.0890052691975,None,0,1,,W19A12,2022-12-09_12h42.14.434,t1_Paradigm,2021.1.4,59.87531957832585,
N,right,Target,0,45,45,45,3196.588538019205,3198.5882335768692,right,1,1,1.0015045674372232,W19A12,2022-12-09_12h42.14.434,t1_Paradigm,2021.1.4,59.87531957832585,
X,left,Distractor,0,46,46,46,3200.088157386097,3202.0903221667104,None,0,1,,W19A12,2022-12-09_12h42.14.434,t1_Paradigm,2021.1.4,59.87531957832585,
Z,left,Distractor,0,47,47,47,3203.587333402844,3205.5868159471283,left,1,1,0.8455515009554802,W19A12,2022-12-09_12h42.14.434,t1_Paradigm,2021.1.4,59.87531957832585,
H,left,Pretarget,0,48,48,48,3207.0868786641804,3209.088411462304,None,0,1,,W19A12,2022-12-09_12h42.14.434,t1_Paradigm,2021.1.4,59.87531957832585,
H,right,Target,0,49,49,49,3210.586365218507,3212.586031903891,right,1,1,0.6875356693199137,W19A12,2022-12-09_12h42.14.434,t1_Paradigm,2021.1.4,59.87531957832585,
K,left,Distractor,0,50,50,50,3214.085852735254,3216.0876697650965,left,1,1,0.8641279363509966,W19A12,2022-12-09_12h42.14.434,t1_Paradigm,2021.1.4,59.87531957832585,
V,left,Pretarget,0,51,51,51,3217.5852327828907,3219.5874277190014,left,1,1,1.0907327949098544,W19A12,2022-12-09_12h42.14.434,t1_Paradigm,2021.1.4,59.87531957832585,
V,right,Target,0,52,52,52,3221.0847806106467,3223.084478734745,right,1,1,0.6674751979007851,W19A12,2022-12-09_12h42.14.434,t1_Paradigm,2021.1.4,59.87531957832585,
R,left,Distractor,0,53,53,53,3224.583996086192,3226.5861409770005,left,1,1,0.9985037734440994,W19A12,2022-12-09_12h42.14.434,t1_Paradigm,2021.1.4,59.87531957832585,
V,left,Lure,0,54,54,54,3228.083413026223,3230.08334565752,left,1,1,0.9671468557353364,W19A12,2022-12-09_12h42.14.434,t1_Paradigm,2021.1.4,59.87531957832585,
Y,left,Distractor,0,55,55,55,3231.5829056758084,3233.5851885120355,left,1,1,1.1596278681827243,W19A12,2022-12-09_12h42.14.434,t1_Paradigm,2021.1.4,59.87531957832585,
Q,left,Distractor,0,56,56,56,3235.0825705967727,3237.083704315606,left,1,1,0.8735095078009181,W19A12,2022-12-09_12h42.14.434,t1_Paradigm,2021.1.4,59.87531957832585,
Z,left,Pretarget,0,57,57,57,3238.5983796225773,3240.5980867291655,left,1,1,0.6858989309257595,W19A12,2022-12-09_12h42.14.434,t1_Paradigm,2021.1.4,59.87531957832585,
Z,right,Target,0,58,58,58,3242.097845003882,3244.0975395991554,right,1,1,0.9580726138228783,W19A12,2022-12-09_12h42.14.434,t1_Paradigm,2021.1.4,59.87531957832585,
B,left,Distractor,0,59,59,59,3245.5972362796456,3247.5979545582086,left,1,1,0.9812179297005059,W19A12,2022-12-09_12h42.14.434,t1_Paradigm,2021.1.4,59.87531957832585,
S,left,Pretarget,0,60,60,60,3249.0967683880444,3251.0982046243735,left,1,1,1.3908433116448577,W19A12,2022-12-09_12h42.14.434,t1_Paradigm,2021.1.4,59.87531957832585,
S,right,Target,0,61,61,61,3252.595997658136,3254.5957442235376,None,0,1,,W19A12,2022-12-09_12h42.14.434,t1_Paradigm,2021.1.4,59.87531957832585,
T,left,Distractor,0,62,62,62,3256.095651671785,3258.0973346058454,left,1,1,0.9029637412168086,W19A12,2022-12-09_12h42.14.434,t1_Paradigm,2021.1.4,59.87531957832585,
D,left,Distractor,0,63,63,63,3259.5949515186076,3261.596059893971,left,1,1,0.682618075661594,W19A12,2022-12-09_12h42.14.434,t1_Paradigm,2021.1.4,59.87531957832585,
R,left,Distractor,0,0,0,0,3271.6610276933498,3273.6607450656447,None,0,1,,W19A12,2022-12-09_12h42.14.434,t1_Paradigm,2021.1.4,59.87531957832585,
V,left,Distractor,0,1,1,1,3275.159105279614,3277.16042730998,left,1,1,1.2867310946603538,W19A12,2022-12-09_12h42.14.434,t1_Paradigm,2021.1.4,59.87531957832585,
N,left,Pretarget,0,2,2,2,3278.6585517335334,3280.6607139477273,left,1,1,0.6079921723867301,W19A12,2022-12-09_12h42.14.434,t1_Paradigm,2021.1.4,59.87531957832585,
N,right,Target,0,3,3,3,3282.157848372328,3284.157651719899,right,1,1,0.6423883805109654,W19A12,2022-12-09_12h42.14.434,t1_Paradigm,2021.1.4,59.87531957832585,
S,left,Distractor,0,4,4,4,3285.6570766799996,3287.6587644261162,left,1,1,0.6885083449014928,W19A12,2022-12-09_12h42.14.434,t1_Paradigm,2021.1.4,59.87531957832585,
N,left,Lure,0,5,5,5,3289.1567422425724,3291.159179705981,left,1,1,1.0783786601678003,W19A12,2022-12-09_12h42.14.434,t1_Paradigm,2021.1.4,59.87531957832585,
Z,left,Distractor,0,6,6,6,3292.6564315445867,3294.6570279178995,left,1,1,0.7323303953162394,W19A12,2022-12-09_12h42.14.434,t1_Paradigm,2021.1.4,59.87531957832585,
L,left,Pretarget,0,7,7,7,3296.1557843239425,3298.15696840889,left,1,1,0.6817381122236839,W19A12,2022-12-09_12h42.14.434,t1_Paradigm,2021.1.4,59.87531957832585,
L,right,Target,0,8,8,8,3299.65533247251,3301.654755347394,None,0,1,,W19A12,2022-12-09_12h42.14.434,t1_Paradigm,2021.1.4,59.87531957832585,
H,left,Distractor,0,9,9,9,3303.1546040886315,3305.1557294665836,left,1,1,0.5255887141393032,W19A12,2022-12-09_12h42.14.434,t1_Paradigm,2021.1.4,59.87531957832585,
L,left,Lure,0,10,10,10,3306.6540396352502,3308.654970927193,left,1,1,0.4881041327462299,W19A12,2022-12-09_12h42.14.434,t1_Paradigm,2021.1.4,59.87531957832585,
X,left,Pretarget,0,11,11,11,3310.1534277029714,3312.1553980767785,left,1,1,0.6654647236719029,W19A12,2022-12-09_12h42.14.434,t1_Paradigm,2021.1.4,59.87531957832585,
X,right,Target,0,12,12,12,3313.652856833505,3315.6525286517426,right,1,1,0.7892976813891437,W19A12,2022-12-09_12h42.14.434,t1_Paradigm,2021.1.4,59.87531957832585,
X,right,Target,0,13,13,13,3317.1522833976196,3319.1519558574655,right,1,1,0.7681968449032865,W19A12,2022-12-09_12h42.14.434,t1_Paradigm,2021.1.4,59.87531957832585,
R,left,Distractor,0,14,14,14,3320.6518908948055,3322.6532225492556,left,1,1,0.5615286276733968,W19A12,2022-12-09_12h42.14.434,t1_Paradigm,2021.1.4,59.87531957832585,
T,left,Distractor,0,15,15,15,3324.151354672096,3326.153369316773,left,1,1,0.45387923360976856,W19A12,2022-12-09_12h42.14.434,t1_Paradigm,2021.1.4,59.87531957832585,
V,left,Pretarget,0,16,16,16,3327.650742098209,3329.6517304931476,left,1,1,0.7068307040754007,W19A12,2022-12-09_12h42.14.434,t1_Paradigm,2021.1.4,59.87531957832585,
V,right,Target,0,17,17,17,3331.149907528452,3333.1495831963257,right,1,1,0.7646118681150256,W19A12,2022-12-09_12h42.14.434,t1_Paradigm,2021.1.4,59.87531957832585,
N,left,Distractor,0,18,18,18,3334.6495060431334,3336.650524914381,left,1,1,0.9455760424025357,W19A12,2022-12-09_12h42.14.434,t1_Paradigm,2021.1.4,59.87531957832585,
B,left,Distractor,0,19,19,19,3338.149126051634,3340.15009680239,left,1,1,0.536266972500016,W19A12,2022-12-09_12h42.14.434,t1_Paradigm,2021.1.4,59.87531957832585,
V,left,Lure,0,20,20,20,3341.647618115763,3343.6503988386976,left,1,1,0.6898185055470094,W19A12,2022-12-09_12h42.14.434,t1_Paradigm,2021.1.4,59.87531957832585,
P,left,Distractor,0,21,21,21,3345.147685644857,3347.14961463504,left,1,1,0.5708418680442264,W19A12,2022-12-09_12h42.14.434,t1_Paradigm,2021.1.4,59.87531957832585,
K,left,Pretarget,0,22,22,22,3348.647076599809,3350.648790651787,left,1,1,0.9168262930325,W19A12,2022-12-09_12h42.14.434,t1_Paradigm,2021.1.4,59.87531957832585,
K,right,Target,0,23,23,23,3352.1464832741185,3354.14617113251,right,1,1,0.718294609701843,W19A12,2022-12-09_12h42.14.434,t1_Paradigm,2021.1.4,59.87531957832585,
J,left,Pretarget,0,24,24,24,3355.6454235004494,3357.6475619751873,left,1,1,0.6709161339967977,W19A12,2022-12-09_12h42.14.434,t1_Paradigm,2021.1.4,59.87531957832585,
J,right,Target,0,25,25,25,3359.1452783369605,3361.1450184862915,right,1,1,0.9164743718283717,W19A12,2022-12-09_12h42.14.434,t1_Paradigm,2021.1.4,59.87531957832585,
H,left,Distractor,0,26,26,26,3362.6447793274274,3364.6464343516127,left,1,1,0.7913793739571702,W19A12,2022-12-09_12h42.14.434,t1_Paradigm,2021.1.4,59.87531957832585,
J,left,Lure,0,27,27,27,3366.160856865594,3368.1732068299025,None,0,1,,W19A12,2022-12-09_12h42.14.434,t1_Paradigm,2021.1.4,59.87531957832585,
V,left,Distractor,0,28,28,28,3369.6605128040537,3371.6725519099855,left,1,1,0.9905302076367661,W19A12,2022-12-09_12h42.14.434,t1_Paradigm,2021.1.4,59.87531957832585,
Z,left,Pretarget,0,29,29,29,3373.1599772229674,3375.1611632327404,left,1,1,0.5846117077162489,W19A12,2022-12-09_12h42.14.434,t1_Paradigm,2021.1.4,59.87531957832585,
Z,right,Target,0,30,30,30,3376.6590563571226,3378.658929639816,right,1,1,0.9077369733859086,W19A12,2022-12-09_12h42.14.434,t1_Paradigm,2021.1.4,59.87531957832585,
T,left,Distractor,0,31,31,31,3380.1585400242184,3382.160636794535,left,1,1,0.5741592948761536,W19A12,2022-12-09_12h42.14.434,t1_Paradigm,2021.1.4,59.87531957832585,
Z,left,Lure,0,32,32,32,3383.6579813452845,3385.65700097043,None,0,1,,W19A12,2022-12-09_12h42.14.434,t1_Paradigm,2021.1.4,59.87531957832585,
F,left,Distractor,0,33,33,33,3387.1574168918887,3389.158746300731,left,1,1,0.6584054472477874,W19A12,2022-12-09_12h42.14.434,t1_Paradigm,2021.1.4,59.87531957832585,
Y,left,Pretarget,0,34,34,34,3390.656904729447,3392.6572345152235,left,1,1,0.9682074314041529,W19A12,2022-12-09_12h42.14.434,t1_Paradigm,2021.1.4,59.87531957832585,
Y,right,Target,0,35,35,35,3394.1568368795415,3396.1559315726627,right,1,1,0.7888931484339992,W19A12,2022-12-09_12h42.14.434,t1_Paradigm,2021.1.4,59.87531957832585,
Y,right,Target,0,36,36,36,3397.655776464264,3399.655023538944,right,1,1,0.7800222958321683,W19A12,2022-12-09_12h42.14.434,t1_Paradigm,2021.1.4,59.87531957832585,
W,left,Distractor,0,37,37,37,3401.155191800266,3403.1563383512257,left,1,1,0.7363205466535874,W19A12,2022-12-09_12h42.14.434,t1_Paradigm,2021.1.4,59.87531957832585,
Q,left,Distractor,0,38,38,38,3404.654555807734,3406.6560452974227,left,1,1,0.5481267493742052,W19A12,2022-12-09_12h42.14.434,t1_Paradigm,2021.1.4,59.87531957832585,
P,left,Pretarget,0,39,39,39,3408.1540757256153,3410.1548103651585,left,1,1,0.5722415327909403,W19A12,2022-12-09_12h42.14.434,t1_Paradigm,2021.1.4,59.87531957832585,
P,right,Target,0,40,40,40,3411.6533646651224,3413.652864211981,left,0,1,0.8335444753611227,W19A12,2022-12-09_12h42.14.434,t1_Paradigm,2021.1.4,59.87531957832585,
J,left,Distractor,0,41,41,41,3415.152807911014,3417.1543362178927,left,1,1,0.6020399881381309,W19A12,2022-12-09_12h42.14.434,t1_Paradigm,2021.1.4,59.87531957832585,
P,left,Lure,0,42,42,42,3418.652328791286,3420.654343115166,left,1,1,1.020843873047852,W19A12,2022-12-09_12h42.14.434,t1_Paradigm,2021.1.4,59.87531957832585,
L,left,Distractor,0,43,43,43,3422.151716859007,3424.1527633193473,left,1,1,0.6741905732051237,W19A12,2022-12-09_12h42.14.434,t1_Paradigm,2021.1.4,59.87531957832585,
Z,left,Distractor,0,44,44,44,3425.6510654679296,3427.651535765559,left,1,1,0.4984654374566162,W19A12,2022-12-09_12h42.14.434,t1_Paradigm,2021.1.4,59.87531957832585,
F,left,Pretarget,0,45,45,45,3429.150629656666,3431.1522509965,left,1,1,0.5287858397350647,W19A12,2022-12-09_12h42.14.434,t1_Paradigm,2021.1.4,59.87531957832585,
F,right,Target,0,46,46,46,3432.650059428808,3434.649708149198,right,1,1,0.8353528435254702,W19A12,2022-12-09_12h42.14.434,t1_Paradigm,2021.1.4,59.87531957832585,
G,left,Pretarget,0,47,47,47,3436.14946931116,3438.1506421679805,left,1,1,0.7110216782748466,W19A12,2022-12-09_12h42.14.434,t1_Paradigm,2021.1.4,59.87531957832585,
G,right,Target,0,48,48,48,3439.648901970533,3441.6488220905158,right,1,1,0.6586688267416321,W19A12,2022-12-09_12h42.14.434,t1_Paradigm,2021.1.4,59.87531957832585,
V,left,Distractor,0,49,49,49,3443.1482749605057,3445.1491196355637,left,1,1,0.5181592307053506,W19A12,2022-12-09_12h42.14.434,t1_Paradigm,2021.1.4,59.87531957832585,
G,left,Lure,0,50,50,50,3446.6477871790994,3448.6495361986454,left,1,1,0.7650654839671915,W19A12,2022-12-09_12h42.14.434,t1_Paradigm,2021.1.4,59.87531957832585,
Q,left,Pretarget,0,51,51,51,3450.1471450913086,3452.1494006592548,left,1,1,0.6250646819680696,W19A12,2022-12-09_12h42.14.434,t1_Paradigm,2021.1.4,59.87531957832585,
Q,right,Target,0,52,52,52,3453.6465052491403,3455.6464343516127,right,1,1,0.9898760897340253,W19A12,2022-12-09_12h42.14.434,t1_Paradigm,2021.1.4,59.87531957832585,
Y,left,Distractor,0,53,53,53,3457.145770449206,3459.147248069159,left,1,1,0.6450186466972809,W19A12,2022-12-09_12h42.14.434,t1_Paradigm,2021.1.4,59.87531957832585,
V,left,Distractor,0,54,54,54,3460.64560956636,3462.64626143864,left,1,1,0.6526710884063505,W19A12,2022-12-09_12h42.14.434,t1_Paradigm,2021.1.4,59.87531957832585,
B,left,Distractor,0,55,55,55,3464.144931227798,3466.1460588513582,left,1,1,0.9978875103261089,W19A12,2022-12-09_12h42.14.434,t1_Paradigm,2021.1.4,59.87531957832585,
J,left,Pretarget,0,56,56,56,3467.6444745643093,3469.6442387738934,left,1,1,0.6965309936058475,W19A12,2022-12-09_12h42.14.434,t1_Paradigm,2021.1.4,59.87531957832585,
J,right,Target,0,57,57,57,3471.1437625413964,3473.1434077329614,right,1,1,0.7042588240874466,W19A12,2022-12-09_12h42.14.434,t1_Paradigm,2021.1.4,59.87531957832585,
H,left,Distractor,0,58,58,58,3474.6430983181926,3476.6443061425816,left,1,1,0.8816720267495839,W19A12,2022-12-09_12h42.14.434,t1_Paradigm,2021.1.4,59.87531957832585,
J,left,Lure,0,59,59,59,3478.1592964783777,3480.1614275746397,None,0,1,,W19A12,2022-12-09_12h42.14.434,t1_Paradigm,2021.1.4,59.87531957832585,
D,left,Pretarget,0,60,60,60,3481.658604024473,3483.6584481140744,left,1,1,0.7542152750393143,W19A12,2022-12-09_12h42.14.434,t1_Paradigm,2021.1.4,59.87531957832585,
D,right,Target,0,61,61,61,3485.1581524938374,3487.1581261879764,right,1,1,0.7247478887147736,W19A12,2022-12-09_12h42.14.434,t1_Paradigm,2021.1.4,59.87531957832585,
R,left,Distractor,0,62,62,62,3488.6572143046214,3490.6587551228295,left,1,1,1.3832515017566038,W19A12,2022-12-09_12h42.14.434,t1_Paradigm,2021.1.4,59.87531957832585,
F,left,Distractor,0,63,63,63,3492.156863506214,3494.156064706025,left,1,1,0.5038680856960127,W19A12,2022-12-09_12h42.14.434,t1_Paradigm,2021.1.4,59.87531957832585,
F,left,Distractor,0,0,0,0,3557.3625462157215,3559.3627088629873,None,0,2,,W19A12,2022-12-09_12h42.14.434,t1_Paradigm,2021.1.4,59.87531957832585,
N,left,Pretarget,0,1,1,1,3560.861954173248,3562.8643512154376,left,1,2,0.5493287993158447,W19A12,2022-12-09_12h42.14.434,t1_Paradigm,2021.1.4,59.87531957832585,
V,left,Distractor,0,2,2,2,3564.3618709247967,3566.362899740954,left,1,2,0.5004717412375612,W19A12,2022-12-09_12h42.14.434,t1_Paradigm,2021.1.4,59.87531957832585,
N,right,Target,0,3,3,3,3567.861012936395,3569.8628049435792,right,1,2,0.9070761186012533,W19A12,2022-12-09_12h42.14.434,t1_Paradigm,2021.1.4,59.87531957832585,
N,left,Lure,0,4,4,4,3571.3606810653873,3573.360352562813,right,0,2,1.4507594215829158,W19A12,2022-12-09_12h42.14.434,t1_Paradigm,2021.1.4,59.87531957832585,
X,left,Distractor,0,5,5,5,3574.8601769230154,3576.861918243274,left,1,2,0.8196668457821943,W19A12,2022-12-09_12h42.14.434,t1_Paradigm,2021.1.4,59.87531957832585,
G,left,Pretarget,0,6,6,6,3578.359535156036,3580.3607583789853,left,1,2,0.7951449629908893,W19A12,2022-12-09_12h42.14.434,t1_Paradigm,2021.1.4,59.87531957832585,
H,left,Pretarget,0,7,7,7,3581.858962361759,3583.8603418159037,left,1,2,0.7450637195579475,W19A12,2022-12-09_12h42.14.434,t1_Paradigm,2021.1.4,59.87531957832585,
G,right,Target,0,8,8,8,3585.3583244444017,3587.3598078388313,left,0,2,0.6054286333092023,W19A12,2022-12-09_12h42.14.434,t1_Paradigm,2021.1.4,59.87531957832585,
H,right,Target,0,9,9,9,3588.8577153993538,3590.858478911192,right,1,2,1.3515458708570804,W19A12,2022-12-09_12h42.14.434,t1_Paradigm,2021.1.4,59.87531957832585,
T,left,Pretarget,0,10,10,10,3592.3572317883954,3594.3584838836396,left,1,2,1.4648231170867803,W19A12,2022-12-09_12h42.14.434,t1_Paradigm,2021.1.4,59.87531957832585,
K,left,Distractor,0,11,11,11,3595.8565467129665,3597.8579008236557,left,1,2,1.3779123725835234,W19A12,2022-12-09_12h42.14.434,t1_Paradigm,2021.1.4,59.87531957832585,
T,right,Target,0,12,12,12,3599.356065026819,3601.3564358754375,right,1,2,1.0763649779109983,W19A12,2022-12-09_12h42.14.434,t1_Paradigm,2021.1.4,59.87531957832585,
T,left,Lure,0,13,13,13,3602.8554441120505,3604.8552009431587,None,0,2,,W19A12,2022-12-09_12h42.14.434,t1_Paradigm,2021.1.4,59.87531957832585,
J,left,Distractor,0,14,14,14,3606.354858485647,3608.3569087394862,left,1,2,0.8522784251836129,W19A12,2022-12-09_12h42.14.434,t1_Paradigm,2021.1.4,59.87531957832585,
Q,left,Pretarget,0,15,15,15,3609.854390273249,3611.856136405564,left,1,2,1.3861056886380538,W19A12,2022-12-09_12h42.14.434,t1_Paradigm,2021.1.4,59.87531957832585,
M,left,Distractor,0,16,16,16,3613.353063912029,3615.3556290551496,left,1,2,0.9247911971615395,W19A12,2022-12-09_12h42.14.434,t1_Paradigm,2021.1.4,59.87531957832585,
Q,right,Target,0,17,17,17,3616.8532283237146,3618.8655186186224,right,1,2,0.9050242607481778,W19A12,2022-12-09_12h42.14.434,t1_Paradigm,2021.1.4,59.87531957832585,
R,left,Distractor,0,18,18,18,3620.352879450147,3622.3536676638323,left,1,2,1.0868931003205944,W19A12,2022-12-09_12h42.14.434,t1_Paradigm,2021.1.4,59.87531957832585,
W,left,Distractor,0,19,19,19,3623.852052579663,3625.8534435827314,left,1,2,0.8249584960722132,W19A12,2022-12-09_12h42.14.434,t1_Paradigm,2021.1.4,59.87531957832585,
C,left,Pretarget,0,20,20,20,3627.3514444970206,3629.3538761859672,left,1,2,0.7741984328749822,W19A12,2022-12-09_12h42.14.434,t1_Paradigm,2021.1.4,59.87531957832585,
T,left,Distractor,0,21,21,21,3630.8510407660797,3632.851903726929,left,1,2,0.8725564012274845,W19A12,2022-12-09_12h42.14.434,t1_Paradigm,2021.1.4,59.87531957832585,
C,right,Target,0,22,22,22,3634.3503069285507,3636.3506748899235,right,1,2,1.320721486597904,W19A12,2022-12-09_12h42.14.434,t1_Paradigm,2021.1.4,59.87531957832585,
F,left,Pretarget,0,23,23,23,3637.849809523046,3639.849242342825,left,1,2,0.6970070656825555,W19A12,2022-12-09_12h42.14.434,t1_Paradigm,2021.1.4,59.87531957832585,
C,right,Target,0,24,24,24,3641.3484603848046,3643.350411189618,left,0,2,1.0617145331925713,W19A12,2022-12-09_12h42.14.434,t1_Paradigm,2021.1.4,59.87531957832585,
F,right,Target,0,25,25,25,3644.848155461281,3646.8476463464467,None,0,2,,W19A12,2022-12-09_12h42.14.434,t1_Paradigm,2021.1.4,59.87531957832585,
H,left,Distractor,0,26,26,26,3648.348030829191,3650.3500226968317,left,1,2,0.8303752596402774,W19A12,2022-12-09_12h42.14.434,t1_Paradigm,2021.1.4,59.87531957832585,
H,left,Lure,0,27,27,27,3651.847141402075,3653.847153592593,left,1,2,1.4275948575232178,W19A12,2022-12-09_12h42.14.434,t1_Paradigm,2021.1.4,59.87531957832585,
P,left,Distractor,0,28,28,28,3655.347229462568,3657.348439853391,left,1,2,1.0007577373762615,W19A12,2022-12-09_12h42.14.434,t1_Paradigm,2021.1.4,59.87531957832585,
G,left,Pretarget,0,29,29,29,3658.86317611298,3660.8642578616855,left,1,2,0.9265023619082058,W19A12,2022-12-09_12h42.14.434,t1_Paradigm,2021.1.4,59.87531957832585,
K,left,Distractor,0,30,30,30,3662.362536591623,3664.3636334180774,left,1,2,1.3173440695391037,W19A12,2022-12-09_12h42.14.434,t1_Paradigm,2021.1.4,59.87531957832585,
G,right,Target,0,31,31,31,3665.8618515161943,3667.8631289549085,right,1,2,1.3370215018367162,W19A12,2022-12-09_12h42.14.434,t1_Paradigm,2021.1.4,59.87531957832585,
M,left,Pretarget,0,32,32,32,3669.361296686897,3671.361620698226,left,1,2,1.1698342249001144,W19A12,2022-12-09_12h42.14.434,t1_Paradigm,2021.1.4,59.87531957832585,
B,left,Distractor,0,33,33,33,3672.8609022592573,3674.8626669981604,left,1,2,1.033077064959798,W19A12,2022-12-09_12h42.14.434,t1_Paradigm,2021.1.4,59.87531957832585,
M,right,Target,0,34,34,34,3676.36032946498,3678.3621214721643,right,1,2,1.0446160385617986,W19A12,2022-12-09_12h42.14.434,t1_Paradigm,2021.1.4,59.87531957832585,
M,left,Lure,0,35,35,35,3679.859611988417,3681.859307866893,left,1,2,1.286547274386976,W19A12,2022-12-09_12h42.14.434,t1_Paradigm,2021.1.4,59.87531957832585,
T,left,Distractor,0,36,36,36,3683.35822756181,3685.3580440623336,left,1,2,0.8260598137858324,W19A12,2022-12-09_12h42.14.434,t1_Paradigm,2021.1.4,59.87531957832585,
F,left,Distractor,0,37,37,37,3686.8585023298365,3688.870731672112,left,1,2,1.2688710130169056,W19A12,2022-12-09_12h42.14.434,t1_Paradigm,2021.1.4,59.87531957832585,
X,left,Distractor,0,38,38,38,3690.358030588599,3692.358626641115,left,1,2,0.8226070079545025,W19A12,2022-12-09_12h42.14.434,t1_Paradigm,2021.1.4,59.87531957832585,
C,left,Distractor,0,39,39,39,3693.8568825940165,3695.858550450328,left,1,2,0.7726511985965772,W19A12,2022-12-09_12h42.14.434,t1_Paradigm,2021.1.4,59.87531957832585,
R,left,Distractor,0,40,40,40,3697.356689630833,3699.358479713206,left,1,2,0.7667894808546407,W19A12,2022-12-09_12h42.14.434,t1_Paradigm,2021.1.4,59.87531957832585,
B,left,Pretarget,0,41,41,41,3700.856105287632,3702.8578992196417,left,1,2,1.2476238902308978,W19A12,2022-12-09_12h42.14.434,t1_Paradigm,2021.1.4,59.87531957832585,
H,left,Distractor,0,42,42,42,3704.355706047936,3706.357004338861,left,1,2,1.185858028504299,W19A12,2022-12-09_12h42.14.434,t1_Paradigm,2021.1.4,59.87531957832585,
B,right,Target,0,43,43,43,3707.855035408662,3709.856874253135,right,1,2,1.1931838924647309,W19A12,2022-12-09_12h42.14.434,t1_Paradigm,2021.1.4,59.87531957832585,
W,left,Pretarget,0,44,44,44,3711.3544452910137,3713.3553002317785,left,1,2,1.127920633269241,W19A12,2022-12-09_12h42.14.434,t1_Paradigm,2021.1.4,59.87531957832585,
L,left,Pretarget,0,45,45,45,3714.853922542039,3716.8531680127053,left,1,2,1.0922447408374865,W19A12,2022-12-09_12h42.14.434,t1_Paradigm,2021.1.4,59.87531957832585,
W,right,Target,0,46,46,46,3718.353228804932,3720.354436950118,right,1,2,1.3014347927237395,W19A12,2022-12-09_12h42.14.434,t1_Paradigm,2021.1.4,59.87531957832585,
L,right,Target,0,47,47,47,3721.853248855128,3723.8538628726383,None,0,2,,W19A12,2022-12-09_12h42.14.434,t1_Paradigm,2021.1.4,59.87531957832585,
W,right,Target,0,48,48,48,3725.352080970755,3727.3534899388032,None,0,2,,W19A12,2022-12-09_12h42.14.434,t1_Paradigm,2021.1.4,59.87531957832585,
X,left,Distractor,0,49,49,49,3728.8515864524816,3730.852410275329,left,1,2,0.6798338239022996,W19A12,2022-12-09_12h42.14.434,t1_Paradigm,2021.1.4,59.87531957832585,
R,left,Distractor,0,50,50,50,3732.350915813193,3734.3524819748563,left,1,2,0.784318814316066,W19A12,2022-12-09_12h42.14.434,t1_Paradigm,2021.1.4,59.87531957832585,
V,left,Pretarget,0,51,51,51,3735.850326978747,3737.8520548252854,left,1,2,0.9468785037752241,W19A12,2022-12-09_12h42.14.434,t1_Paradigm,2021.1.4,59.87531957832585,
Z,left,Distractor,0,52,52,52,3739.3494304939522,3741.3508314419305,left,1,2,0.6895984344882891,W19A12,2022-12-09_12h42.14.434,t1_Paradigm,2021.1.4,59.87531957832585,
V,right,Target,0,53,53,53,3742.8492760271765,3744.85094869553,right,1,2,1.315931572651607,W19A12,2022-12-09_12h42.14.434,t1_Paradigm,2021.1.4,59.87531957832585,
V,left,Lure,0,54,54,54,3746.348853368836,3748.348587743705,right,0,2,1.3906527544895653,W19A12,2022-12-09_12h42.14.434,t1_Paradigm,2021.1.4,59.87531957832585,
N,left,Distractor,0,55,55,55,3749.8481753510714,3751.8493276765075,left,1,2,1.1238252584589645,W19A12,2022-12-09_12h42.14.434,t1_Paradigm,2021.1.4,59.87531957832585,
B,left,Distractor,0,56,56,56,3753.3475801005698,3755.34886491776,left,1,2,1.4127262665715534,W19A12,2022-12-09_12h42.14.434,t1_Paradigm,2021.1.4,59.87531957832585,
V,left,Lure,0,57,57,57,3756.863546640787,3758.8761519645195,right,0,2,1.0212089472042862,W19A12,2022-12-09_12h42.14.434,t1_Paradigm,2021.1.4,59.87531957832585,
J,left,Distractor,0,58,58,58,3760.363085165256,3762.3629510694736,left,1,2,0.9599104958761018,W19A12,2022-12-09_12h42.14.434,t1_Paradigm,2021.1.4,59.87531957832585,
H,left,Distractor,0,59,59,59,3763.862518787035,3765.8627189682884,left,1,2,1.0808722641522763,W19A12,2022-12-09_12h42.14.434,t1_Paradigm,2021.1.4,59.87531957832585,
X,left,Pretarget,0,60,60,60,3767.3615943923505,3769.362980583377,right,0,2,0.8836260396055877,W19A12,2022-12-09_12h42.14.434,t1_Paradigm,2021.1.4,59.87531957832585,
P,left,Distractor,0,61,61,61,3770.8607960733643,3772.862607328745,left,1,2,0.6504177660972346,W19A12,2022-12-09_12h42.14.434,t1_Paradigm,2021.1.4,59.87531957832585,
X,right,Target,0,62,62,62,3774.3608004042035,3776.360552744067,right,1,2,0.7819705342117231,W19A12,2022-12-09_12h42.14.434,t1_Paradigm,2021.1.4,59.87531957832585,
Q,left,Distractor,0,63,63,63,3777.86009287255,3779.8621126500802,left,1,2,1.4357994017045712,W19A12,2022-12-09_12h42.14.434,t1_Paradigm,2021.1.4,59.87531957832585,
B,left,Pretarget,0,0,0,0,3791.7408839734708,3793.74325118096,None,0,2,,W19A12,2022-12-09_12h42.14.434,t1_Paradigm,2021.1.4,59.87531957832585,
F,left,Distractor,0,1,1,1,3795.240633907306,3797.241157779077,None,0,2,,W19A12,2022-12-09_12h42.14.434,t1_Paradigm,2021.1.4,59.87531957832585,
B,right,Target,0,2,2,2,3798.7400928725547,3800.741215684073,right,1,2,0.9349590574856848,W19A12,2022-12-09_12h42.14.434,t1_Paradigm,2021.1.4,59.87531957832585,
V,left,Distractor,0,3,3,3,3802.238883283746,3804.2407522837166,left,1,2,1.154337180312723,W19A12,2022-12-09_12h42.14.434,t1_Paradigm,2021.1.4,59.87531957832585,
G,left,Pretarget,0,4,4,4,3805.7389302814263,3807.740853817959,left,1,2,0.8145596573885996,W19A12,2022-12-09_12h42.14.434,t1_Paradigm,2021.1.4,59.87531957832585,
B,left,Lure,0,5,5,5,3809.2387966668466,3811.239513662207,right,0,2,0.5697565904993098,W19A12,2022-12-09_12h42.14.434,t1_Paradigm,2021.1.4,59.87531957832585,
G,right,Target,0,6,6,6,3812.7377988082153,3814.7392876562953,right,1,2,0.805239038541913,W19A12,2022-12-09_12h42.14.434,t1_Paradigm,2021.1.4,59.87531957832585,
Y,left,Pretarget,0,7,7,7,3816.236833350704,3818.237651399104,left,1,2,0.6178883123357082,W19A12,2022-12-09_12h42.14.434,t1_Paradigm,2021.1.4,59.87531957832585,
P,left,Distractor,0,8,8,8,3819.737025672279,3821.7382062284014,left,1,2,0.689624419552274,W19A12,2022-12-09_12h42.14.434,t1_Paradigm,2021.1.4,59.87531957832585,
Y,right,Target,0,9,9,9,3823.236679365131,3825.2383068002237,right,1,2,0.6797747960954439,W19A12,2022-12-09_12h42.14.434,t1_Paradigm,2021.1.4,59.87531957832585,
X,left,Distractor,0,10,10,10,3826.7355156511912,3828.7369384137855,left,1,2,1.2422568511537975,W19A12,2022-12-09_12h42.14.434,t1_Paradigm,2021.1.4,59.87531957832585,
Y,right,Target,0,11,11,11,3830.235207198828,3832.236997601998,right,1,2,0.8780078115523793,W19A12,2022-12-09_12h42.14.434,t1_Paradigm,2021.1.4,59.87531957832585,
N,left,Distractor,0,12,12,12,3833.73459815378,3835.735947452413,left,1,2,0.8941320265876129,W19A12,2022-12-09_12h42.14.434,t1_Paradigm,2021.1.4,59.87531957832585,
Y,right,Target,0,13,13,13,3837.234068347141,3839.2357846447558,right,1,2,1.0234135074279038,W19A12,2022-12-09_12h42.14.434,t1_Paradigm,2021.1.4,59.87531957832585,
Y,left,Lure,0,14,14,14,3840.7335080641933,3842.7332273613138,right,0,2,1.322543970105471,W19A12,2022-12-09_12h42.14.434,t1_Paradigm,2021.1.4,59.87531957832585,
K,left,Distractor,0,15,15,15,3844.232757544887,3846.2349207214866,left,1,2,0.5526256947341608,W19A12,2022-12-09_12h42.14.434,t1_Paradigm,2021.1.4,59.87531957832585,
T,left,Pretarget,0,16,16,16,3847.7320602789405,3849.7335356532712,left,1,2,0.568938862910727,W19A12,2022-12-09_12h42.14.434,t1_Paradigm,2021.1.4,59.87531957832585,
J,left,Distractor,0,17,17,17,3851.231435193724,3853.2327014043112,left,1,2,0.878377376953722,W19A12,2022-12-09_12h42.14.434,t1_Paradigm,2021.1.4,59.87531957832585,
T,right,Target,0,18,18,18,3854.730408462783,3856.732784973574,right,1,2,0.9015076150681125,W19A12,2022-12-09_12h42.14.434,t1_Paradigm,2021.1.4,59.87531957832585,
S,left,Pretarget,0,19,19,19,3858.2303698059986,3860.2296836077585,left,1,2,0.8867955761234043,W19A12,2022-12-09_12h42.14.434,t1_Paradigm,2021.1.4,59.87531957832585,
R,left,Distractor,0,20,20,20,3861.729644630148,3863.728999494735,left,1,2,1.1434574574814178,W19A12,2022-12-09_12h42.14.434,t1_Paradigm,2021.1.4,59.87531957832585,
S,right,Target,0,21,21,21,3865.22942022825,3867.231379373945,right,1,2,1.3600083408819046,W19A12,2022-12-09_12h42.14.434,t1_Paradigm,2021.1.4,59.87531957832585,
Q,left,Distractor,0,22,22,22,3868.728641799069,3870.729469150756,left,1,2,1.1080131850176258,W19A12,2022-12-09_12h42.14.434,t1_Paradigm,2021.1.4,59.87531957832585,
D,left,Distractor,0,23,23,23,3872.228145035173,3874.2292684882996,left,1,2,0.854463416399085,W19A12,2022-12-09_12h42.14.434,t1_Paradigm,2021.1.4,59.87531957832585,
F,left,Distractor,0,24,24,24,3875.727837545215,3877.7296077377687,left,1,2,0.9663881559390575,W19A12,2022-12-09_12h42.14.434,t1_Paradigm,2021.1.4,59.87531957832585,
Z,left,Distractor,0,25,25,25,3879.2271954574244,3881.228378259155,left,1,2,1.1948270469292765,W19A12,2022-12-09_12h42.14.434,t1_Paradigm,2021.1.4,59.87531957832585,
P,left,Distractor,0,26,26,26,3882.726648969023,3884.7256313809776,left,1,2,0.8003740566346096,W19A12,2022-12-09_12h42.14.434,t1_Paradigm,2021.1.4,59.87531957832585,
H,left,Distractor,0,27,27,27,3886.225827231392,3888.2269554965605,left,1,2,1.2467554757022299,W19A12,2022-12-09_12h42.14.434,t1_Paradigm,2021.1.4,59.87531957832585,
Z,left,Pretarget,0,28,28,28,3889.74189418304,3891.7438222108176,right,0,2,1.0368619022046914,W19A12,2022-12-09_12h42.14.434,t1_Paradigm,2021.1.4,59.87531957832585,
J,left,Pretarget,0,29,29,29,3893.241975185869,3895.242161572576,None,0,2,,W19A12,2022-12-09_12h42.14.434,t1_Paradigm,2021.1.4,59.87531957832585,
Z,right,Target,0,30,30,30,3896.7408788406174,3898.7410209564696,right,1,2,1.2412020499323262,W19A12,2022-12-09_12h42.14.434,t1_Paradigm,2021.1.4,59.87531957832585,
J,right,Target,0,31,31,31,3900.240678498958,3902.239545100936,right,1,2,0.9923597488086671,W19A12,2022-12-09_12h42.14.434,t1_Paradigm,2021.1.4,59.87531957832585,
V,left,Pretarget,0,32,32,32,3903.7395587350766,3905.7394297721476,left,1,2,1.423688756651245,W19A12,2022-12-09_12h42.14.434,t1_Paradigm,2021.1.4,59.87531957832585,
Z,left,Lure,0,33,33,33,3907.238888095788,3909.2402383568406,right,0,2,1.3076477900758618,W19A12,2022-12-09_12h42.14.434,t1_Paradigm,2021.1.4,59.87531957832585,
V,right,Target,0,34,34,34,3910.738576114585,3912.739762445155,right,1,2,0.9605886740464484,W19A12,2022-12-09_12h42.14.434,t1_Paradigm,2021.1.4,59.87531957832585,
X,left,Distractor,0,35,35,35,3914.237754697766,3916.2395775020705,left,1,2,1.3422987159865443,W19A12,2022-12-09_12h42.14.434,t1_Paradigm,2021.1.4,59.87531957832585,
S,left,Distractor,0,36,36,36,3917.737308620781,3919.739372669166,None,0,2,,W19A12,2022-12-09_12h42.14.434,t1_Paradigm,2021.1.4,59.87531957832585,
Q,left,Distractor,0,37,37,37,3921.2369270252675,3923.2377283918904,left,1,2,1.0686512627580669,W19A12,2022-12-09_12h42.14.434,t1_Paradigm,2021.1.4,59.87531957832585,
P,left,Distractor,0,38,38,38,3924.736176826773,3926.7352638206066,left,1,2,1.4536857892235275,W19A12,2022-12-09_12h42.14.434,t1_Paradigm,2021.1.4,59.87531957832585,
S,left,Lure,0,39,39,39,3928.2356341880077,3930.2364900911925,right,0,2,1.1370324091549264,W19A12,2022-12-09_12h42.14.434,t1_Paradigm,2021.1.4,59.87531957832585,
K,left,Pretarget,0,40,40,40,3931.735200622352,3933.7371478983405,left,1,2,1.0008802842348814,W19A12,2022-12-09_12h42.14.434,t1_Paradigm,2021.1.4,59.87531957832585,
L,left,Distractor,0,41,41,41,3935.2345072060416,3937.236819556172,left,1,2,1.0123692125052912,W19A12,2022-12-09_12h42.14.434,t1_Paradigm,2021.1.4,59.87531957832585,
K,right,Target,0,42,42,42,3938.7338522861246,3940.7353276604554,right,1,2,1.1022018333896995,W19A12,2022-12-09_12h42.14.434,t1_Paradigm,2021.1.4,59.87531957832585,
B,left,Distractor,0,43,43,43,3942.233297456827,3944.2343426339503,left,1,2,0.9712569874973269,W19A12,2022-12-09_12h42.14.434,t1_Paradigm,2021.1.4,59.87531957832585,
N,left,Distractor,0,44,44,44,3945.7324147665786,3947.7336617289693,left,1,2,0.8693810902477708,W19A12,2022-12-09_12h42.14.434,t1_Paradigm,2021.1.4,59.87531957832585,
S,left,Pretarget,0,45,45,45,3949.232195818331,3951.233832877522,left,1,2,0.6557742186414544,W19A12,2022-12-09_12h42.14.434,t1_Paradigm,2021.1.4,59.87531957832585,
Z,left,Distractor,0,46,46,46,3952.731551805715,3954.7333800636843,left,1,2,0.6101617650565458,W19A12,2022-12-09_12h42.14.434,t1_Paradigm,2021.1.4,59.87531957832585,
S,right,Target,0,47,47,47,3956.2309360237996,3958.2328691844305,right,1,2,0.8547838988743024,W19A12,2022-12-09_12h42.14.434,t1_Paradigm,2021.1.4,59.87531957832585,
C,left,Distractor,0,48,48,48,3959.73046749059,3961.731957621887,left,1,2,0.9934151916386327,W19A12,2022-12-09_12h42.14.434,t1_Paradigm,2021.1.4,59.87531957832585,
T,left,Pretarget,0,49,49,49,3963.2301763616124,3965.231395734925,left,1,2,1.2697589965246152,W19A12,2022-12-09_12h42.14.434,t1_Paradigm,2021.1.4,59.87531957832585,
S,left,Lure,0,50,50,50,3966.7286655385105,3968.730541916957,right,0,2,0.9921367905189982,W19A12,2022-12-09_12h42.14.434,t1_Paradigm,2021.1.4,59.87531957832585,
T,right,Target,0,51,51,51,3970.228636826607,3972.227667038256,right,1,2,0.969399536435958,W19A12,2022-12-09_12h42.14.434,t1_Paradigm,2021.1.4,59.87531957832585,
N,left,Pretarget,0,52,52,52,3973.728208714616,3975.7275199499563,None,0,2,,W19A12,2022-12-09_12h42.14.434,t1_Paradigm,2021.1.4,59.87531957832585,
B,left,Distractor,0,53,53,53,3977.227633033108,3979.2289281160047,None,0,2,,W19A12,2022-12-09_12h42.14.434,t1_Paradigm,2021.1.4,59.87531957832585,
N,right,Target,0,54,54,54,3980.7271548758144,3982.72823469968,right,1,2,0.981946794767282,W19A12,2022-12-09_12h42.14.434,t1_Paradigm,2021.1.4,59.87531957832585,
N,left,Lure,0,55,55,55,3984.2264868029597,3986.2260437736113,right,0,2,1.0850224963360233,W19A12,2022-12-09_12h42.14.434,t1_Paradigm,2021.1.4,59.87531957832585,
X,left,Distractor,0,56,56,56,3987.7259085550177,3989.7280162326497,left,1,2,1.367203317102394,W19A12,2022-12-09_12h42.14.434,t1_Paradigm,2021.1.4,59.87531957832585,
W,left,Distractor,0,57,57,57,3991.2420002085273,3993.2435609165404,left,1,2,1.444753663163283,W19A12,2022-12-09_12h42.14.434,t1_Paradigm,2021.1.4,59.87531957832585,
S,left,Distractor,0,58,58,58,3994.741010049169,3996.741867235556,None,0,2,,W19A12,2022-12-09_12h42.14.434,t1_Paradigm,2021.1.4,59.87531957832585,
L,left,Distractor,0,59,59,59,3998.240887983513,4000.2531542181678,left,1,2,1.2861658392648678,W19A12,2022-12-09_12h42.14.434,t1_Paradigm,2021.1.4,59.87531957832585,
K,left,Pretarget,0,60,60,60,4001.740427149576,4003.742163657793,left,1,2,1.3691428938036552,W19A12,2022-12-09_12h42.14.434,t1_Paradigm,2021.1.4,59.87531957832585,
V,left,Pretarget,0,61,61,61,4005.2397427157557,4007.2416508537426,left,1,2,0.8708474820887204,W19A12,2022-12-09_12h42.14.434,t1_Paradigm,2021.1.4,59.87531957832585,
K,right,Target,0,62,62,62,4008.739127575449,4010.739930546086,right,1,2,0.5860052772186464,W19A12,2022-12-09_12h42.14.434,t1_Paradigm,2021.1.4,59.87531957832585,
V,right,Target,0,63,63,63,4012.2385480443045,4014.240404532946,right,1,2,1.1392632752540521,W19A12,2022-12-09_12h42.14.434,t1_Paradigm,2021.1.4,59.87531957832585,
R,left,Distractor,0,0,0,0,4056.913386319342,4058.9160993527767,left,1,3,1.047396761496202,W19A12,2022-12-09_12h42.14.434,t1_Paradigm,2021.1.4,59.87531957832585,
P,left,Lure,0,1,1,1,4060.414003384474,4062.415575641411,left,1,3,0.5364950636430876,W19A12,2022-12-09_12h42.14.434,t1_Paradigm,2021.1.4,59.87531957832585,
V,left,Distractor,0,2,2,2,4063.913127431093,4065.9146650412586,left,1,3,0.5199111374968197,W19A12,2022-12-09_12h42.14.434,t1_Paradigm,2021.1.4,59.87531957832585,
P,left,Pretarget,0,3,3,3,4067.412887951432,4069.4146058530605,left,1,3,1.2364127775945235,W19A12,2022-12-09_12h42.14.434,t1_Paradigm,2021.1.4,59.87531957832585,
Z,left,Distractor,0,4,4,4,4070.912249071669,4072.912294946538,left,1,3,0.6994557572179474,W19A12,2022-12-09_12h42.14.434,t1_Paradigm,2021.1.4,59.87531957832585,
L,left,Pretarget,0,5,5,5,4074.4117426836747,4076.412892442677,left,1,3,0.8649796691024676,W19A12,2022-12-09_12h42.14.434,t1_Paradigm,2021.1.4,59.87531957832585,
P,right,Target,0,6,6,6,4077.9111054079403,4079.9124405912444,right,1,3,0.6605176161101554,W19A12,2022-12-09_12h42.14.434,t1_Paradigm,2021.1.4,59.87531957832585,
S,left,Distractor,0,7,7,7,4081.4105255559843,4083.411828017357,left,1,3,1.2108822892478202,W19A12,2022-12-09_12h42.14.434,t1_Paradigm,2021.1.4,59.87531957832585,
L,right,Target,0,8,8,8,4084.9099319094967,4086.9115198857908,right,1,3,1.1813577999273548,W19A12,2022-12-09_12h42.14.434,t1_Paradigm,2021.1.4,59.87531957832585,
D,left,Distractor,0,9,9,9,4088.409680239318,4090.410900254239,left,1,3,0.6907533263292862,W19A12,2022-12-09_12h42.14.434,t1_Paradigm,2021.1.4,59.87531957832585,
G,left,Distractor,0,10,10,10,4091.908862672135,4093.91004354904,left,1,3,0.9677397002087673,W19A12,2022-12-09_12h42.14.434,t1_Paradigm,2021.1.4,59.87531957832585,
M,left,Pretarget,0,11,11,11,4095.408279612151,4097.410045634271,left,1,3,0.9258402239211136,W19A12,2022-12-09_12h42.14.434,t1_Paradigm,2021.1.4,59.87531957832585,
Y,left,Distractor,0,12,12,12,4098.907673454334,4100.909235766361,left,1,3,0.7951760809082771,W19A12,2022-12-09_12h42.14.434,t1_Paradigm,2021.1.4,59.87531957832585,
V,left,Distractor,0,13,13,13,4102.406760287762,4104.408790010188,left,1,3,0.9493339321634267,W19A12,2022-12-09_12h42.14.434,t1_Paradigm,2021.1.4,59.87531957832585,
M,right,Target,0,14,14,14,4105.90652690336,4107.908333988307,right,1,3,0.6062129973433912,W19A12,2022-12-09_12h42.14.434,t1_Paradigm,2021.1.4,59.87531957832585,
S,left,Pretarget,0,15,15,15,4109.406302822259,4111.405227168827,left,1,3,1.0933794220763957,W19A12,2022-12-09_12h42.14.434,t1_Paradigm,2021.1.4,59.87531957832585,
Q,left,Distractor,0,16,16,16,4112.905338327168,4114.906604858566,left,1,3,0.8911729370302055,W19A12,2022-12-09_12h42.14.434,t1_Paradigm,2021.1.4,59.87531957832585,
R,left,Pretarget,0,17,17,17,4116.404825202306,4118.406031422681,None,0,3,,W19A12,2022-12-09_12h42.14.434,t1_Paradigm,2021.1.4,59.87531957832585,
S,right,Target,0,18,18,18,4119.904091364777,4121.905672283392,None,0,3,,W19A12,2022-12-09_12h42.14.434,t1_Paradigm,2021.1.4,59.87531957832585,
F,left,Distractor,0,19,19,19,4123.40372003497,4125.404412649266,left,1,3,1.1429695156693924,W19A12,2022-12-09_12h42.14.434,t1_Paradigm,2021.1.4,59.87531957832585,
R,right,Target,0,20,20,20,4126.903070247892,4128.903070568704,right,1,3,1.1350723010400543,W19A12,2022-12-09_12h42.14.434,t1_Paradigm,2021.1.4,59.87531957832585,
P,left,Distractor,0,21,21,21,4130.4025782960525,4132.40413707924,right,0,3,0.9660282146505779,W19A12,2022-12-09_12h42.14.434,t1_Paradigm,2021.1.4,59.87531957832585,
L,left,Distractor,0,22,22,22,4133.902038865315,4135.90317194254,left,1,3,1.1127209733240306,W19A12,2022-12-09_12h42.14.434,t1_Paradigm,2021.1.4,59.87531957832585,
R,right,Target,0,23,23,23,4137.401264927379,4139.4033767754445,right,1,3,1.2986640146846185,W19A12,2022-12-09_12h42.14.434,t1_Paradigm,2021.1.4,59.87531957832585,
H,left,Pretarget,0,24,24,24,4140.900785807666,4142.912986277632,left,1,3,1.0352755299245473,W19A12,2022-12-09_12h42.14.434,t1_Paradigm,2021.1.4,59.87531957832585,
G,left,Pretarget,0,25,25,25,4144.399731487647,4146.402122755375,left,1,3,0.9552912492945325,W19A12,2022-12-09_12h42.14.434,t1_Paradigm,2021.1.4,59.87531957832585,
T,left,Distractor,0,26,26,26,4147.899833984295,4149.901207984789,None,0,3,,W19A12,2022-12-09_12h42.14.434,t1_Paradigm,2021.1.4,59.87531957832585,
H,right,Target,0,27,27,27,4151.398319953165,4153.400227449529,right,1,3,1.1709839838877087,W19A12,2022-12-09_12h42.14.434,t1_Paradigm,2021.1.4,59.87531957832585,
G,right,Target,0,28,28,28,4154.898547883902,4156.900170186142,right,1,3,0.8399412930011749,W19A12,2022-12-09_12h42.14.434,t1_Paradigm,2021.1.4,59.87531957832585,
D,left,Distractor,0,29,29,29,4158.414641141411,4160.416107533267,right,0,3,0.9450332432315918,W19A12,2022-12-09_12h42.14.434,t1_Paradigm,2021.1.4,59.87531957832585,
N,left,Pretarget,0,30,30,30,4161.9141552848305,4163.9151818553655,left,1,3,0.920496924300096,W19A12,2022-12-09_12h42.14.434,t1_Paradigm,2021.1.4,59.87531957832585,
V,left,Distractor,0,31,31,31,4165.413411502406,4167.412617193448,left,1,3,0.7057556922663935,W19A12,2022-12-09_12h42.14.434,t1_Paradigm,2021.1.4,59.87531957832585,
R,left,Distractor,0,32,32,32,4168.912917625727,4170.914031133958,left,1,3,0.6016386632109061,W19A12,2022-12-09_12h42.14.434,t1_Paradigm,2021.1.4,59.87531957832585,
N,right,Target,0,33,33,33,4172.412358625996,4174.412352851534,None,0,3,,W19A12,2022-12-09_12h42.14.434,t1_Paradigm,2021.1.4,59.87531957832585,
Z,left,Distractor,0,34,34,34,4175.9117386736325,4177.912619599476,left,1,3,1.380185905509279,W19A12,2022-12-09_12h42.14.434,t1_Paradigm,2021.1.4,59.87531957832585,
N,left,Lure,0,35,35,35,4179.411197318084,4181.410471019437,right,0,3,1.0710864805587335,W19A12,2022-12-09_12h42.14.434,t1_Paradigm,2021.1.4,59.87531957832585,
Y,left,Pretarget,0,36,36,36,4182.91059244347,4184.912370014514,left,1,3,1.1089534594648285,W19A12,2022-12-09_12h42.14.434,t1_Paradigm,2021.1.4,59.87531957832585,
Y,left,Lure,0,37,37,37,4186.410154065772,4188.409667727989,left,1,3,1.167685805252404,W19A12,2022-12-09_12h42.14.434,t1_Paradigm,2021.1.4,59.87531957832585,
B,left,Distractor,0,38,38,38,4189.909311475931,4191.910649867263,left,1,3,0.9947086705069523,W19A12,2022-12-09_12h42.14.434,t1_Paradigm,2021.1.4,59.87531957832585,
Y,right,Target,0,39,39,39,4193.408878872695,4195.410727020455,right,1,3,0.7241948238370242,W19A12,2022-12-09_12h42.14.434,t1_Paradigm,2021.1.4,59.87531957832585,
J,left,Distractor,0,40,40,40,4196.907589724666,4198.909879618557,left,1,3,1.0914080858492525,W19A12,2022-12-09_12h42.14.434,t1_Paradigm,2021.1.4,59.87531957832585,
X,left,Distractor,0,41,41,41,4200.407699278992,4202.408656876825,left,1,3,0.9198469768307405,W19A12,2022-12-09_12h42.14.434,t1_Paradigm,2021.1.4,59.87531957832585,
W,left,Pretarget,0,42,42,42,4203.907208931167,4205.908854972848,left,1,3,1.0409527857846115,W19A12,2022-12-09_12h42.14.434,t1_Paradigm,2021.1.4,59.87531957832585,
S,left,Pretarget,0,43,43,43,4207.406018590555,4209.408547162093,left,1,3,0.9055962530255783,W19A12,2022-12-09_12h42.14.434,t1_Paradigm,2021.1.4,59.87531957832585,
R,left,Distractor,0,44,44,44,4210.905974800902,4212.907658697382,left,1,3,0.6605573957203887,W19A12,2022-12-09_12h42.14.434,t1_Paradigm,2021.1.4,59.87531957832585,
W,right,Target,0,45,45,45,4214.405410668318,4216.406575505069,right,1,3,0.9133645047113532,W19A12,2022-12-09_12h42.14.434,t1_Paradigm,2021.1.4,59.87531957832585,
S,right,Target,0,46,46,46,4217.9048776536365,4219.906349819954,right,1,3,0.9614330283075105,W19A12,2022-12-09_12h42.14.434,t1_Paradigm,2021.1.4,59.87531957832585,
D,left,Distractor,0,47,47,47,4221.404380568943,4223.405483811468,left,1,3,0.626679284920101,W19A12,2022-12-09_12h42.14.434,t1_Paradigm,2021.1.4,59.87531957832585,
T,left,Distractor,0,48,48,48,4224.9038533287385,4226.904857443034,left,1,3,0.6834319536137627,W19A12,2022-12-09_12h42.14.434,t1_Paradigm,2021.1.4,59.87531957832585,
S,right,Target,0,49,49,49,4228.4033523943945,4230.404910856785,right,1,3,1.1842783931060694,W19A12,2022-12-09_12h42.14.434,t1_Paradigm,2021.1.4,59.87531957832585,
K,left,Distractor,0,50,50,50,4231.902658657273,4233.904481782389,left,1,3,0.7107111406949116,W19A12,2022-12-09_12h42.14.434,t1_Paradigm,2021.1.4,59.87531957832585,
S,left,Lure,0,51,51,51,4235.402306254866,4237.403576635901,right,0,3,1.1795696423796471,W19A12,2022-12-09_12h42.14.434,t1_Paradigm,2021.1.4,59.87531957832585,
T,left,Pretarget,0,52,52,52,4238.901445379233,4240.913726691637,right,0,3,1.0131179673917359,W19A12,2022-12-09_12h42.14.434,t1_Paradigm,2021.1.4,59.87531957832585,
V,left,Distractor,0,53,53,53,4242.401035232222,4244.4025282507355,left,1,3,0.9657734968350269,W19A12,2022-12-09_12h42.14.434,t1_Paradigm,2021.1.4,59.87531957832585,
B,left,Distractor,0,54,54,54,4245.900363951339,4247.902169111447,left,1,3,0.9121833070093999,W19A12,2022-12-09_12h42.14.434,t1_Paradigm,2021.1.4,59.87531957832585,
T,right,Target,0,55,55,55,4249.399760359942,4251.401647966501,right,1,3,1.0171915275859646,W19A12,2022-12-09_12h42.14.434,t1_Paradigm,2021.1.4,59.87531957832585,
Y,left,Pretarget,0,56,56,56,4252.899132387494,4254.900038335996,left,1,3,0.5901041808683658,W19A12,2022-12-09_12h42.14.434,t1_Paradigm,2021.1.4,59.87531957832585,
T,left,Lure,0,57,57,57,4256.3986494181445,4258.399456559229,left,1,3,1.1359673422120977,W19A12,2022-12-09_12h42.14.434,t1_Paradigm,2021.1.4,59.87531957832585,
P,left,Pretarget,0,58,58,58,4259.914566554653,4261.915801647323,left,1,3,1.0289893894369015,W19A12,2022-12-09_12h42.14.434,t1_Paradigm,2021.1.4,59.87531957832585,
Y,right,Target,0,59,59,59,4263.414155124425,4265.415254517313,right,1,3,0.8936023803544231,W19A12,2022-12-09_12h42.14.434,t1_Paradigm,2021.1.4,59.87531957832585,
R,left,Distractor,0,60,60,60,4266.913555382678,4268.914673382154,left,1,3,1.04835211369209,W19A12,2022-12-09_12h42.14.434,t1_Paradigm,2021.1.4,59.87531957832585,
P,right,Target,0,61,61,61,4270.412974889114,4272.415070376213,right,1,3,1.12007346394239,W19A12,2022-12-09_12h42.14.434,t1_Paradigm,2021.1.4,59.87531957832585,
L,left,Distractor,0,62,62,62,4273.912413002152,4275.913751072687,left,1,3,0.9083076824317686,W19A12,2022-12-09_12h42.14.434,t1_Paradigm,2021.1.4,59.87531957832585,
V,left,Distractor,0,63,63,63,4277.411768668739,4279.414306543578,left,1,3,0.9637781003548298,W19A12,2022-12-09_12h42.14.434,t1_Paradigm,2021.1.4,59.87531957832585,
H,left,Lure,0,0,0,0,4287.545147770012,4289.542799169125,left,1,3,0.5789190533105284,W19A12,2022-12-09_12h42.14.434,t1_Paradigm,2021.1.4,59.87531957832585,
B,left,Distractor,0,1,1,1,4291.042808312006,4293.043741528789,left,1,3,0.805453014356317,W19A12,2022-12-09_12h42.14.434,t1_Paradigm,2021.1.4,59.87531957832585,
T,left,Distractor,0,2,2,2,4294.542368009497,4296.543104573851,left,1,3,0.4135112722287886,W19A12,2022-12-09_12h42.14.434,t1_Paradigm,2021.1.4,59.87531957832585,
R,left,Distractor,0,3,3,3,4298.041836278033,4300.0439388228115,left,1,3,0.6077746677619871,W19A12,2022-12-09_12h42.14.434,t1_Paradigm,2021.1.4,59.87531957832585,
H,left,Pretarget,0,4,4,4,4301.541216004873,4303.541631124332,right,0,3,0.8903006728796754,W19A12,2022-12-09_12h42.14.434,t1_Paradigm,2021.1.4,59.87531957832585,
K,left,Distractor,0,5,5,5,4305.040703200808,4307.04145035168,left,1,3,0.9464345120213693,W19A12,2022-12-09_12h42.14.434,t1_Paradigm,2021.1.4,59.87531957832585,
G,left,Distractor,0,6,6,6,4308.5400688123045,4310.5410729266005,left,1,3,0.631841009890195,W19A12,2022-12-09_12h42.14.434,t1_Paradigm,2021.1.4,59.87531957832585,
H,right,Target,0,7,7,7,4312.0394549552,4314.040684273423,right,1,3,1.2638003961910727,W19A12,2022-12-09_12h42.14.434,t1_Paradigm,2021.1.4,59.87531957832585,
Y,left,Pretarget,0,8,8,8,4315.538946321583,4317.539957172761,left,1,3,0.8023428264423274,W19A12,2022-12-09_12h42.14.434,t1_Paradigm,2021.1.4,59.87531957832585,
S,left,Distractor,0,9,9,9,4319.038415231742,4321.03948029867,left,1,3,1.0792422626254847,W19A12,2022-12-09_12h42.14.434,t1_Paradigm,2021.1.4,59.87531957832585,
P,left,Distractor,0,10,10,10,4322.537828642919,4324.537687168675,left,1,3,0.8103924226306845,W19A12,2022-12-09_12h42.14.434,t1_Paradigm,2021.1.4,59.87531957832585,
Y,right,Target,0,11,11,11,4326.037277663272,4328.037974448016,right,1,3,1.0255272803042317,W19A12,2022-12-09_12h42.14.434,t1_Paradigm,2021.1.4,59.87531957832585,
H,left,Lure,0,12,12,12,4329.536680487945,4331.537052298954,right,0,3,1.0944958175241482,W19A12,2022-12-09_12h42.14.434,t1_Paradigm,2021.1.4,59.87531957832585,
Q,left,Distractor,0,13,13,13,4333.036028455244,4335.037589484069,left,1,3,0.6321399985608878,W19A12,2022-12-09_12h42.14.434,t1_Paradigm,2021.1.4,59.87531957832585,
V,left,Pretarget,0,14,14,14,4336.535513405572,4338.536718984338,left,1,3,0.6402521513955435,W19A12,2022-12-09_12h42.14.434,t1_Paradigm,2021.1.4,59.87531957832585,
G,left,Distractor,0,15,15,15,4340.034893132397,4342.03701909582,left,1,3,0.785797075877781,W19A12,2022-12-09_12h42.14.434,t1_Paradigm,2021.1.4,59.87531957832585,
Z,left,Pretarget,0,16,16,16,4343.534356588891,4345.535182978172,left,1,3,0.680673045309959,W19A12,2022-12-09_12h42.14.434,t1_Paradigm,2021.1.4,59.87531957832585,
V,right,Target,0,17,17,17,4347.033708405841,4349.035772775023,right,1,3,0.8747965706133982,W19A12,2022-12-09_12h42.14.434,t1_Paradigm,2021.1.4,59.87531957832585,
N,left,Distractor,0,18,18,18,4350.533156463789,4352.5348278489255,left,1,3,0.6012216189410537,W19A12,2022-12-09_12h42.14.434,t1_Paradigm,2021.1.4,59.87531957832585,
Z,right,Target,0,19,19,19,4354.032849936237,4356.033644886789,left,0,3,0.8707576571760001,W19A12,2022-12-09_12h42.14.434,t1_Paradigm,2021.1.4,59.87531957832585,
R,left,Distractor,0,20,20,20,4357.532118985939,4359.533473417439,left,1,3,1.314847899149754,W19A12,2022-12-09_12h42.14.434,t1_Paradigm,2021.1.4,59.87531957832585,
P,left,Distractor,0,21,21,21,4361.031866994948,4363.032817535102,left,1,3,1.0329574053466786,W19A12,2022-12-09_12h42.14.434,t1_Paradigm,2021.1.4,59.87531957832585,
Z,right,Target,0,22,22,22,4364.530943883481,4366.531931316014,right,1,3,0.9758168854750693,W19A12,2022-12-09_12h42.14.434,t1_Paradigm,2021.1.4,59.87531957832585,
D,left,Pretarget,0,23,23,23,4368.0302655449195,4370.032285643247,left,1,3,0.8682877926330548,W19A12,2022-12-09_12h42.14.434,t1_Paradigm,2021.1.4,59.87531957832585,
K,left,Distractor,0,24,24,24,4371.529822675977,4373.531879666683,left,1,3,0.7454618364427006,W19A12,2022-12-09_12h42.14.434,t1_Paradigm,2021.1.4,59.87531957832585,
W,left,Distractor,0,25,25,25,4375.029234803951,4377.030351841007,left,1,3,0.6560472222481621,W19A12,2022-12-09_12h42.14.434,t1_Paradigm,2021.1.4,59.87531957832585,
D,right,Target,0,26,26,26,4378.528539462815,4380.5297931620735,right,1,3,0.9084802746074274,W19A12,2022-12-09_12h42.14.434,t1_Paradigm,2021.1.4,59.87531957832585,
G,left,Pretarget,0,27,27,27,4382.044713562762,4384.045965337209,right,0,3,0.8342621123301797,W19A12,2022-12-09_12h42.14.434,t1_Paradigm,2021.1.4,59.87531957832585,
V,left,Distractor,0,28,28,28,4385.544178944081,4387.545402487827,left,1,3,1.1724118793354137,W19A12,2022-12-09_12h42.14.434,t1_Paradigm,2021.1.4,59.87531957832585,
D,right,Target,0,29,29,29,4389.043574390278,4391.043404364522,right,1,3,1.1409593622374814,W19A12,2022-12-09_12h42.14.434,t1_Paradigm,2021.1.4,59.87531957832585,
G,right,Target,0,30,30,30,4392.543040092394,4394.544201079509,left,0,3,1.375453415355878,W19A12,2022-12-09_12h42.14.434,t1_Paradigm,2021.1.4,59.87531957832585,
B,left,Pretarget,0,31,31,31,4396.0423938341555,4398.043509267198,left,1,3,1.2527220961201238,W19A12,2022-12-09_12h42.14.434,t1_Paradigm,2021.1.4,59.87531957832585,
N,left,Distractor,0,32,32,32,4399.541554131545,4401.543004804029,left,1,3,0.6729869192349724,W19A12,2022-12-09_12h42.14.434,t1_Paradigm,2021.1.4,59.87531957832585,
F,left,Distractor,0,33,33,33,4403.041283533967,4405.042740622521,left,1,3,0.7004890646203421,W19A12,2022-12-09_12h42.14.434,t1_Paradigm,2021.1.4,59.87531957832585,
B,right,Target,0,34,34,34,4406.540638558945,4408.541898995085,right,1,3,0.7491388837661361,W19A12,2022-12-09_12h42.14.434,t1_Paradigm,2021.1.4,59.87531957832585,
Q,left,Pretarget,0,35,35,35,4410.040147890322,4412.04087066013,left,1,3,0.9529593301558634,W19A12,2022-12-09_12h42.14.434,t1_Paradigm,2021.1.4,59.87531957832585,
S,left,Pretarget,0,36,36,36,4413.53951542663,4415.540582097572,left,1,3,0.6506760127376765,W19A12,2022-12-09_12h42.14.434,t1_Paradigm,2021.1.4,59.87531957832585,
W,left,Distractor,0,37,37,37,4417.039003905782,4419.040200822856,left,1,3,0.7196410211181501,W19A12,2022-12-09_12h42.14.434,t1_Paradigm,2021.1.4,59.87531957832585,
Q,right,Target,0,38,38,38,4420.538445547645,4422.540029032694,right,1,3,1.0293531803617952,W19A12,2022-12-09_12h42.14.434,t1_Paradigm,2021.1.4,59.87531957832585,
S,right,Target,0,39,39,39,4424.037865054095,4426.039364167882,right,1,3,1.0411176786583383,W19A12,2022-12-09_12h42.14.434,t1_Paradigm,2021.1.4,59.87531957832585,
T,left,Distractor,0,40,40,40,4427.537275898852,4429.538636425612,left,1,3,0.7800136341393227,W19A12,2022-12-09_12h42.14.434,t1_Paradigm,2021.1.4,59.87531957832585,
G,left,Distractor,0,41,41,41,4431.036344125692,4433.038380264174,right,0,3,0.8936193829285912,W19A12,2022-12-09_12h42.14.434,t1_Paradigm,2021.1.4,59.87531957832585,
D,left,Distractor,0,42,42,42,4434.536150200103,4436.536899275787,right,0,3,1.1959171365015209,W19A12,2022-12-09_12h42.14.434,t1_Paradigm,2021.1.4,59.87531957832585,
S,left,Lure,0,43,43,43,4438.0355886339385,4440.037434856873,left,1,3,0.9577681715018116,W19A12,2022-12-09_12h42.14.434,t1_Paradigm,2021.1.4,59.87531957832585,
Z,left,Pretarget,0,44,44,44,4441.535021293312,4443.534769783539,left,1,3,0.7025187870458467,W19A12,2022-12-09_12h42.14.434,t1_Paradigm,2021.1.4,59.87531957832585,
J,left,Distractor,0,45,45,45,4445.034392358459,4447.035600182862,left,1,3,0.6355180572136305,W19A12,2022-12-09_12h42.14.434,t1_Paradigm,2021.1.4,59.87531957832585,
M,left,Pretarget,0,46,46,46,4448.533808015272,4450.535009423591,left,1,3,0.5821296526410151,W19A12,2022-12-09_12h42.14.434,t1_Paradigm,2021.1.4,59.87531957832585,
Z,right,Target,0,47,47,47,4452.0331964037905,4454.0346624748345,right,1,3,0.5743585137097398,W19A12,2022-12-09_12h42.14.434,t1_Paradigm,2021.1.4,59.87531957832585,
P,left,Distractor,0,48,48,48,4455.53273492826,4457.533452565229,left,1,3,1.1857791108923266,W19A12,2022-12-09_12h42.14.434,t1_Paradigm,2021.1.4,59.87531957832585,
M,right,Target,0,49,49,49,4459.032334726158,4461.033997770413,None,0,3,,W19A12,2022-12-09_12h42.14.434,t1_Paradigm,2021.1.4,59.87531957832585,
K,left,Distractor,0,50,50,50,4462.531549239298,4464.533208754714,left,1,3,0.8583897278731456,W19A12,2022-12-09_12h42.14.434,t1_Paradigm,2021.1.4,59.87531957832585,
Y,left,Distractor,0,51,51,51,4466.031103483125,4468.032538436237,right,0,3,1.200406136966194,W19A12,2022-12-09_12h42.14.434,t1_Paradigm,2021.1.4,59.87531957832585,
X,left,Distractor,0,52,52,52,4469.530350397399,4471.5294341831905,left,1,3,0.8234192818781594,W19A12,2022-12-09_12h42.14.434,t1_Paradigm,2021.1.4,59.87531957832585,
F,left,Pretarget,0,53,53,53,4473.029822515571,4475.031695365193,left,1,3,1.089549672382418,W19A12,2022-12-09_12h42.14.434,t1_Paradigm,2021.1.4,59.87531957832585,
M,left,Lure,0,54,54,54,4476.5292785936035,4478.530378307274,right,0,3,1.396126300256583,W19A12,2022-12-09_12h42.14.434,t1_Paradigm,2021.1.4,59.87531957832585,
V,left,Distractor,0,55,55,55,4480.028758411063,4482.029654093843,left,1,3,0.771698733617086,W19A12,2022-12-09_12h42.14.434,t1_Paradigm,2021.1.4,59.87531957832585,
F,right,Target,0,56,56,56,4483.5446681690955,4485.546114029523,right,1,3,0.8280426989222178,W19A12,2022-12-09_12h42.14.434,t1_Paradigm,2021.1.4,59.87531957832585,
S,left,Distractor,0,57,57,57,4487.044080617867,4489.044858245048,left,1,3,0.9099829172191676,W19A12,2022-12-09_12h42.14.434,t1_Paradigm,2021.1.4,59.87531957832585,
D,left,Distractor,0,58,58,58,4490.543584174768,4492.5445392061665,left,1,3,0.615922429758939,W19A12,2022-12-09_12h42.14.434,t1_Paradigm,2021.1.4,59.87531957832585,
F,right,Target,0,59,59,59,4494.043060142591,4496.042839750735,left,0,3,0.5843146438564872,W19A12,2022-12-09_12h42.14.434,t1_Paradigm,2021.1.4,59.87531957832585,
V,left,Pretarget,0,60,60,60,4497.542557925044,4499.543912998139,right,0,3,0.5576568527612835,W19A12,2022-12-09_12h42.14.434,t1_Paradigm,2021.1.4,59.87531957832585,
J,left,Distractor,0,61,61,61,4501.04177436301,4503.041646362486,left,1,3,0.6530890950962203,W19A12,2022-12-09_12h42.14.434,t1_Paradigm,2021.1.4,59.87531957832585,
V,left,Lure,0,62,62,62,4504.541342080571,4506.542453022368,right,0,3,1.1570136421651114,W19A12,2022-12-09_12h42.14.434,t1_Paradigm,2021.1.4,59.87531957832585,
V,right,Target,0,63,63,63,4508.0407307899,4510.040435009258,right,1,3,0.6237926969042746,W19A12,2022-12-09_12h42.14.434,t1_Paradigm,2021.1.4,59.87531957832585,
R,left,Distractor,0,0,0,0,4546.501219533704,4548.502991330286,None,0,4,,W19A12,2022-12-09_12h42.14.434,t1_Paradigm,2021.1.4,59.87531957832585,
F,left,Distractor,0,1,1,1,4550.000533816681,4552.001430782679,left,1,4,0.7616396256198641,W19A12,2022-12-09_12h42.14.434,t1_Paradigm,2021.1.4,59.87531957832585,
P,left,Pretarget,0,2,2,2,4553.499995669161,4555.500855421982,left,1,4,0.49615693697705865,W19A12,2022-12-09_12h42.14.434,t1_Paradigm,2021.1.4,59.87531957832585,
H,left,Distractor,0,3,3,3,4556.999438594241,4559.0003066879435,left,1,4,0.5037015887792222,W19A12,2022-12-09_12h42.14.434,t1_Paradigm,2021.1.4,59.87531957832585,
Z,left,Distractor,0,4,4,4,4560.498767954952,4562.499471476578,left,1,4,0.6300320001319051,W19A12,2022-12-09_12h42.14.434,t1_Paradigm,2021.1.4,59.87531957832585,
T,left,Distractor,0,5,5,5,4563.998041495899,4565.999349090125,left,1,4,0.6782942888967227,W19A12,2022-12-09_12h42.14.434,t1_Paradigm,2021.1.4,59.87531957832585,
P,right,Target,0,6,6,6,4567.497810036322,4569.498366309243,right,1,4,1.1595813517051283,W19A12,2022-12-09_12h42.14.434,t1_Paradigm,2021.1.4,59.87531957832585,
G,left,Distractor,0,7,7,7,4570.996921892423,4572.998937178694,left,1,4,0.6810522347950609,W19A12,2022-12-09_12h42.14.434,t1_Paradigm,2021.1.4,59.87531957832585,
L,left,Distractor,0,8,8,8,4574.496652578047,4576.498142709344,left,1,4,0.6974715888645733,W19A12,2022-12-09_12h42.14.434,t1_Paradigm,2021.1.4,59.87531957832585,
P,left,Lure,0,9,9,9,4577.996070159672,4579.997780362028,right,0,4,1.3248543954105116,W19A12,2022-12-09_12h42.14.434,t1_Paradigm,2021.1.4,59.87531957832585,
Q,left,Pretarget,0,10,10,10,4581.495390217096,4583.496070961686,left,1,4,0.9705701476486865,W19A12,2022-12-09_12h42.14.434,t1_Paradigm,2021.1.4,59.87531957832585,
D,left,Distractor,0,11,11,11,4584.994907889355,4586.993949970725,left,1,4,0.9187652281252667,W19A12,2022-12-09_12h42.14.434,t1_Paradigm,2021.1.4,59.87531957832585,
M,left,Pretarget,0,12,12,12,4588.494152558007,4590.495286918449,left,1,4,0.7536336586781545,W19A12,2022-12-09_12h42.14.434,t1_Paradigm,2021.1.4,59.87531957832585,
C,left,Distractor,0,13,13,13,4591.993744977415,4593.994856881633,left,1,4,0.7817774106370052,W19A12,2022-12-09_12h42.14.434,t1_Paradigm,2021.1.4,59.87531957832585,
Q,right,Target,0,14,14,14,4595.493060543595,4597.494287295383,right,1,4,0.8751590783213032,W19A12,2022-12-09_12h42.14.434,t1_Paradigm,2021.1.4,59.87531957832585,
R,left,Distractor,0,15,15,15,4598.992580140664,4600.993931043326,left,1,4,0.5564567276451271,W19A12,2022-12-09_12h42.14.434,t1_Paradigm,2021.1.4,59.87531957832585,
M,right,Target,0,16,16,16,4602.492022103339,4604.493085245456,left,0,4,0.4586296887428034,W19A12,2022-12-09_12h42.14.434,t1_Paradigm,2021.1.4,59.87531957832585,
S,left,Distractor,0,17,17,17,4605.991414983117,4607.992905435211,left,1,4,0.678255792503478,W19A12,2022-12-09_12h42.14.434,t1_Paradigm,2021.1.4,59.87531957832585,
Z,left,Distractor,0,18,18,18,4609.491259233124,4611.492196941137,left,1,4,0.6209141289873514,W19A12,2022-12-09_12h42.14.434,t1_Paradigm,2021.1.4,59.87531957832585,
L,left,Pretarget,0,19,19,19,4612.99012631629,4614.992298154582,left,1,4,0.7018431753094774,W19A12,2022-12-09_12h42.14.434,t1_Paradigm,2021.1.4,59.87531957832585,
M,right,Target,0,20,20,20,4616.489546464349,4618.491199242897,right,1,4,1.2487114133837167,W19A12,2022-12-09_12h42.14.434,t1_Paradigm,2021.1.4,59.87531957832585,
P,left,Distractor,0,21,21,21,4619.989203044417,4621.990975161811,left,1,4,1.0406249248044332,W19A12,2022-12-09_12h42.14.434,t1_Paradigm,2021.1.4,59.87531957832585,
F,left,Distractor,0,22,22,22,4623.488415632746,4625.48923432274,right,0,4,1.2249434183177073,W19A12,2022-12-09_12h42.14.434,t1_Paradigm,2021.1.4,59.87531957832585,
L,right,Target,0,23,23,23,4626.987802096453,4628.989952440912,left,0,4,0.7544706344633596,W19A12,2022-12-09_12h42.14.434,t1_Paradigm,2021.1.4,59.87531957832585,
L,left,Lure,0,24,24,24,4630.48742050094,4632.4870364993985,left,1,4,1.148100764316041,W19A12,2022-12-09_12h42.14.434,t1_Paradigm,2021.1.4,59.87531957832585,
V,left,Pretarget,0,25,25,25,4633.986852197908,4635.987807870901,left,1,4,1.0322971921705175,W19A12,2022-12-09_12h42.14.434,t1_Paradigm,2021.1.4,59.87531957832585,
Z,left,Distractor,0,26,26,26,4637.4864192738605,4639.488211281045,right,0,4,1.1086095583450515,W19A12,2022-12-09_12h42.14.434,t1_Paradigm,2021.1.4,59.87531957832585,
H,left,Distractor,0,27,27,27,4640.985040300919,4642.98741232045,left,1,4,0.7780532052274793,W19A12,2022-12-09_12h42.14.434,t1_Paradigm,2021.1.4,59.87531957832585,
X,left,Distractor,0,28,28,28,4644.485176481903,4646.48497373423,left,1,4,0.6815074546757387,W19A12,2022-12-09_12h42.14.434,t1_Paradigm,2021.1.4,59.87531957832585,
V,right,Target,0,29,29,29,4647.9846332015295,4649.986361048068,right,1,4,1.2585751521837665,W19A12,2022-12-09_12h42.14.434,t1_Paradigm,2021.1.4,59.87531957832585,
C,left,Distractor,0,30,30,30,4651.500642729399,4653.501975987878,left,1,4,0.7484286252729362,W19A12,2022-12-09_12h42.14.434,t1_Paradigm,2021.1.4,59.87531957832585,
S,left,Pretarget,0,31,31,31,4655.0000676895,4657.00104549792,left,1,4,0.8587073231319664,W19A12,2022-12-09_12h42.14.434,t1_Paradigm,2021.1.4,59.87531957832585,
D,left,Distractor,0,32,32,32,4658.499555206232,4660.500477194888,left,1,4,0.7684945503569907,W19A12,2022-12-09_12h42.14.434,t1_Paradigm,2021.1.4,59.87531957832585,
V,left,Distractor,0,33,33,33,4661.998941028331,4664.000017644183,right,0,4,1.1149922606273321,W19A12,2022-12-09_12h42.14.434,t1_Paradigm,2021.1.4,59.87531957832585,
R,left,Distractor,0,34,34,34,4665.498354439522,4667.499304658864,left,1,4,1.012578697045683,W19A12,2022-12-09_12h42.14.434,t1_Paradigm,2021.1.4,59.87531957832585,
S,right,Target,0,35,35,35,4668.997643058217,4670.998910231225,right,1,4,0.8856223984912504,W19A12,2022-12-09_12h42.14.434,t1_Paradigm,2021.1.4,59.87531957832585,
Y,left,Distractor,0,36,36,36,4672.4971835074975,4674.498711814376,left,1,4,0.8241468637424987,W19A12,2022-12-09_12h42.14.434,t1_Paradigm,2021.1.4,59.87531957832585,
N,left,Pretarget,0,37,37,37,4675.996567083974,4677.998076142656,left,1,4,0.6157260981563013,W19A12,2022-12-09_12h42.14.434,t1_Paradigm,2021.1.4,59.87531957832585,
Z,left,Pretarget,0,38,38,38,4679.496074811323,4681.497939320063,left,1,4,0.49344197871687356,W19A12,2022-12-09_12h42.14.434,t1_Paradigm,2021.1.4,59.87531957832585,
P,left,Pretarget,0,39,39,39,4682.995397435181,4684.997305573153,left,1,4,0.8312898698204663,W19A12,2022-12-09_12h42.14.434,t1_Paradigm,2021.1.4,59.87531957832585,
M,left,Distractor,0,40,40,40,4686.494862495689,4688.496109778891,left,1,4,1.0559692670503864,W19A12,2022-12-09_12h42.14.434,t1_Paradigm,2021.1.4,59.87531957832585,
N,right,Target,0,41,41,41,4689.994194102037,4691.995458067002,left,0,4,0.8028221065615071,W19A12,2022-12-09_12h42.14.434,t1_Paradigm,2021.1.4,59.87531957832585,
Z,right,Target,0,42,42,42,4693.4936912428675,4695.494992421023,left,0,4,0.7659204247465823,W19A12,2022-12-09_12h42.14.434,t1_Paradigm,2021.1.4,59.87531957832585,
P,right,Target,0,43,43,43,4696.993135130368,4698.994377601513,right,1,4,0.6189370182983112,W19A12,2022-12-09_12h42.14.434,t1_Paradigm,2021.1.4,59.87531957832585,
X,left,Pretarget,0,44,44,44,4700.492543408691,4702.493979003426,left,1,4,1.014772991577047,W19A12,2022-12-09_12h42.14.434,t1_Paradigm,2021.1.4,59.87531957832585,
Z,left,Lure,0,45,45,45,4703.991891055208,4705.993428344576,right,0,4,0.9611866513732821,W19A12,2022-12-09_12h42.14.434,t1_Paradigm,2021.1.4,59.87531957832585,
R,left,Pretarget,0,46,46,46,4707.491355153295,4709.492409312923,left,1,4,0.7454345681617269,W19A12,2022-12-09_12h42.14.434,t1_Paradigm,2021.1.4,59.87531957832585,
K,left,Distractor,0,47,47,47,4710.990851652532,4712.992140640155,left,1,4,0.47563386720139533,W19A12,2022-12-09_12h42.14.434,t1_Paradigm,2021.1.4,59.87531957832585,
X,right,Target,0,48,48,48,4714.4903006728855,4716.491148876783,left,0,4,0.8674707066529663,W19A12,2022-12-09_12h42.14.434,t1_Paradigm,2021.1.4,59.87531957832585,
B,left,Distractor,0,49,49,49,4717.989800059353,4719.9915718559205,left,1,4,0.6787344310287153,W19A12,2022-12-09_12h42.14.434,t1_Paradigm,2021.1.4,59.87531957832585,
R,right,Target,0,50,50,50,4721.489254212545,4723.490412312429,left,0,4,1.0052326224831631,W19A12,2022-12-09_12h42.14.434,t1_Paradigm,2021.1.4,59.87531957832585,
Y,left,Pretarget,0,51,51,51,4724.988587743705,4726.989679116508,left,1,4,0.8989822515577544,W19A12,2022-12-09_12h42.14.434,t1_Paradigm,2021.1.4,59.87531957832585,
W,left,Pretarget,0,52,52,52,4728.487963300096,4730.489425842301,left,1,4,0.722998869168805,W19A12,2022-12-09_12h42.14.434,t1_Paradigm,2021.1.4,59.87531957832585,
Z,left,Distractor,0,53,53,53,4731.986660678333,4733.988639393036,left,1,4,0.6986874333379092,W19A12,2022-12-09_12h42.14.434,t1_Paradigm,2021.1.4,59.87531957832585,
Q,left,Distractor,0,54,54,54,4735.487085903107,4737.486771515876,left,1,4,0.6017563980276464,W19A12,2022-12-09_12h42.14.434,t1_Paradigm,2021.1.4,59.87531957832585,
Y,right,Target,0,55,55,55,4738.9862542205665,4740.988266298809,right,1,4,0.6281116716127144,W19A12,2022-12-09_12h42.14.434,t1_Paradigm,2021.1.4,59.87531957832585,
W,right,Target,0,56,56,56,4742.485682388695,4744.4870900735405,left,0,4,1.249124928828678,W19A12,2022-12-09_12h42.14.434,t1_Paradigm,2021.1.4,59.87531957832585,
H,left,Pretarget,0,57,57,57,4745.985271279278,4747.986801510982,left,1,4,0.7594187044305727,W19A12,2022-12-09_12h42.14.434,t1_Paradigm,2021.1.4,59.87531957832585,
M,left,Distractor,0,58,58,58,4749.501202210333,4751.50198721599,left,1,4,1.0454167635762133,W19A12,2022-12-09_12h42.14.434,t1_Paradigm,2021.1.4,59.87531957832585,
R,left,Pretarget,0,59,59,59,4753.000596373313,4755.0022895730945,right,0,4,1.1585239840642316,W19A12,2022-12-09_12h42.14.434,t1_Paradigm,2021.1.4,59.87531957832585,
J,left,Distractor,0,60,60,60,4756.500178206232,4758.5015024822205,left,1,4,0.9347880693239858,W19A12,2022-12-09_12h42.14.434,t1_Paradigm,2021.1.4,59.87531957832585,
H,right,Target,0,61,61,61,4759.999884190009,4762.001166440765,left,0,4,0.7955494959460339,W19A12,2022-12-09_12h42.14.434,t1_Paradigm,2021.1.4,59.87531957832585,
Z,left,Distractor,0,62,62,62,4763.498903333952,4765.5001647324825,left,1,4,0.6815353645506548,W19A12,2022-12-09_12h42.14.434,t1_Paradigm,2021.1.4,59.87531957832585,
R,right,Target,0,63,63,63,4766.998327010835,4769.00016168486,left,0,4,0.6151662964111893,W19A12,2022-12-09_12h42.14.434,t1_Paradigm,2021.1.4,59.87531957832585,
J,left,Pretarget,0,0,0,0,4772.94852069582,4774.946819155157,left,1,4,0.8028824175707996,W19A12,2022-12-09_12h42.14.434,t1_Paradigm,2021.1.4,59.87531957832585,
G,left,Pretarget,0,1,1,1,4776.446955977764,4778.448049596191,left,1,4,0.5813257195986807,W19A12,2022-12-09_12h42.14.434,t1_Paradigm,2021.1.4,59.87531957832585,
Z,left,Distractor,0,2,2,2,4779.946210591326,4781.947403017155,left,1,4,0.4381024485337548,W19A12,2022-12-09_12h42.14.434,t1_Paradigm,2021.1.4,59.87531957832585,
F,left,Distractor,0,3,3,3,4783.445660253274,4785.4476232486195,left,1,4,0.4046340035420144,W19A12,2022-12-09_12h42.14.434,t1_Paradigm,2021.1.4,59.87531957832585,
J,right,Target,0,4,4,4,4786.945114406466,4788.9458859383885,right,1,4,0.5977043316379422,W19A12,2022-12-09_12h42.14.434,t1_Paradigm,2021.1.4,59.87531957832585,
G,right,Target,0,5,5,5,4790.444514985516,4792.445776704873,right,1,4,0.792461122648092,W19A12,2022-12-09_12h42.14.434,t1_Paradigm,2021.1.4,59.87531957832585,
H,left,Distractor,0,6,6,6,4793.944025920908,4795.945231499674,left,1,4,1.2128440013766522,W19A12,2022-12-09_12h42.14.434,t1_Paradigm,2021.1.4,59.87531957832585,
P,left,Distractor,0,7,7,7,4797.443299461855,4799.44421599686,left,1,4,0.9476057648425922,W19A12,2022-12-09_12h42.14.434,t1_Paradigm,2021.1.4,59.87531957832585,
G,left,Lure,0,8,8,8,4800.942895730914,4802.943473818435,left,1,4,1.3554131545388373,W19A12,2022-12-09_12h42.14.434,t1_Paradigm,2021.1.4,59.87531957832585,
S,left,Distractor,0,9,9,9,4804.442237602954,4806.443560595726,left,1,4,0.7998088012391236,W19A12,2022-12-09_12h42.14.434,t1_Paradigm,2021.1.4,59.87531957832585,
R,left,Pretarget,0,10,10,10,4807.941709079532,4809.942739820515,left,1,4,0.6124709071445977,W19A12,2022-12-09_12h42.14.434,t1_Paradigm,2021.1.4,59.87531957832585,
T,left,Pretarget,0,11,11,11,4811.441112225017,4813.4420175318955,left,1,4,0.9182493764383253,W19A12,2022-12-09_12h42.14.434,t1_Paradigm,2021.1.4,59.87531957832585,
X,left,Distractor,0,12,12,12,4814.939877292738,4816.942531939974,left,1,4,0.6031230200460413,W19A12,2022-12-09_12h42.14.434,t1_Paradigm,2021.1.4,59.87531957832585,
F,left,Pretarget,0,13,13,13,4818.439450784761,4820.44008533367,left,1,4,0.743097516184207,W19A12,2022-12-09_12h42.14.434,t1_Paradigm,2021.1.4,59.87531957832585,
R,right,Target,0,14,14,14,4821.939363045065,4823.940574398293,right,1,4,1.0602882417588262,W19A12,2022-12-09_12h42.14.434,t1_Paradigm,2021.1.4,59.87531957832585,
T,right,Target,0,15,15,15,4825.4388595443015,4827.438545157071,right,1,4,0.7920184141112259,W19A12,2022-12-09_12h42.14.434,t1_Paradigm,2021.1.4,59.87531957832585,
C,left,Distractor,0,16,16,16,4828.93827872994,4830.93948398791,left,1,4,0.6723369717801688,W19A12,2022-12-09_12h42.14.434,t1_Paradigm,2021.1.4,59.87531957832585,
F,right,Target,0,17,17,17,4832.437704331649,4834.43877709785,left,0,4,1.2716113147325814,W19A12,2022-12-09_12h42.14.434,t1_Paradigm,2021.1.4,59.87531957832585,
M,left,Distractor,0,18,18,18,4835.936956699574,4837.93842501624,left,1,4,0.7571294521476375,W19A12,2022-12-09_12h42.14.434,t1_Paradigm,2021.1.4,59.87531957832585,
N,left,Distractor,0,19,19,19,4839.436663645771,4841.437888793531,left,1,4,0.7728927634743741,W19A12,2022-12-09_12h42.14.434,t1_Paradigm,2021.1.4,59.87531957832585,
R,left,Lure,0,20,20,20,4842.93601610433,4844.937145331904,right,0,4,0.8994207896612352,W19A12,2022-12-09_12h42.14.434,t1_Paradigm,2021.1.4,59.87531957832585,
F,right,Target,0,21,21,21,4846.435309855879,4848.435042947545,right,1,4,0.8641362772323191,W19A12,2022-12-09_12h42.14.434,t1_Paradigm,2021.1.4,59.87531957832585,
P,left,Distractor,0,22,22,22,4849.9344242783845,4851.936313488972,left,1,4,0.9272459839412477,W19A12,2022-12-09_12h42.14.434,t1_Paradigm,2021.1.4,59.87531957832585,
L,left,Pretarget,0,23,23,23,4853.434191535605,4855.435866770393,None,0,4,,W19A12,2022-12-09_12h42.14.434,t1_Paradigm,2021.1.4,59.87531957832585,
T,left,Distractor,0,24,24,24,4856.933593077061,4858.933610400447,right,0,4,1.108028583577834,W19A12,2022-12-09_12h42.14.434,t1_Paradigm,2021.1.4,59.87531957832585,
F,left,Distractor,0,25,25,25,4860.432958046949,4862.434240618502,left,1,4,0.7477892643219093,W19A12,2022-12-09_12h42.14.434,t1_Paradigm,2021.1.4,59.87531957832585,
V,left,Distractor,0,26,26,26,4863.93259698285,4865.933946602294,left,1,4,0.559582314119325,W19A12,2022-12-09_12h42.14.434,t1_Paradigm,2021.1.4,59.87531957832585,
L,right,Target,0,27,27,27,4867.431909661798,4869.433420324494,left,0,4,0.7148626560956473,W19A12,2022-12-09_12h42.14.434,t1_Paradigm,2021.1.4,59.87531957832585,
S,left,Pretarget,0,28,28,28,4870.948123862152,4872.946993672158,left,1,4,0.7167656612291466,W19A12,2022-12-09_12h42.14.434,t1_Paradigm,2021.1.4,59.87531957832585,
W,left,Distractor,0,29,29,29,4874.447656291348,4876.446332977779,left,1,4,0.5490426427859347,W19A12,2022-12-09_12h42.14.434,t1_Paradigm,2021.1.4,59.87531957832585,
Q,left,Distractor,0,30,30,30,4877.94695613817,4879.947768732905,left,1,4,0.4979989894636674,W19A12,2022-12-09_12h42.14.434,t1_Paradigm,2021.1.4,59.87531957832585,
L,right,Target,0,31,31,31,4881.446373719795,4883.447433974667,right,1,4,1.0072764602664392,W19A12,2022-12-09_12h42.14.434,t1_Paradigm,2021.1.4,59.87531957832585,
S,right,Target,0,32,32,32,4884.945022977539,4886.9469426644355,left,0,4,0.794874525803607,W19A12,2022-12-09_12h42.14.434,t1_Paradigm,2021.1.4,59.87531957832585,
Z,left,Pretarget,0,33,33,33,4888.444634324347,4890.445461355237,left,1,4,0.595669797170558,W19A12,2022-12-09_12h42.14.434,t1_Paradigm,2021.1.4,59.87531957832585,
F,left,Distractor,0,34,34,34,4891.943846271068,4893.945683190701,left,1,4,0.5251290030282689,W19A12,2022-12-09_12h42.14.434,t1_Paradigm,2021.1.4,59.87531957832585,
V,left,Distractor,0,35,35,35,4895.444001379452,4897.445821938134,right,0,4,1.2464946626423625,W19A12,2022-12-09_12h42.14.434,t1_Paradigm,2021.1.4,59.87531957832585,
M,left,Distractor,0,36,36,36,4898.943398108866,4900.944837553237,left,1,4,0.6693095511145657,W19A12,2022-12-09_12h42.14.434,t1_Paradigm,2021.1.4,59.87531957832585,
Z,right,Target,0,37,37,37,4902.442999831575,4904.444130983989,left,0,4,1.0362818898574915,W19A12,2022-12-09_12h42.14.434,t1_Paradigm,2021.1.4,59.87531957832585,
H,left,Pretarget,0,38,38,38,4905.942358064596,4907.943459061484,None,0,4,,W19A12,2022-12-09_12h42.14.434,t1_Paradigm,2021.1.4,59.87531957832585,
L,left,Distractor,0,39,39,39,4909.441743886695,4911.44289140006,None,0,4,,W19A12,2022-12-09_12h42.14.434,t1_Paradigm,2021.1.4,59.87531957832585,
G,left,Distractor,0,40,40,40,4912.941009728354,4914.943052924515,left,1,4,0.8679050743085099,W19A12,2022-12-09_12h42.14.434,t1_Paradigm,2021.1.4,59.87531957832585,
K,left,Distractor,0,41,41,41,4916.440619150351,4918.44178719513,left,1,4,0.6444505040562944,W19A12,2022-12-09_12h42.14.434,t1_Paradigm,2021.1.4,59.87531957832585,
H,right,Target,0,42,42,42,4919.940140351435,4921.941478101158,right,1,4,0.7175660654320382,W19A12,2022-12-09_12h42.14.434,t1_Paradigm,2021.1.4,59.87531957832585,
B,left,Distractor,0,43,43,43,4923.439493451602,4925.441368226035,left,1,4,0.5416474853118416,W19A12,2022-12-09_12h42.14.434,t1_Paradigm,2021.1.4,59.87531957832585,
Z,left,Distractor,0,44,44,44,4926.938843985336,4928.9400303159055,right,0,4,0.860859913227614,W19A12,2022-12-09_12h42.14.434,t1_Paradigm,2021.1.4,59.87531957832585,
T,left,Pretarget,0,45,45,45,4930.438288193633,4932.437678346585,left,1,4,0.6134596228948794,W19A12,2022-12-09_12h42.14.434,t1_Paradigm,2021.1.4,59.87531957832585,
H,right,Target,0,46,46,46,4933.937721173817,4935.9395160682325,left,0,4,1.3451230681530433,W19A12,2022-12-09_12h42.14.434,t1_Paradigm,2021.1.4,59.87531957832585,
F,left,Distractor,0,47,47,47,4937.437120790462,4939.438010698796,None,0,4,,W19A12,2022-12-09_12h42.14.434,t1_Paradigm,2021.1.4,59.87531957832585,
R,left,Distractor,0,48,48,48,4940.9365117454145,4942.938136934885,left,1,4,0.8805091148096835,W19A12,2022-12-09_12h42.14.434,t1_Paradigm,2021.1.4,59.87531957832585,
T,right,Target,0,49,49,49,4944.436046741044,4946.435073423854,left,0,4,0.5482233111688402,W19A12,2022-12-09_12h42.14.434,t1_Paradigm,2021.1.4,59.87531957832585,
H,right,Target,0,50,50,50,4947.935327660467,4949.937387859201,right,1,4,0.7205665386136388,W19A12,2022-12-09_12h42.14.434,t1_Paradigm,2021.1.4,59.87531957832585,
Y,left,Pretarget,0,51,51,51,4951.434830575759,4953.436083633424,left,1,4,0.6848386760393623,W19A12,2022-12-09_12h42.14.434,t1_Paradigm,2021.1.4,59.87531957832585,
H,left,Distractor,0,52,52,52,4954.934388027614,4956.935483250054,right,0,4,0.6764644269278506,W19A12,2022-12-09_12h42.14.434,t1_Paradigm,2021.1.4,59.87531957832585,
S,left,Distractor,0,53,53,53,4958.433763263209,4960.435581255457,left,1,4,0.7040284873364726,W19A12,2022-12-09_12h42.14.434,t1_Paradigm,2021.1.4,59.87531957832585,
Q,left,Distractor,0,54,54,54,4961.933199451421,4963.9343995765375,right,0,4,0.9616733099683188,W19A12,2022-12-09_12h42.14.434,t1_Paradigm,2021.1.4,59.87531957832585,
Y,right,Target,0,55,55,55,4965.432497373418,4967.4316395454225,left,0,4,1.0451139252691064,W19A12,2022-12-09_12h42.14.434,t1_Paradigm,2021.1.4,59.87531957832585,
R,left,Distractor,0,56,56,56,4968.932069582239,4970.933284143495,left,1,4,0.8064455797284609,W19A12,2022-12-09_12h42.14.434,t1_Paradigm,2021.1.4,59.87531957832585,
H,left,Pretarget,0,57,57,57,4972.448143591551,4974.449381250655,right,0,4,0.8874529020540649,W19A12,2022-12-09_12h42.14.434,t1_Paradigm,2021.1.4,59.87531957832585,
J,left,Distractor,0,58,58,58,4975.947493804488,4977.949659226695,right,0,4,0.9475582859595306,W19A12,2022-12-09_12h42.14.434,t1_Paradigm,2021.1.4,59.87531957832585,
V,left,Distractor,0,59,59,59,4979.447039386621,4981.448037405658,left,1,4,0.6670966500096256,W19A12,2022-12-09_12h42.14.434,t1_Paradigm,2021.1.4,59.87531957832585,
Y,left,Lure,0,60,60,60,4982.9463745217945,4984.94759357431,right,0,4,0.60206051953719,W19A12,2022-12-09_12h42.14.434,t1_Paradigm,2021.1.4,59.87531957832585,
H,right,Target,0,61,61,61,4986.445782158524,4988.447079166232,right,1,4,0.8384248558431864,W19A12,2022-12-09_12h42.14.434,t1_Paradigm,2021.1.4,59.87531957832585,
L,left,Distractor,0,62,62,62,4989.945273524907,4991.946013618101,left,1,4,0.5698085606272798,W19A12,2022-12-09_12h42.14.434,t1_Paradigm,2021.1.4,59.87531957832585,
P,left,Distractor,0,63,63,63,4993.444695918573,4995.446571655426,left,1,4,0.5974893934326246,W19A12,2022-12-09_12h42.14.434,t1_Paradigm,2021.1.4,59.87531957832585,
