Letter,CorrAnswer,Stimulus,nback_run.thisRepN,nback_run.thisTrialN,nback_run.thisN,nback_run.thisIndex,fixcross.started,nback_trial.started,trial_resp.keys,trial_resp.corr,currentlevel,trial_resp.rt,Participant,date,expName,psychopyVersion,frameRate,
H,left,Distractor,0,0,0,0,282.99701525861747,284.941797543157,None,0,1,,W21A06,2022-11-15_16h26.08.495,t1_Paradigm,2021.1.4,60.09604762687917,
Q,left,Pretarget,0,1,1,1,286.44061185914325,288.4440880691109,None,0,1,,W21A06,2022-11-15_16h26.08.495,t1_Paradigm,2021.1.4,60.09604762687917,
Q,right,Target,0,2,2,2,289.9404267564096,291.94050054086256,None,0,1,,W21A06,2022-11-15_16h26.08.495,t1_Paradigm,2021.1.4,60.09604762687917,
T,left,Distractor,0,3,3,3,293.4404626862379,295.44238332753594,None,0,1,,W21A06,2022-11-15_16h26.08.495,t1_Paradigm,2021.1.4,60.09604762687917,
Q,left,Lure,0,4,4,4,296.9404325308569,298.9428003700741,None,0,1,,W21A06,2022-11-15_16h26.08.495,t1_Paradigm,2021.1.4,60.09604762687917,
L,left,Distractor,0,5,5,5,300.4405165809585,302.44194222484657,left,1,1,1.2607388454052852,W21A06,2022-11-15_16h26.08.495,t1_Paradigm,2021.1.4,60.09604762687917,
V,left,Pretarget,0,6,6,6,303.940430606046,305.9432591168588,left,1,1,1.039509006193839,W21A06,2022-11-15_16h26.08.495,t1_Paradigm,2021.1.4,60.09604762687917,
V,right,Target,0,7,7,7,307.4405194681749,309.44049765364616,right,1,1,0.9341300556843635,W21A06,2022-11-15_16h26.08.495,t1_Paradigm,2021.1.4,60.09604762687917,
K,left,Distractor,0,8,8,8,310.94052139298583,312.9428263550217,left,1,1,0.9358168323524296,W21A06,2022-11-15_16h26.08.495,t1_Paradigm,2021.1.4,60.09604762687917,
G,left,Pretarget,0,9,9,9,314.44059774385823,316.44242856060737,left,1,1,0.8284319072117796,W21A06,2022-11-15_16h26.08.495,t1_Paradigm,2021.1.4,60.09604762687917,
G,right,Target,0,10,10,10,317.9404209819768,319.94060672631895,right,1,1,0.8500677533738781,W21A06,2022-11-15_16h26.08.495,t1_Paradigm,2021.1.4,60.09604762687917,
G,right,Target,0,11,11,11,321.44051273133664,323.4404854631721,right,1,1,0.8381262214534217,W21A06,2022-11-15_16h26.08.495,t1_Paradigm,2021.1.4,60.09604762687917,
P,left,Pretarget,0,12,12,12,324.94048770879454,326.94242374858004,None,0,1,,W21A06,2022-11-15_16h26.08.495,t1_Paradigm,2021.1.4,60.09604762687917,
P,right,Target,0,13,13,13,328.44048931279394,330.4404421549116,right,1,1,0.7823365161166294,W21A06,2022-11-15_16h26.08.495,t1_Paradigm,2021.1.4,60.09604762687917,
G,left,Lure,0,14,14,14,331.9404761599144,333.94256843025505,left,1,1,0.9282635503623169,W21A06,2022-11-15_16h26.08.495,t1_Paradigm,2021.1.4,60.09604762687917,
Y,left,Distractor,0,15,15,15,335.4403863353655,337.4440219839162,left,1,1,0.7226923753041774,W21A06,2022-11-15_16h26.08.495,t1_Paradigm,2021.1.4,60.09604762687917,
B,left,Distractor,0,16,16,16,338.94043605966726,340.9424446007033,left,1,1,0.7761492088466184,W21A06,2022-11-15_16h26.08.495,t1_Paradigm,2021.1.4,60.09604762687917,
T,left,Pretarget,0,17,17,17,342.44046076142695,344.44232141276007,left,1,1,0.556395700230496,W21A06,2022-11-15_16h26.08.495,t1_Paradigm,2021.1.4,60.09604762687917,
T,right,Target,0,18,18,18,345.94050695690385,347.94053582908236,right,1,1,0.7541190970805474,W21A06,2022-11-15_16h26.08.495,t1_Paradigm,2021.1.4,60.09604762687917,
S,left,Distractor,0,19,19,19,349.4404614030209,351.4433691519371,left,1,1,0.9637663817557041,W21A06,2022-11-15_16h26.08.495,t1_Paradigm,2021.1.4,60.09604762687917,
T,left,Lure,0,20,20,20,352.9406509969849,354.9423133927048,right,0,1,0.5843199062801432,W21A06,2022-11-15_16h26.08.495,t1_Paradigm,2021.1.4,60.09604762687917,
J,left,Distractor,0,21,21,21,356.4403334030503,358.44315325221396,left,1,1,1.147680216905428,W21A06,2022-11-15_16h26.08.495,t1_Paradigm,2021.1.4,60.09604762687917,
P,left,Distractor,0,22,22,22,359.94041745316645,361.94253217964433,left,1,1,0.6561256491404492,W21A06,2022-11-15_16h26.08.495,t1_Paradigm,2021.1.4,60.09604762687917,
F,left,Distractor,0,23,23,23,363.4404845007666,365.44235285134346,left,1,1,0.5002409222652204,W21A06,2022-11-15_16h26.08.495,t1_Paradigm,2021.1.4,60.09604762687917,
L,left,Distractor,0,24,24,24,366.9406574130262,368.9420144052856,left,1,1,0.9527407394198235,W21A06,2022-11-15_16h26.08.495,t1_Paradigm,2021.1.4,60.09604762687917,
W,left,Pretarget,0,25,25,25,370.44050759851234,372.44402166310465,left,1,1,0.538703151687514,W21A06,2022-11-15_16h26.08.495,t1_Paradigm,2021.1.4,60.09604762687917,
W,right,Target,0,26,26,26,373.9404193779774,375.94059100702,right,1,1,0.7379619066923624,W21A06,2022-11-15_16h26.08.495,t1_Paradigm,2021.1.4,60.09604762687917,
V,left,Distractor,0,27,27,27,377.44047134788707,379.44238910196873,left,1,1,0.6124144581553992,W21A06,2022-11-15_16h26.08.495,t1_Paradigm,2021.1.4,60.09604762687917,
W,left,Lure,0,28,28,28,380.94051241053967,382.9426829565491,left,1,1,0.8240086898731533,W21A06,2022-11-15_16h26.08.495,t1_Paradigm,2021.1.4,60.09604762687917,
R,left,Pretarget,0,29,29,29,384.44043605966726,386.44364760803,left,1,1,0.9230829196021659,W21A06,2022-11-15_16h26.08.495,t1_Paradigm,2021.1.4,60.09604762687917,
R,right,Target,0,30,30,30,387.9403629168228,389.9405403203127,right,1,1,0.5463180276565254,W21A06,2022-11-15_16h26.08.495,t1_Paradigm,2021.1.4,60.09604762687917,
G,left,Distractor,0,31,31,31,391.4405499443674,393.44275994903,left,1,1,0.8519309711264214,W21A06,2022-11-15_16h26.08.495,t1_Paradigm,2021.1.4,60.09604762687917,
R,left,Lure,0,32,32,32,394.9394957891491,396.9423255831789,left,1,1,0.8243766497180331,W21A06,2022-11-15_16h26.08.495,t1_Paradigm,2021.1.4,60.09604762687917,
S,left,Distractor,0,33,33,33,398.4404328516539,400.4424304854183,left,1,1,0.7645406693482073,W21A06,2022-11-15_16h26.08.495,t1_Paradigm,2021.1.4,60.09604762687917,
R,left,Lure,0,34,34,34,401.9403526511596,403.94203044538153,left,1,1,0.7206228819122771,W21A06,2022-11-15_16h26.08.495,t1_Paradigm,2021.1.4,60.09604762687917,
P,left,Pretarget,0,35,35,35,405.4404697438731,407.44215555815026,left,1,1,0.8045122719631763,W21A06,2022-11-15_16h26.08.495,t1_Paradigm,2021.1.4,60.09604762687917,
P,right,Target,0,36,36,36,408.94047134788707,410.94048578396905,right,1,1,0.7302815871225903,W21A06,2022-11-15_16h26.08.495,t1_Paradigm,2021.1.4,60.09604762687917,
Y,left,Pretarget,0,37,37,37,412.44047423510347,414.44236857064243,left,1,1,0.5883199858362786,W21A06,2022-11-15_16h26.08.495,t1_Paradigm,2021.1.4,60.09604762687917,
Y,right,Target,0,38,38,38,415.9405582852196,417.9404581950075,right,1,1,0.8822714574926067,W21A06,2022-11-15_16h26.08.495,t1_Paradigm,2021.1.4,60.09604762687917,
J,left,Distractor,0,39,39,39,419.44044311731705,421.44228837014816,left,1,1,1.364812452768092,W21A06,2022-11-15_16h26.08.495,t1_Paradigm,2021.1.4,60.09604762687917,
Y,left,Lure,0,40,40,40,422.94036163362034,424.94268808938796,None,0,1,,W21A06,2022-11-15_16h26.08.495,t1_Paradigm,2021.1.4,60.09604762687917,
T,left,Distractor,0,41,41,41,426.4404444005195,428.4424433175009,left,1,1,1.2761520960484631,W21A06,2022-11-15_16h26.08.495,t1_Paradigm,2021.1.4,60.09604762687917,
V,left,Distractor,0,42,42,42,429.94042900203203,431.94248053051706,left,1,1,0.49633740409626625,W21A06,2022-11-15_16h26.08.495,t1_Paradigm,2021.1.4,60.09604762687917,
N,left,Pretarget,0,43,43,43,433.4405236386083,435.4429261244368,left,1,1,0.5317154435324483,W21A06,2022-11-15_16h26.08.495,t1_Paradigm,2021.1.4,60.09604762687917,
N,right,Target,0,44,44,44,436.940313192521,438.9404819343472,right,1,1,0.7302790207031649,W21A06,2022-11-15_16h26.08.495,t1_Paradigm,2021.1.4,60.09604762687917,
N,right,Target,0,45,45,45,440.44035714239,442.4402365208516,right,1,1,0.6063923638866981,W21A06,2022-11-15_16h26.08.495,t1_Paradigm,2021.1.4,60.09604762687917,
X,left,Distractor,0,46,46,46,443.9404206611798,445.9427503249608,left,1,1,0.5441580681072082,W21A06,2022-11-15_16h26.08.495,t1_Paradigm,2021.1.4,60.09604762687917,
Z,left,Distractor,0,47,47,47,447.4404213027883,449.4423467561137,left,1,1,0.7564696129993536,W21A06,2022-11-15_16h26.08.495,t1_Paradigm,2021.1.4,60.09604762687917,
H,left,Pretarget,0,48,48,48,450.9404479293444,452.94239102677966,left,1,1,1.160268485575216,W21A06,2022-11-15_16h26.08.495,t1_Paradigm,2021.1.4,60.09604762687917,
H,right,Target,0,49,49,49,454.4402900947898,456.4403279494145,right,1,1,0.7342620977578918,W21A06,2022-11-15_16h26.08.495,t1_Paradigm,2021.1.4,60.09604762687917,
K,left,Distractor,0,50,50,50,457.94049508722674,459.94262713701755,left,1,1,0.8319934505125275,W21A06,2022-11-15_16h26.08.495,t1_Paradigm,2021.1.4,60.09604762687917,
V,left,Pretarget,0,51,51,51,461.4403882601764,463.4426835981576,left,1,1,0.9159290360403247,W21A06,2022-11-15_16h26.08.495,t1_Paradigm,2021.1.4,60.09604762687917,
V,right,Target,0,52,52,52,464.940399488245,466.94047198949556,right,1,1,0.474250189596205,W21A06,2022-11-15_16h26.08.495,t1_Paradigm,2021.1.4,60.09604762687917,
R,left,Distractor,0,53,53,53,468.4404989368486,470.44274422973103,left,1,1,0.7799484663701151,W21A06,2022-11-15_16h26.08.495,t1_Paradigm,2021.1.4,60.09604762687917,
V,left,Lure,0,54,54,54,471.9404472877359,473.94241091649747,left,1,1,0.9761621692305198,W21A06,2022-11-15_16h26.08.495,t1_Paradigm,2021.1.4,60.09604762687917,
Y,left,Distractor,0,55,55,55,475.4403949970292,477.44228387893236,left,1,1,0.8203428859706037,W21A06,2022-11-15_16h26.08.495,t1_Paradigm,2021.1.4,60.09604762687917,
Q,left,Distractor,0,56,56,56,478.94054224512365,480.94261173851555,left,1,1,0.7600510460179066,W21A06,2022-11-15_16h26.08.495,t1_Paradigm,2021.1.4,60.09604762687917,
Z,left,Pretarget,0,57,57,57,482.4404530621832,484.4420493726939,left,1,1,0.8765252528828569,W21A06,2022-11-15_16h26.08.495,t1_Paradigm,2021.1.4,60.09604762687917,
Z,right,Target,0,58,58,58,485.94054737794795,487.9404620446294,right,1,1,0.5142997470829869,W21A06,2022-11-15_16h26.08.495,t1_Paradigm,2021.1.4,60.09604762687917,
B,left,Distractor,0,59,59,59,489.44040430027235,491.4424012924428,left,1,1,1.4444765602820553,W21A06,2022-11-15_16h26.08.495,t1_Paradigm,2021.1.4,60.09604762687917,
S,left,Pretarget,0,60,60,60,492.9404617238324,494.9425183851563,left,1,1,0.6803121916309465,W21A06,2022-11-15_16h26.08.495,t1_Paradigm,2021.1.4,60.09604762687917,
S,right,Target,0,61,61,61,496.44047455590044,498.4404633278318,right,1,1,0.4142983997153351,W21A06,2022-11-15_16h26.08.495,t1_Paradigm,2021.1.4,60.09604762687917,
T,left,Distractor,0,62,62,62,499.9404646110488,501.94252736760245,left,1,1,0.6241882106551202,W21A06,2022-11-15_16h26.08.495,t1_Paradigm,2021.1.4,60.09604762687917,
D,left,Distractor,0,63,63,63,503.44046878146764,505.44341630981944,left,1,1,0.6273218041460495,W21A06,2022-11-15_16h26.08.495,t1_Paradigm,2021.1.4,60.09604762687917,
R,left,Distractor,0,0,0,0,540.4211228196655,542.4255790796014,None,0,1,,W21A06,2022-11-15_16h26.08.495,t1_Paradigm,2021.1.4,60.09604762687917,
V,left,Distractor,0,1,1,1,543.9237270899175,545.9243334056082,left,1,1,0.5783956566010602,W21A06,2022-11-15_16h26.08.495,t1_Paradigm,2021.1.4,60.09604762687917,
N,left,Pretarget,0,2,2,2,547.4237197114708,549.4253343077144,left,1,1,0.8692837903945474,W21A06,2022-11-15_16h26.08.495,t1_Paradigm,2021.1.4,60.09604762687917,
N,right,Target,0,3,3,3,550.923729656337,552.9238704883901,right,1,1,0.6027057078463258,W21A06,2022-11-15_16h26.08.495,t1_Paradigm,2021.1.4,60.09604762687917,
S,left,Distractor,0,4,4,4,554.4237687941786,556.4252948490757,left,1,1,0.9094780295563396,W21A06,2022-11-15_16h26.08.495,t1_Paradigm,2021.1.4,60.09604762687917,
N,left,Lure,0,5,5,5,557.9237813054497,559.9258325131377,left,1,1,0.9927354397514137,W21A06,2022-11-15_16h26.08.495,t1_Paradigm,2021.1.4,60.09604762687917,
Z,left,Distractor,0,6,6,6,561.4237771350308,563.4253686335142,left,1,1,0.7253624099685112,W21A06,2022-11-15_16h26.08.495,t1_Paradigm,2021.1.4,60.09604762687917,
L,left,Pretarget,0,7,7,7,564.9237620573404,566.9256855858548,left,1,1,0.5209345730836503,W21A06,2022-11-15_16h26.08.495,t1_Paradigm,2021.1.4,60.09604762687917,
L,right,Target,0,8,8,8,568.4238024783845,570.4238117816421,right,1,1,0.9748860190593405,W21A06,2022-11-15_16h26.08.495,t1_Paradigm,2021.1.4,60.09604762687917,
H,left,Distractor,0,9,9,9,571.9236594007089,573.9255024079321,left,1,1,0.7051544533023844,W21A06,2022-11-15_16h26.08.495,t1_Paradigm,2021.1.4,60.09604762687917,
L,left,Lure,0,10,10,10,575.423815952061,577.4259419066075,left,1,1,0.5967471323529026,W21A06,2022-11-15_16h26.08.495,t1_Paradigm,2021.1.4,60.09604762687917,
X,left,Pretarget,0,11,11,11,578.9237729645974,580.925708683586,left,1,1,0.6809852341393707,W21A06,2022-11-15_16h26.08.495,t1_Paradigm,2021.1.4,60.09604762687917,
X,right,Target,0,12,12,12,582.4238060072094,584.4236908393068,right,1,1,0.5750150456151459,W21A06,2022-11-15_16h26.08.495,t1_Paradigm,2021.1.4,60.09604762687917,
X,right,Target,0,13,13,13,585.9238515610778,587.923799911965,right,1,1,1.0109441586537287,W21A06,2022-11-15_16h26.08.495,t1_Paradigm,2021.1.4,60.09604762687917,
R,left,Distractor,0,14,14,14,589.423741526014,591.4260631697543,left,1,1,0.6608937285782304,W21A06,2022-11-15_16h26.08.495,t1_Paradigm,2021.1.4,60.09604762687917,
T,left,Distractor,0,15,15,15,592.9237684733671,594.9257943377161,left,1,1,1.0813143127743388,W21A06,2022-11-15_16h26.08.495,t1_Paradigm,2021.1.4,60.09604762687917,
V,left,Pretarget,0,16,16,16,596.4236767240218,598.425344252566,left,1,1,1.0372467108245473,W21A06,2022-11-15_16h26.08.495,t1_Paradigm,2021.1.4,60.09604762687917,
V,right,Target,0,17,17,17,599.9237396012031,601.9236141676374,right,1,1,0.8349358460254734,W21A06,2022-11-15_16h26.08.495,t1_Paradigm,2021.1.4,60.09604762687917,
N,left,Distractor,0,18,18,18,603.4238011951675,605.425651901649,left,1,1,0.8049633195041679,W21A06,2022-11-15_16h26.08.495,t1_Paradigm,2021.1.4,60.09604762687917,
B,left,Distractor,0,19,19,19,606.9236664583586,608.9254908590665,left,1,1,0.8091956596763339,W21A06,2022-11-15_16h26.08.495,t1_Paradigm,2021.1.4,60.09604762687917,
V,left,Lure,0,20,20,20,610.42370110497,612.4260618865374,left,1,1,1.2765171686769463,W21A06,2022-11-15_16h26.08.495,t1_Paradigm,2021.1.4,60.09604762687917,
P,left,Distractor,0,21,21,21,613.9236597215058,615.9259842524625,left,1,1,0.8966812396392925,W21A06,2022-11-15_16h26.08.495,t1_Paradigm,2021.1.4,60.09604762687917,
K,left,Pretarget,0,22,22,22,617.4237652653537,619.4424288814043,left,1,1,0.7082790643326007,W21A06,2022-11-15_16h26.08.495,t1_Paradigm,2021.1.4,60.09604762687917,
K,right,Target,0,23,23,23,620.9237816262612,622.9236824984546,right,1,1,0.5229030138580129,W21A06,2022-11-15_16h26.08.495,t1_Paradigm,2021.1.4,60.09604762687917,
J,left,Pretarget,0,24,24,24,624.4229478619818,626.4254404931562,left,1,1,0.909322119798162,W21A06,2022-11-15_16h26.08.495,t1_Paradigm,2021.1.4,60.09604762687917,
J,right,Target,0,25,25,25,627.9236626087222,629.923814348047,right,1,1,0.7227260595100233,W21A06,2022-11-15_16h26.08.495,t1_Paradigm,2021.1.4,60.09604762687917,
H,left,Distractor,0,26,26,26,631.4237379971892,633.425914317646,left,1,1,0.7246595328906551,W21A06,2022-11-15_16h26.08.495,t1_Paradigm,2021.1.4,60.09604762687917,
J,left,Lure,0,27,27,27,634.9238493154699,636.9258299467328,left,1,1,0.6810391288599931,W21A06,2022-11-15_16h26.08.495,t1_Paradigm,2021.1.4,60.09604762687917,
V,left,Distractor,0,28,28,28,638.4237357515813,640.4255890244531,None,0,1,,W21A06,2022-11-15_16h26.08.495,t1_Paradigm,2021.1.4,60.09604762687917,
Z,left,Pretarget,0,29,29,29,641.9237524332711,643.92600061337,left,1,1,0.5925417395337718,W21A06,2022-11-15_16h26.08.495,t1_Paradigm,2021.1.4,60.09604762687917,
Z,right,Target,0,30,30,30,645.4237286939315,647.4239484432765,right,1,1,0.7907165047508897,W21A06,2022-11-15_16h26.08.495,t1_Paradigm,2021.1.4,60.09604762687917,
T,left,Distractor,0,31,31,31,648.9237524332711,650.9251607538463,left,1,1,0.7134959457034711,W21A06,2022-11-15_16h26.08.495,t1_Paradigm,2021.1.4,60.09604762687917,
Z,left,Lure,0,32,32,32,652.4236231500836,654.4260955707432,left,1,1,1.1004931367642712,W21A06,2022-11-15_16h26.08.495,t1_Paradigm,2021.1.4,60.09604762687917,
F,left,Distractor,0,33,33,33,655.9236901976983,657.9259059767937,left,1,1,0.8006337763363263,W21A06,2022-11-15_16h26.08.495,t1_Paradigm,2021.1.4,60.09604762687917,
Y,left,Pretarget,0,34,34,34,659.4236789696297,661.4260208238848,left,1,1,0.9325485020381166,W21A06,2022-11-15_16h26.08.495,t1_Paradigm,2021.1.4,60.09604762687917,
Y,right,Target,0,35,35,35,662.923741846811,664.9237357515813,right,1,1,0.49091103905811906,W21A06,2022-11-15_16h26.08.495,t1_Paradigm,2021.1.4,60.09604762687917,
Y,right,Target,0,36,36,36,666.4237553204875,668.4236815360491,right,1,1,0.7028822130669141,W21A06,2022-11-15_16h26.08.495,t1_Paradigm,2021.1.4,60.09604762687917,
W,left,Distractor,0,37,37,37,669.9239000021771,671.9257744479837,left,1,1,0.7048262729076669,W21A06,2022-11-15_16h26.08.495,t1_Paradigm,2021.1.4,60.09604762687917,
Q,left,Distractor,0,38,38,38,673.4237941375322,675.4257449342113,left,1,1,0.6768988588446518,W21A06,2022-11-15_16h26.08.495,t1_Paradigm,2021.1.4,60.09604762687917,
P,left,Pretarget,0,39,39,39,676.9236401525995,678.9252547488286,left,1,1,1.097498450515559,W21A06,2022-11-15_16h26.08.495,t1_Paradigm,2021.1.4,60.09604762687917,
P,right,Target,0,40,40,40,680.4237338267558,682.4237360723782,right,1,1,0.7670044283586321,W21A06,2022-11-15_16h26.08.495,t1_Paradigm,2021.1.4,60.09604762687917,
J,left,Distractor,0,41,41,41,683.9237447340274,685.9258058865817,left,1,1,1.264975997604779,W21A06,2022-11-15_16h26.08.495,t1_Paradigm,2021.1.4,60.09604762687917,
P,left,Lure,0,42,42,42,687.4236574758979,689.4260185782769,left,1,1,0.9810662686941214,W21A06,2022-11-15_16h26.08.495,t1_Paradigm,2021.1.4,60.09604762687917,
L,left,Distractor,0,43,43,43,690.9236452854238,692.926056753713,left,1,1,0.8245190857851412,W21A06,2022-11-15_16h26.08.495,t1_Paradigm,2021.1.4,60.09604762687917,
Z,left,Distractor,0,44,44,44,694.4236359821662,696.425971099583,left,1,1,0.6365775821032003,W21A06,2022-11-15_16h26.08.495,t1_Paradigm,2021.1.4,60.09604762687917,
F,left,Pretarget,0,45,45,45,697.9237209946878,699.9253134555765,left,1,1,0.6413459823379526,W21A06,2022-11-15_16h26.08.495,t1_Paradigm,2021.1.4,60.09604762687917,
F,right,Target,0,46,46,46,701.4237687941786,703.423815952061,right,1,1,0.5027075684920419,W21A06,2022-11-15_16h26.08.495,t1_Paradigm,2021.1.4,60.09604762687917,
G,left,Pretarget,0,47,47,47,704.9235628393217,706.9260079918167,left,1,1,0.9205521129915724,W21A06,2022-11-15_16h26.08.495,t1_Paradigm,2021.1.4,60.09604762687917,
G,right,Target,0,48,48,48,708.4237116914301,710.423669666372,right,1,1,0.7508834885666147,W21A06,2022-11-15_16h26.08.495,t1_Paradigm,2021.1.4,60.09604762687917,
V,left,Distractor,0,49,49,49,711.9237485836493,713.9257856760523,left,1,1,0.592741599160945,W21A06,2022-11-15_16h26.08.495,t1_Paradigm,2021.1.4,60.09604762687917,
G,left,Lure,0,50,50,50,715.4236423982074,717.4255675307359,left,1,1,0.5009906364284689,W21A06,2022-11-15_16h26.08.495,t1_Paradigm,2021.1.4,60.09604762687917,
Q,left,Pretarget,0,51,51,51,718.9236465686263,720.9253185884154,left,1,1,0.6653756526793586,W21A06,2022-11-15_16h26.08.495,t1_Paradigm,2021.1.4,60.09604762687917,
Q,right,Target,0,52,52,52,722.4236391901795,724.4237155410519,right,1,1,0.5269752738822717,W21A06,2022-11-15_16h26.08.495,t1_Paradigm,2021.1.4,60.09604762687917,
Y,left,Distractor,0,53,53,53,725.9237973455456,727.9256740369747,left,1,1,0.7688714957184857,W21A06,2022-11-15_16h26.08.495,t1_Paradigm,2021.1.4,60.09604762687917,
V,left,Distractor,0,54,54,54,729.4236667791556,731.4254950294853,left,1,1,0.8530797629064182,W21A06,2022-11-15_16h26.08.495,t1_Paradigm,2021.1.4,60.09604762687917,
B,left,Distractor,0,55,55,55,732.9237129746325,734.9248640120495,left,1,1,1.1777483424230013,W21A06,2022-11-15_16h26.08.495,t1_Paradigm,2021.1.4,60.09604762687917,
J,left,Pretarget,0,56,56,56,736.423771681395,738.4256041021581,left,1,1,0.7971309398126323,W21A06,2022-11-15_16h26.08.495,t1_Paradigm,2021.1.4,60.09604762687917,
J,right,Target,0,57,57,57,739.923509586195,741.9236786488327,right,1,1,0.6588296888076002,W21A06,2022-11-15_16h26.08.495,t1_Paradigm,2021.1.4,60.09604762687917,
H,left,Distractor,0,58,58,58,743.4237553204875,745.4258517612616,left,1,1,0.7728475151379826,W21A06,2022-11-15_16h26.08.495,t1_Paradigm,2021.1.4,60.09604762687917,
J,left,Lure,0,59,59,59,746.9236786488327,748.9257417261833,left,1,1,0.8569127046648646,W21A06,2022-11-15_16h26.08.495,t1_Paradigm,2021.1.4,60.09604762687917,
D,left,Pretarget,0,60,60,60,750.423727731526,752.4253772951779,left,1,1,1.1975123091833666,W21A06,2022-11-15_16h26.08.495,t1_Paradigm,2021.1.4,60.09604762687917,
D,right,Target,0,61,61,61,753.9236504182481,755.9236388693826,right,1,1,0.8188896531064529,W21A06,2022-11-15_16h26.08.495,t1_Paradigm,2021.1.4,60.09604762687917,
R,left,Distractor,0,62,62,62,757.4236237916921,759.4258293051244,left,1,1,0.7088799263874535,W21A06,2022-11-15_16h26.08.495,t1_Paradigm,2021.1.4,60.09604762687917,
F,left,Distractor,0,63,63,63,760.9236321325443,762.9255155608116,left,1,1,1.2250534776831046,W21A06,2022-11-15_16h26.08.495,t1_Paradigm,2021.1.4,60.09604762687917,
F,left,Distractor,0,0,0,0,967.7215198441554,969.7237070718838,left,1,2,1.274915404515923,W21A06,2022-11-15_16h26.08.495,t1_Paradigm,2021.1.4,60.09604762687917,
N,left,Pretarget,0,1,1,1,971.223557578167,973.2261025000626,None,0,2,,W21A06,2022-11-15_16h26.08.495,t1_Paradigm,2021.1.4,60.09604762687917,
V,left,Distractor,0,2,2,2,974.7236143601185,976.7257964550081,left,1,2,0.7367348392144777,W21A06,2022-11-15_16h26.08.495,t1_Paradigm,2021.1.4,60.09604762687917,
N,right,Target,0,3,3,3,978.2234382398456,980.2258051166573,right,1,2,0.8847929608309641,W21A06,2022-11-15_16h26.08.495,t1_Paradigm,2021.1.4,60.09604762687917,
N,left,Lure,0,4,4,4,981.7235726558574,983.7237112423027,left,1,2,0.9067502505495213,W21A06,2022-11-15_16h26.08.495,t1_Paradigm,2021.1.4,60.09604762687917,
X,left,Distractor,0,5,5,5,985.2235441044904,987.2257088760671,left,1,2,0.9889162924955599,W21A06,2022-11-15_16h26.08.495,t1_Paradigm,2021.1.4,60.09604762687917,
G,left,Pretarget,0,6,6,6,988.7236287962005,990.7251214876887,None,0,2,,W21A06,2022-11-15_16h26.08.495,t1_Paradigm,2021.1.4,60.09604762687917,
H,left,Pretarget,0,7,7,7,992.223657989176,994.2256713422394,None,0,2,,W21A06,2022-11-15_16h26.08.495,t1_Paradigm,2021.1.4,60.09604762687917,
G,right,Target,0,8,8,8,995.7236105104967,997.7258715226635,right,1,2,1.016637751716189,W21A06,2022-11-15_16h26.08.495,t1_Paradigm,2021.1.4,60.09604762687917,
H,right,Target,0,9,9,9,999.2235636734113,1001.2253646555764,right,1,2,0.9732736684527481,W21A06,2022-11-15_16h26.08.495,t1_Paradigm,2021.1.4,60.09604762687917,
T,left,Pretarget,0,10,10,10,1002.7236069816718,1004.7258731266775,left,1,2,1.0887607677141204,W21A06,2022-11-15_16h26.08.495,t1_Paradigm,2021.1.4,60.09604762687917,
K,left,Distractor,0,11,11,11,1006.2236236633762,1008.225346049061,left,1,2,1.2212057790602557,W21A06,2022-11-15_16h26.08.495,t1_Paradigm,2021.1.4,60.09604762687917,
T,right,Target,0,12,12,12,1009.7236903901794,1011.7258975076256,right,1,2,0.9205790603591595,W21A06,2022-11-15_16h26.08.495,t1_Paradigm,2021.1.4,60.09604762687917,
T,left,Lure,0,13,13,13,1013.2235639942082,1015.2236185305374,left,1,2,0.9749854676774703,W21A06,2022-11-15_16h26.08.495,t1_Paradigm,2021.1.4,60.09604762687917,
J,left,Distractor,0,14,14,14,1016.723554049342,1018.7364002427785,left,1,2,0.8699796098226216,W21A06,2022-11-15_16h26.08.495,t1_Paradigm,2021.1.4,60.09604762687917,
Q,left,Pretarget,0,15,15,15,1020.2236060192663,1022.2258561241615,left,1,2,1.0128141132299788,W21A06,2022-11-15_16h26.08.495,t1_Paradigm,2021.1.4,60.09604762687917,
M,left,Distractor,0,16,16,16,1023.7236332874309,1025.7265949310677,left,1,2,1.1281148265697993,W21A06,2022-11-15_16h26.08.495,t1_Paradigm,2021.1.4,60.09604762687917,
Q,right,Target,0,17,17,17,1027.2236114729021,1029.2252793222578,right,1,2,0.6855021256342297,W21A06,2022-11-15_16h26.08.495,t1_Paradigm,2021.1.4,60.09604762687917,
R,left,Distractor,0,18,18,18,1030.7235511621257,1032.725362409954,left,1,2,0.7371897363773314,W21A06,2022-11-15_16h26.08.495,t1_Paradigm,2021.1.4,60.09604762687917,
W,left,Distractor,0,19,19,19,1034.2235386508546,1036.2254230415274,left,1,2,0.8211112066492205,W21A06,2022-11-15_16h26.08.495,t1_Paradigm,2021.1.4,60.09604762687917,
C,left,Pretarget,0,20,20,20,1037.7235229315556,1039.726074911101,left,1,2,0.7127449483377859,W21A06,2022-11-15_16h26.08.495,t1_Paradigm,2021.1.4,60.09604762687917,
T,left,Distractor,0,21,21,21,1041.223597999211,1043.2255157532927,left,1,2,0.8769727716135094,W21A06,2022-11-15_16h26.08.495,t1_Paradigm,2021.1.4,60.09604762687917,
C,right,Target,0,22,22,22,1044.7234661496186,1046.7258497081348,right,1,2,0.8006587988929823,W21A06,2022-11-15_16h26.08.495,t1_Paradigm,2021.1.4,60.09604762687917,
F,left,Pretarget,0,23,23,23,1048.2236493275268,1050.2256203347351,left,1,2,1.2853090670250822,W21A06,2022-11-15_16h26.08.495,t1_Paradigm,2021.1.4,60.09604762687917,
C,right,Target,0,24,24,24,1051.7235935079952,1053.7252706606087,right,1,2,0.7772376898647053,W21A06,2022-11-15_16h26.08.495,t1_Paradigm,2021.1.4,60.09604762687917,
F,right,Target,0,25,25,25,1055.2236624804063,1057.225275793433,right,1,2,1.1816252340213396,W21A06,2022-11-15_16h26.08.495,t1_Paradigm,2021.1.4,60.09604762687917,
H,left,Distractor,0,26,26,26,1058.7236836533411,1060.7256713422394,left,1,2,0.7688795157591812,W21A06,2022-11-15_16h26.08.495,t1_Paradigm,2021.1.4,60.09604762687917,
H,left,Lure,0,27,27,27,1062.223569447844,1064.223599603225,left,1,2,0.9990834688214818,W21A06,2022-11-15_16h26.08.495,t1_Paradigm,2021.1.4,60.09604762687917,
P,left,Distractor,0,28,28,28,1065.723601848833,1067.725534039011,left,1,2,0.8573230103502283,W21A06,2022-11-15_16h26.08.495,t1_Paradigm,2021.1.4,60.09604762687917,
G,left,Pretarget,0,29,29,29,1069.2234119340865,1071.225655943752,left,1,2,1.2290150610060664,W21A06,2022-11-15_16h26.08.495,t1_Paradigm,2021.1.4,60.09604762687917,
K,left,Distractor,0,30,30,30,1072.7236028112384,1074.7258772970963,left,1,2,1.3288085287204012,W21A06,2022-11-15_16h26.08.495,t1_Paradigm,2021.1.4,60.09604762687917,
G,right,Target,0,31,31,31,1076.223615643321,1078.225161267139,right,1,2,0.5975144906260539,W21A06,2022-11-15_16h26.08.495,t1_Paradigm,2021.1.4,60.09604762687917,
M,left,Pretarget,0,32,32,32,1079.7230263301317,1081.7258371968492,left,1,2,1.1287878690782236,W21A06,2022-11-15_16h26.08.495,t1_Paradigm,2021.1.4,60.09604762687917,
B,left,Distractor,0,33,33,33,1083.2235707310465,1085.225682891105,left,1,2,1.0368710517359432,W21A06,2022-11-15_16h26.08.495,t1_Paradigm,2021.1.4,60.09604762687917,
M,right,Target,0,34,34,34,1086.7236227009707,1088.7257345402322,right,1,2,1.0249250285851303,W21A06,2022-11-15_16h26.08.495,t1_Paradigm,2021.1.4,60.09604762687917,
M,left,Lure,0,35,35,35,1090.2236024904414,1092.223777327512,left,1,2,1.2707427335117245,W21A06,2022-11-15_16h26.08.495,t1_Paradigm,2021.1.4,60.09604762687917,
T,left,Distractor,0,36,36,36,1093.7235376884491,1095.725842650485,left,1,2,1.2407878511148738,W21A06,2022-11-15_16h26.08.495,t1_Paradigm,2021.1.4,60.09604762687917,
F,left,Distractor,0,37,37,37,1097.2236826909357,1099.2259504399408,left,1,2,0.9725569968868513,W21A06,2022-11-15_16h26.08.495,t1_Paradigm,2021.1.4,60.09604762687917,
X,left,Distractor,0,38,38,38,1100.723647081919,1102.7257050264452,left,1,2,1.2327822383522289,W21A06,2022-11-15_16h26.08.495,t1_Paradigm,2021.1.4,60.09604762687917,
C,left,Distractor,0,39,39,39,1104.2235248563666,1106.2251872520865,left,1,2,1.0294826619356172,W21A06,2022-11-15_16h26.08.495,t1_Paradigm,2021.1.4,60.09604762687917,
R,left,Distractor,0,40,40,40,1107.7235967160086,1109.7228486058593,left,1,2,0.9237190698768245,W21A06,2022-11-15_16h26.08.495,t1_Paradigm,2021.1.4,60.09604762687917,
B,left,Pretarget,0,41,41,41,1111.2234789816866,1113.225751221922,left,1,2,1.2129419207194587,W21A06,2022-11-15_16h26.08.495,t1_Paradigm,2021.1.4,60.09604762687917,
H,left,Distractor,0,42,42,42,1114.7235264603805,1116.7256565853459,left,1,2,1.2649946041201474,W21A06,2022-11-15_16h26.08.495,t1_Paradigm,2021.1.4,60.09604762687917,
B,right,Target,0,43,43,43,1118.2236336082278,1120.225670059037,right,1,2,0.7729386228893418,W21A06,2022-11-15_16h26.08.495,t1_Paradigm,2021.1.4,60.09604762687917,
W,left,Pretarget,0,44,44,44,1121.7235402548686,1123.7252562245121,left,1,2,1.0012703757238341,W21A06,2022-11-15_16h26.08.495,t1_Paradigm,2021.1.4,60.09604762687917,
L,left,Pretarget,0,45,45,45,1125.2236807661247,1127.2254246455414,left,1,2,1.037107482770807,W21A06,2022-11-15_16h26.08.495,t1_Paradigm,2021.1.4,60.09604762687917,
W,right,Target,0,46,46,46,1128.723673387678,1130.7255998034088,right,1,2,0.545091601787135,W21A06,2022-11-15_16h26.08.495,t1_Paradigm,2021.1.4,60.09604762687917,
L,right,Target,0,47,47,47,1132.223597357617,1134.2252796430548,right,1,2,1.2372654456557939,W21A06,2022-11-15_16h26.08.495,t1_Paradigm,2021.1.4,60.09604762687917,
W,right,Target,0,48,48,48,1135.7235078538652,1137.7255263397528,right,1,2,0.8411003763612825,W21A06,2022-11-15_16h26.08.495,t1_Paradigm,2021.1.4,60.09604762687917,
X,left,Distractor,0,49,49,49,1139.2235781094932,1141.2254570465302,left,1,2,0.6371848601993406,W21A06,2022-11-15_16h26.08.495,t1_Paradigm,2021.1.4,60.09604762687917,
R,left,Distractor,0,50,50,50,1142.7234905305668,1144.7259963146207,left,1,2,1.0246619709942024,W21A06,2022-11-15_16h26.08.495,t1_Paradigm,2021.1.4,60.09604762687917,
V,left,Pretarget,0,51,51,51,1146.2236817285302,1148.2257598835859,left,1,2,1.2687374005035963,W21A06,2022-11-15_16h26.08.495,t1_Paradigm,2021.1.4,60.09604762687917,
Z,left,Distractor,0,52,52,52,1149.7237946508103,1151.7255151116842,left,1,2,1.2411185979144648,W21A06,2022-11-15_16h26.08.495,t1_Paradigm,2021.1.4,60.09604762687917,
V,right,Target,0,53,53,53,1153.2236531771487,1155.225392244538,right,1,2,0.9091700596763985,W21A06,2022-11-15_16h26.08.495,t1_Paradigm,2021.1.4,60.09604762687917,
V,left,Lure,0,54,54,54,1156.7234860393364,1158.7235822799266,left,1,2,0.914905036217533,W21A06,2022-11-15_16h26.08.495,t1_Paradigm,2021.1.4,60.09604762687917,
N,left,Distractor,0,55,55,55,1160.2234786608897,1162.2250233223021,left,1,2,1.3334800467564492,W21A06,2022-11-15_16h26.08.495,t1_Paradigm,2021.1.4,60.09604762687917,
B,left,Distractor,0,56,56,56,1163.7235479541123,1165.7258641442168,left,1,2,1.0326245962642133,W21A06,2022-11-15_16h26.08.495,t1_Paradigm,2021.1.4,60.09604762687917,
V,left,Lure,0,57,57,57,1167.2236688964476,1169.2258593321894,left,1,2,1.3249184842279647,W21A06,2022-11-15_16h26.08.495,t1_Paradigm,2021.1.4,60.09604762687917,
J,left,Distractor,0,58,58,58,1170.7236628012033,1172.7258529161481,None,0,2,,W21A06,2022-11-15_16h26.08.495,t1_Paradigm,2021.1.4,60.09604762687917,
H,left,Distractor,0,59,59,59,1174.2235306307994,1176.225754750747,left,1,2,1.1408387944538845,W21A06,2022-11-15_16h26.08.495,t1_Paradigm,2021.1.4,60.09604762687917,
X,left,Pretarget,0,60,60,60,1177.7226772976137,1179.7260264700017,left,1,2,0.8882287497690413,W21A06,2022-11-15_16h26.08.495,t1_Paradigm,2021.1.4,60.09604762687917,
P,left,Distractor,0,61,61,61,1181.2235100994876,1183.2253970565653,left,1,2,1.1650936677469872,W21A06,2022-11-15_16h26.08.495,t1_Paradigm,2021.1.4,60.09604762687917,
X,right,Target,0,62,62,62,1184.7235194027307,1186.725434269596,right,1,2,1.0251810285408283,W21A06,2022-11-15_16h26.08.495,t1_Paradigm,2021.1.4,60.09604762687917,
Q,left,Distractor,0,63,63,63,1188.2234918137692,1190.2253752420365,left,1,2,0.7732494799856795,W21A06,2022-11-15_16h26.08.495,t1_Paradigm,2021.1.4,60.09604762687917,
B,left,Pretarget,0,0,0,0,1231.9214898171049,1233.9254982375132,left,1,2,0.6887277892819839,W21A06,2022-11-15_16h26.08.495,t1_Paradigm,2021.1.4,60.09604762687917,
F,left,Distractor,0,1,1,1,1235.4235561024834,1237.4255524530308,left,1,2,0.6450781922758324,W21A06,2022-11-15_16h26.08.495,t1_Paradigm,2021.1.4,60.09604762687917,
B,right,Target,0,2,2,2,1238.9233886438597,1240.9256419567828,right,1,2,0.8249893814499956,W21A06,2022-11-15_16h26.08.495,t1_Paradigm,2021.1.4,60.09604762687917,
V,left,Distractor,0,3,3,3,1242.4234563330683,1244.4254520420218,left,1,2,0.781279152884963,W21A06,2022-11-15_16h26.08.495,t1_Paradigm,2021.1.4,60.09604762687917,
G,left,Pretarget,0,4,4,4,1245.92255038835,1247.9258617061278,left,1,2,1.0247951037890743,W21A06,2022-11-15_16h26.08.495,t1_Paradigm,2021.1.4,60.09604762687917,
B,left,Lure,0,5,5,5,1249.4237181074714,1251.4257378765615,left,1,2,1.252732591034146,W21A06,2022-11-15_16h26.08.495,t1_Paradigm,2021.1.4,60.09604762687917,
G,right,Target,0,6,6,6,1252.9235339671432,1254.9256599216897,right,1,2,0.8250006095186109,W21A06,2022-11-15_16h26.08.495,t1_Paradigm,2021.1.4,60.09604762687917,
Y,left,Pretarget,0,7,7,7,1256.4235317215353,1258.4258642725326,left,1,2,0.7811787418613676,W21A06,2022-11-15_16h26.08.495,t1_Paradigm,2021.1.4,60.09604762687917,
P,left,Distractor,0,8,8,8,1259.9234726939758,1261.925463911699,left,1,2,1.217021879987442,W21A06,2022-11-15_16h26.08.495,t1_Paradigm,2021.1.4,60.09604762687917,
Y,right,Target,0,9,9,9,1263.423564122524,1265.4251168039918,right,1,2,0.7094028335704934,W21A06,2022-11-15_16h26.08.495,t1_Paradigm,2021.1.4,60.09604762687917,
X,left,Distractor,0,10,10,10,1266.923641756599,1268.9252727137355,left,1,2,1.0491933755693026,W21A06,2022-11-15_16h26.08.495,t1_Paradigm,2021.1.4,60.09604762687917,
Y,right,Target,0,11,11,11,1270.4236388693826,1272.425798508135,right,1,2,0.9088306512130657,W21A06,2022-11-15_16h26.08.495,t1_Paradigm,2021.1.4,60.09604762687917,
N,left,Distractor,0,12,12,12,1273.9235294759128,1275.9257045131671,left,1,2,0.7686716360913124,W21A06,2022-11-15_16h26.08.495,t1_Paradigm,2021.1.4,60.09604762687917,
Y,right,Target,0,13,13,13,1277.423550007239,1279.4259229792951,None,0,2,,W21A06,2022-11-15_16h26.08.495,t1_Paradigm,2021.1.4,60.09604762687917,
Y,left,Lure,0,14,14,14,1280.923465315529,1282.9235387791705,left,1,2,0.9229343883052934,W21A06,2022-11-15_16h26.08.495,t1_Paradigm,2021.1.4,60.09604762687917,
K,left,Distractor,0,15,15,15,1284.4234836012329,1286.4255617562885,left,1,2,0.9089727664832026,W21A06,2022-11-15_16h26.08.495,t1_Paradigm,2021.1.4,60.09604762687917,
T,left,Pretarget,0,16,16,16,1287.9234454258112,1289.9258559316804,left,1,2,0.9287614349887008,W21A06,2022-11-15_16h26.08.495,t1_Paradigm,2021.1.4,60.09604762687917,
J,left,Distractor,0,17,17,17,1291.4235066989786,1293.425589024453,left,1,2,0.9649164567672415,W21A06,2022-11-15_16h26.08.495,t1_Paradigm,2021.1.4,60.09604762687917,
T,right,Target,0,18,18,18,1294.923507982181,1296.9258020369598,right,1,2,0.9526486692484468,W21A06,2022-11-15_16h26.08.495,t1_Paradigm,2021.1.4,60.09604762687917,
S,left,Pretarget,0,19,19,19,1298.4234771852061,1300.4258787086292,left,1,2,0.7646792557934532,W21A06,2022-11-15_16h26.08.495,t1_Paradigm,2021.1.4,60.09604762687917,
R,left,Distractor,0,20,20,20,1301.9234422177833,1303.9256140470097,left,1,2,0.9768628007150255,W21A06,2022-11-15_16h26.08.495,t1_Paradigm,2021.1.4,60.09604762687917,
S,right,Target,0,21,21,21,1305.4234313105262,1307.4253728039475,right,1,2,0.9652780005562818,W21A06,2022-11-15_16h26.08.495,t1_Paradigm,2021.1.4,60.09604762687917,
Q,left,Distractor,0,22,22,22,1308.9235621977132,1310.9255129943922,left,1,2,0.7769929179776227,W21A06,2022-11-15_16h26.08.495,t1_Paradigm,2021.1.4,60.09604762687917,
D,left,Distractor,0,23,23,23,1312.4235878618783,1314.425271430533,left,1,2,1.197415106173139,W21A06,2022-11-15_16h26.08.495,t1_Paradigm,2021.1.4,60.09604762687917,
F,left,Distractor,0,24,24,24,1315.9234293857153,1317.9253805031913,left,1,2,0.8170742348593194,W21A06,2022-11-15_16h26.08.495,t1_Paradigm,2021.1.4,60.09604762687917,
Z,left,Distractor,0,25,25,25,1319.4234396513784,1321.425461666091,left,1,2,1.045128814817872,W21A06,2022-11-15_16h26.08.495,t1_Paradigm,2021.1.4,60.09604762687917,
P,left,Distractor,0,26,26,26,1322.9234133456048,1324.9258905782917,left,1,2,1.1287163302185945,W21A06,2022-11-15_16h26.08.495,t1_Paradigm,2021.1.4,60.09604762687917,
H,left,Distractor,0,27,27,27,1326.4235195310612,1328.4251479217783,left,1,2,0.9894212347862776,W21A06,2022-11-15_16h26.08.495,t1_Paradigm,2021.1.4,60.09604762687917,
Z,left,Pretarget,0,28,28,28,1329.923526909508,1331.9258289843274,left,1,2,1.024886853148928,W21A06,2022-11-15_16h26.08.495,t1_Paradigm,2021.1.4,60.09604762687917,
J,left,Pretarget,0,29,29,29,1333.4235362127656,1335.4255187688395,left,1,2,1.2529225057951408,W21A06,2022-11-15_16h26.08.495,t1_Paradigm,2021.1.4,60.09604762687917,
Z,right,Target,0,30,30,30,1336.9236927641177,1338.924310307877,right,1,2,1.2422872794268187,W21A06,2022-11-15_16h26.08.495,t1_Paradigm,2021.1.4,60.09604762687917,
J,right,Target,0,31,31,31,1340.4234431801888,1342.425680453016,right,1,2,1.1327443195623346,W21A06,2022-11-15_16h26.08.495,t1_Paradigm,2021.1.4,60.09604762687917,
V,left,Pretarget,0,32,32,32,1343.9236154508399,1345.9254376059398,left,1,2,0.7691419317707187,W21A06,2022-11-15_16h26.08.495,t1_Paradigm,2021.1.4,60.09604762687917,
Z,left,Lure,0,33,33,33,1347.4234627491096,1349.4258068489871,left,1,2,1.1087143284239573,W21A06,2022-11-15_16h26.08.495,t1_Paradigm,2021.1.4,60.09604762687917,
V,right,Target,0,34,34,34,1350.9234592202847,1352.925678207408,right,1,2,0.7609601987496717,W21A06,2022-11-15_16h26.08.495,t1_Paradigm,2021.1.4,60.09604762687917,
X,left,Distractor,0,35,35,35,1354.4234316313232,1356.4254485132114,left,1,2,1.0370372271427186,W21A06,2022-11-15_16h26.08.495,t1_Paradigm,2021.1.4,60.09604762687917,
S,left,Distractor,0,36,36,36,1357.9234325937286,1359.925768352754,left,1,2,1.008827507350361,W21A06,2022-11-15_16h26.08.495,t1_Paradigm,2021.1.4,60.09604762687917,
Q,left,Distractor,0,37,37,37,1361.4234348393366,1363.4230062479328,left,1,2,0.8395528277324047,W21A06,2022-11-15_16h26.08.495,t1_Paradigm,2021.1.4,60.09604762687917,
P,left,Distractor,0,38,38,38,1364.9235134358169,1366.9256743577862,left,1,2,0.8888674664340215,W21A06,2022-11-15_16h26.08.495,t1_Paradigm,2021.1.4,60.09604762687917,
S,left,Lure,0,39,39,39,1368.4235297967243,1370.4254113001807,left,1,2,1.053045565422508,W21A06,2022-11-15_16h26.08.495,t1_Paradigm,2021.1.4,60.09604762687917,
K,left,Pretarget,0,40,40,40,1371.9234592202847,1373.925632974322,left,1,2,1.1851848524966044,W21A06,2022-11-15_16h26.08.495,t1_Paradigm,2021.1.4,60.09604762687917,
L,left,Distractor,0,41,41,41,1375.423512794223,1377.4253593302565,left,1,2,1.2051945535495179,W21A06,2022-11-15_16h26.08.495,t1_Paradigm,2021.1.4,60.09604762687917,
K,right,Target,0,42,42,42,1378.923469165151,1380.9252204230143,right,1,2,1.209414703262155,W21A06,2022-11-15_16h26.08.495,t1_Paradigm,2021.1.4,60.09604762687917,
B,left,Distractor,0,43,43,43,1382.4235121526144,1384.425691039476,left,1,2,0.9888527737057302,W21A06,2022-11-15_16h26.08.495,t1_Paradigm,2021.1.4,60.09604762687917,
N,left,Distractor,0,44,44,44,1385.92331902984,1387.9257892048772,left,1,2,1.2006664339714916,W21A06,2022-11-15_16h26.08.495,t1_Paradigm,2021.1.4,60.09604762687917,
S,left,Pretarget,0,45,45,45,1389.4234941877075,1391.4253484229994,left,1,2,1.1891916689055506,W21A06,2022-11-15_16h26.08.495,t1_Paradigm,2021.1.4,60.09604762687917,
Z,left,Distractor,0,46,46,46,1392.9235057365731,1394.925778939214,left,1,2,0.9206977570866002,W21A06,2022-11-15_16h26.08.495,t1_Paradigm,2021.1.4,60.09604762687917,
S,right,Target,0,47,47,47,1396.4234961125185,1398.4259021271719,right,1,2,0.7807767770136707,W21A06,2022-11-15_16h26.08.495,t1_Paradigm,2021.1.4,60.09604762687917,
C,left,Distractor,0,48,48,48,1399.9235756714043,1401.9256474104186,left,1,2,1.056918607413536,W21A06,2022-11-15_16h26.08.495,t1_Paradigm,2021.1.4,60.09604762687917,
T,left,Pretarget,0,49,49,49,1403.440374465703,1405.4257276108983,left,1,2,1.2368140773032792,W21A06,2022-11-15_16h26.08.495,t1_Paradigm,2021.1.4,60.09604762687917,
S,left,Lure,0,50,50,50,1406.9235176062502,1408.9257279317098,left,1,2,1.144958212331403,W21A06,2022-11-15_16h26.08.495,t1_Paradigm,2021.1.4,60.09604762687917,
T,right,Target,0,51,51,51,1410.4233382779494,1412.4254841222282,right,1,2,0.8612031099764863,W21A06,2022-11-15_16h26.08.495,t1_Paradigm,2021.1.4,60.09604762687917,
N,left,Pretarget,0,52,52,52,1413.9234159120242,1415.9255829292233,left,1,2,0.881078074206016,W21A06,2022-11-15_16h26.08.495,t1_Paradigm,2021.1.4,60.09604762687917,
B,left,Distractor,0,53,53,53,1417.4234059671726,1419.42512354083,left,1,2,1.077450574040995,W21A06,2022-11-15_16h26.08.495,t1_Paradigm,2021.1.4,60.09604762687917,
N,right,Target,0,54,54,54,1420.9235182478442,1422.9248171749641,right,1,2,0.7618638978456147,W21A06,2022-11-15_16h26.08.495,t1_Paradigm,2021.1.4,60.09604762687917,
N,left,Lure,0,55,55,55,1424.4234367641475,1426.4234945085045,left,1,2,0.9430736933427397,W21A06,2022-11-15_16h26.08.495,t1_Paradigm,2021.1.4,60.09604762687917,
X,left,Distractor,0,56,56,56,1427.9233989095228,1429.9253262876591,left,1,2,0.7368641224165913,W21A06,2022-11-15_16h26.08.495,t1_Paradigm,2021.1.4,60.09604762687917,
W,left,Distractor,0,57,57,57,1431.4235342879547,1433.4256053853605,left,1,2,1.077217671831022,W21A06,2022-11-15_16h26.08.495,t1_Paradigm,2021.1.4,60.09604762687917,
S,left,Distractor,0,58,58,58,1434.923335390733,1436.9253217964288,left,1,2,1.1132979467511177,W21A06,2022-11-15_16h26.08.495,t1_Paradigm,2021.1.4,60.09604762687917,
L,left,Distractor,0,59,59,59,1438.4233963431034,1440.425301585914,left,1,2,1.101140194296022,W21A06,2022-11-15_16h26.08.495,t1_Paradigm,2021.1.4,60.09604762687917,
K,left,Pretarget,0,60,60,60,1441.923493225302,1443.9254786685924,left,1,2,0.9291236203862354,W21A06,2022-11-15_16h26.08.495,t1_Paradigm,2021.1.4,60.09604762687917,
V,left,Pretarget,0,61,61,61,1445.4234418969863,1447.4365922106663,left,1,2,0.9538770199287683,W21A06,2022-11-15_16h26.08.495,t1_Paradigm,2021.1.4,60.09604762687917,
K,right,Target,0,62,62,62,1448.9227107893385,1450.9256403527688,right,1,2,0.8888665040431079,W21A06,2022-11-15_16h26.08.495,t1_Paradigm,2021.1.4,60.09604762687917,
V,right,Target,0,63,63,63,1452.4234742979897,1454.4240424382442,right,1,2,0.9905045829800656,W21A06,2022-11-15_16h26.08.495,t1_Paradigm,2021.1.4,60.09604762687917,
R,left,Distractor,0,0,0,0,1589.9549077566044,1591.9586858412076,None,0,3,,W21A06,2022-11-15_16h26.08.495,t1_Paradigm,2021.1.4,60.09604762687917,
P,left,Lure,0,1,1,1,1593.4566843578214,1595.4588703023328,None,0,3,,W21A06,2022-11-15_16h26.08.495,t1_Paradigm,2021.1.4,60.09604762687917,
V,left,Distractor,0,2,2,2,1596.9558971098304,1598.9589816206135,None,0,3,,W21A06,2022-11-15_16h26.08.495,t1_Paradigm,2021.1.4,60.09604762687917,
P,left,Pretarget,0,3,3,3,1600.45679792171,1602.4589315755002,left,1,3,1.019487756275339,W21A06,2022-11-15_16h26.08.495,t1_Paradigm,2021.1.4,60.09604762687917,
Z,left,Distractor,0,4,4,4,1603.9567745031673,1605.9590207584406,left,1,3,1.311631188102183,W21A06,2022-11-15_16h26.08.495,t1_Paradigm,2021.1.4,60.09604762687917,
L,left,Pretarget,0,5,5,5,1607.456681791402,1609.4589607684757,left,1,3,1.1715360125963343,W21A06,2022-11-15_16h26.08.495,t1_Paradigm,2021.1.4,60.09604762687917,
P,right,Target,0,6,6,6,1610.9567607086792,1612.958937029136,right,1,3,1.2874728761962615,W21A06,2022-11-15_16h26.08.495,t1_Paradigm,2021.1.4,60.09604762687917,
S,left,Distractor,0,7,7,7,1614.4566789041855,1616.4589995855204,left,1,3,0.9715047664794838,W21A06,2022-11-15_16h26.08.495,t1_Paradigm,2021.1.4,60.09604762687917,
L,right,Target,0,8,8,8,1617.9567671247205,1619.9586245680402,None,0,3,,W21A06,2022-11-15_16h26.08.495,t1_Paradigm,2021.1.4,60.09604762687917,
D,left,Distractor,0,9,9,9,1621.456737931745,1623.4588840968208,left,1,3,1.2675392052042298,W21A06,2022-11-15_16h26.08.495,t1_Paradigm,2021.1.4,60.09604762687917,
G,left,Distractor,0,10,10,10,1624.9566272550728,1626.95873299909,None,0,3,,W21A06,2022-11-15_16h26.08.495,t1_Paradigm,2021.1.4,60.09604762687917,
M,left,Pretarget,0,11,11,11,1628.4567324781092,1630.4590627834987,left,1,3,1.33945209592639,W21A06,2022-11-15_16h26.08.495,t1_Paradigm,2021.1.4,60.09604762687917,
Y,left,Distractor,0,12,12,12,1631.9568216610496,1633.9588269940723,left,1,3,1.1036851162061794,W21A06,2022-11-15_16h26.08.495,t1_Paradigm,2021.1.4,60.09604762687917,
V,left,Distractor,0,13,13,13,1635.4566506736155,1637.458833410099,left,1,3,1.1077252960094484,W21A06,2022-11-15_16h26.08.495,t1_Paradigm,2021.1.4,60.09604762687917,
M,right,Target,0,14,14,14,1638.9567141924053,1640.9590050391562,left,0,3,0.5194059517671121,W21A06,2022-11-15_16h26.08.495,t1_Paradigm,2021.1.4,60.09604762687917,
S,left,Pretarget,0,15,15,15,1642.4567924680741,1644.4586864828161,None,0,3,,W21A06,2022-11-15_16h26.08.495,t1_Paradigm,2021.1.4,60.09604762687917,
Q,left,Distractor,0,16,16,16,1645.9568200570502,1647.959093901285,left,1,3,0.9592998561565764,W21A06,2022-11-15_16h26.08.495,t1_Paradigm,2021.1.4,60.09604762687917,
R,left,Pretarget,0,17,17,17,1649.4568447587953,1651.4583409791085,right,0,3,1.444180780876195,W21A06,2022-11-15_16h26.08.495,t1_Paradigm,2021.1.4,60.09604762687917,
S,right,Target,0,18,18,18,1652.9565807387844,1654.9585613700474,right,1,3,0.9678421705757501,W21A06,2022-11-15_16h26.08.495,t1_Paradigm,2021.1.4,60.09604762687917,
F,left,Distractor,0,19,19,19,1656.4567459518003,1658.4589235554595,left,1,3,1.2276567855442408,W21A06,2022-11-15_16h26.08.495,t1_Paradigm,2021.1.4,60.09604762687917,
R,right,Target,0,20,20,20,1659.9567777111806,1661.9590772195952,right,1,3,1.0394169360370142,W21A06,2022-11-15_16h26.08.495,t1_Paradigm,2021.1.4,60.09604762687917,
P,left,Distractor,0,21,21,21,1663.4566445783712,1665.4588905128476,left,1,3,1.219498150254367,W21A06,2022-11-15_16h26.08.495,t1_Paradigm,2021.1.4,60.09604762687917,
L,left,Distractor,0,22,22,22,1666.95675204703,1668.9584994552715,left,1,3,1.319905632888549,W21A06,2022-11-15_16h26.08.495,t1_Paradigm,2021.1.4,60.09604762687917,
R,right,Target,0,23,23,23,1670.4567712951539,1672.4587496807944,right,1,3,1.0996686757425778,W21A06,2022-11-15_16h26.08.495,t1_Paradigm,2021.1.4,60.09604762687917,
H,left,Pretarget,0,24,24,24,1673.9567844480334,1675.9591330391268,left,1,3,0.8794791972759413,W21A06,2022-11-15_16h26.08.495,t1_Paradigm,2021.1.4,60.09604762687917,
G,left,Pretarget,0,25,25,25,1677.4567385733535,1679.4588860216318,left,1,3,1.4117412873456487,W21A06,2022-11-15_16h26.08.495,t1_Paradigm,2021.1.4,60.09604762687917,
T,left,Distractor,0,26,26,26,1680.9566542024404,1682.9585979414696,right,0,3,1.1919062950328225,W21A06,2022-11-15_16h26.08.495,t1_Paradigm,2021.1.4,60.09604762687917,
H,right,Target,0,27,27,27,1684.4566952650785,1686.4589482572046,None,0,3,,W21A06,2022-11-15_16h26.08.495,t1_Paradigm,2021.1.4,60.09604762687917,
G,right,Target,0,28,28,28,1687.9565207488195,1689.958792668258,left,0,3,1.1995936722523766,W21A06,2022-11-15_16h26.08.495,t1_Paradigm,2021.1.4,60.09604762687917,
D,left,Distractor,0,29,29,29,1691.4567388941505,1693.4588956456864,left,1,3,1.0277099103404908,W21A06,2022-11-15_16h26.08.495,t1_Paradigm,2021.1.4,60.09604762687917,
N,left,Pretarget,0,30,30,30,1694.956634312708,1696.9585170993814,left,1,3,0.8719846220337786,W21A06,2022-11-15_16h26.08.495,t1_Paradigm,2021.1.4,60.09604762687917,
V,left,Distractor,0,31,31,31,1698.4567087387695,1700.4587580216466,left,1,3,1.2441492139769252,W21A06,2022-11-15_16h26.08.495,t1_Paradigm,2021.1.4,60.09604762687917,
R,left,Distractor,0,32,32,32,1701.956639445547,1703.9587041269115,left,1,3,1.1996825343812816,W21A06,2022-11-15_16h26.08.495,t1_Paradigm,2021.1.4,60.09604762687917,
N,right,Target,0,33,33,33,1705.4566731297527,1707.4588135203812,right,1,3,0.9797602839535102,W21A06,2022-11-15_16h26.08.495,t1_Paradigm,2021.1.4,60.09604762687917,
Z,left,Distractor,0,34,34,34,1708.9566756961722,1710.9588093499624,left,1,3,1.1756968139234232,W21A06,2022-11-15_16h26.08.495,t1_Paradigm,2021.1.4,60.09604762687917,
N,left,Lure,0,35,35,35,1712.456766162315,1714.4586563274206,None,0,3,,W21A06,2022-11-15_16h26.08.495,t1_Paradigm,2021.1.4,60.09604762687917,
Y,left,Pretarget,0,36,36,36,1715.9567754655727,1717.958657289826,left,1,3,1.3118913584912661,W21A06,2022-11-15_16h26.08.495,t1_Paradigm,2021.1.4,60.09604762687917,
Y,left,Lure,0,37,37,37,1719.4567440269748,1721.4566153853957,left,1,3,1.3177758287201868,W21A06,2022-11-15_16h26.08.495,t1_Paradigm,2021.1.4,60.09604762687917,
B,left,Distractor,0,38,38,38,1722.9566371999244,1724.9581998262438,left,1,3,1.2403242922737263,W21A06,2022-11-15_16h26.08.495,t1_Paradigm,2021.1.4,60.09604762687917,
Y,right,Target,0,39,39,39,1726.4568110745895,1728.4585790141573,right,1,3,1.003910575818736,W21A06,2022-11-15_16h26.08.495,t1_Paradigm,2021.1.4,60.09604762687917,
J,left,Distractor,0,40,40,40,1729.9568053001567,1731.958468979079,None,0,3,,W21A06,2022-11-15_16h26.08.495,t1_Paradigm,2021.1.4,60.09604762687917,
X,left,Distractor,0,41,41,41,1733.4568213402526,1735.4590444977948,None,0,3,,W21A06,2022-11-15_16h26.08.495,t1_Paradigm,2021.1.4,60.09604762687917,
W,left,Pretarget,0,42,42,42,1736.956769370343,1738.9591019213403,left,1,3,1.2873089463973884,W21A06,2022-11-15_16h26.08.495,t1_Paradigm,2021.1.4,60.09604762687917,
S,left,Pretarget,0,43,43,43,1740.4566371999244,1742.4587089389534,left,1,3,1.0196924279152881,W21A06,2022-11-15_16h26.08.495,t1_Paradigm,2021.1.4,60.09604762687917,
R,left,Distractor,0,44,44,44,1743.9568691397435,1745.9585831845761,left,1,3,0.9759953522298019,W21A06,2022-11-15_16h26.08.495,t1_Paradigm,2021.1.4,60.09604762687917,
W,right,Target,0,45,45,45,1747.4566445783712,1749.4590563674574,right,1,3,0.8993156652722973,W21A06,2022-11-15_16h26.08.495,t1_Paradigm,2021.1.4,60.09604762687917,
S,right,Target,0,46,46,46,1750.9566702425363,1752.9562859217986,left,0,3,1.0823274053400382,W21A06,2022-11-15_16h26.08.495,t1_Paradigm,2021.1.4,60.09604762687917,
D,left,Distractor,0,47,47,47,1754.4568053001567,1756.458994773493,None,0,3,,W21A06,2022-11-15_16h26.08.495,t1_Paradigm,2021.1.4,60.09604762687917,
T,left,Distractor,0,48,48,48,1757.9565377513209,1759.9590056807501,right,0,3,1.0555019459861796,W21A06,2022-11-15_16h26.08.495,t1_Paradigm,2021.1.4,60.09604762687917,
S,right,Target,0,49,49,49,1761.4567052099446,1763.4590768987837,right,1,3,0.6274546161585022,W21A06,2022-11-15_16h26.08.495,t1_Paradigm,2021.1.4,60.09604762687917,
K,left,Distractor,0,50,50,50,1764.9567154756078,1766.9583429039194,left,1,3,0.8241392562777037,W21A06,2022-11-15_16h26.08.495,t1_Paradigm,2021.1.4,60.09604762687917,
S,left,Lure,0,51,51,51,1768.4565977412858,1770.4587150341831,left,1,3,1.3877286195202032,W21A06,2022-11-15_16h26.08.495,t1_Paradigm,2021.1.4,60.09604762687917,
T,left,Pretarget,0,52,52,52,1771.956651636021,1773.9571812800423,left,1,3,1.441342966791126,W21A06,2022-11-15_16h26.08.495,t1_Paradigm,2021.1.4,60.09604762687917,
V,left,Distractor,0,53,53,53,1775.456694302673,1777.4589251594589,left,1,3,1.1555732281849487,W21A06,2022-11-15_16h26.08.495,t1_Paradigm,2021.1.4,60.09604762687917,
B,left,Distractor,0,54,54,54,1778.9568607988913,1780.9589537108404,left,1,3,1.2715524376544636,W21A06,2022-11-15_16h26.08.495,t1_Paradigm,2021.1.4,60.09604762687917,
T,right,Target,0,55,55,55,1782.4566166686127,1784.4588555454393,None,0,3,,W21A06,2022-11-15_16h26.08.495,t1_Paradigm,2021.1.4,60.09604762687917,
Y,left,Pretarget,0,56,56,56,1785.9567161172163,1787.95876122966,left,1,3,0.9118343199079391,W21A06,2022-11-15_16h26.08.495,t1_Paradigm,2021.1.4,60.09604762687917,
T,left,Lure,0,57,57,57,1789.456637520736,1791.45897745018,left,1,3,1.1554801956081064,W21A06,2022-11-15_16h26.08.495,t1_Paradigm,2021.1.4,60.09604762687917,
P,left,Pretarget,0,58,58,58,1792.9567129091884,1794.9590194752382,right,0,3,1.1915534128929721,W21A06,2022-11-15_16h26.08.495,t1_Paradigm,2021.1.4,60.09604762687917,
Y,right,Target,0,59,59,59,1796.4566397663439,1798.458428558035,left,0,3,1.2442300560651347,W21A06,2022-11-15_16h26.08.495,t1_Paradigm,2021.1.4,60.09604762687917,
R,left,Distractor,0,60,60,60,1799.9566404079524,1801.9587820817978,left,1,3,1.4397431274701376,W21A06,2022-11-15_16h26.08.495,t1_Paradigm,2021.1.4,60.09604762687917,
P,right,Target,0,61,61,61,1803.4567712951539,1805.4583111445245,None,0,3,,W21A06,2022-11-15_16h26.08.495,t1_Paradigm,2021.1.4,60.09604762687917,
L,left,Distractor,0,62,62,62,1806.9566493903985,1808.9584166883724,None,0,3,,W21A06,2022-11-15_16h26.08.495,t1_Paradigm,2021.1.4,60.09604762687917,
V,left,Distractor,0,63,63,63,1810.4566169894097,1812.4589309339062,left,1,3,1.0194887186808046,W21A06,2022-11-15_16h26.08.495,t1_Paradigm,2021.1.4,60.09604762687917,
H,left,Lure,0,0,0,0,1882.9880010445195,1884.992036733107,None,0,3,,W21A06,2022-11-15_16h26.08.495,t1_Paradigm,2021.1.4,60.09604762687917,
B,left,Distractor,0,1,1,1,1886.4898228788225,1888.4918461767375,None,0,3,,W21A06,2022-11-15_16h26.08.495,t1_Paradigm,2021.1.4,60.09604762687917,
T,left,Distractor,0,2,2,2,1889.9900038111227,1891.9922381967335,None,0,3,,W21A06,2022-11-15_16h26.08.495,t1_Paradigm,2021.1.4,60.09604762687917,
R,left,Distractor,0,3,3,3,1893.48989473845,1895.4920248634298,left,1,3,0.7704411796876229,W21A06,2022-11-15_16h26.08.495,t1_Paradigm,2021.1.4,60.09604762687917,
H,left,Pretarget,0,4,4,4,1896.9900073399476,1898.9917233095912,left,1,3,1.4468735924747307,W21A06,2022-11-15_16h26.08.495,t1_Paradigm,2021.1.4,60.09604762687917,
K,left,Distractor,0,5,5,5,1900.489910457749,1902.4923004323064,None,0,3,,W21A06,2022-11-15_16h26.08.495,t1_Paradigm,2021.1.4,60.09604762687917,
G,left,Distractor,0,6,6,6,1903.9900192096102,1905.992268031303,None,0,3,,W21A06,2022-11-15_16h26.08.495,t1_Paradigm,2021.1.4,60.09604762687917,
H,right,Target,0,7,7,7,1907.4899277810619,1909.4921737155382,None,0,3,,W21A06,2022-11-15_16h26.08.495,t1_Paradigm,2021.1.4,60.09604762687917,
Y,left,Pretarget,0,8,8,8,1910.9900272296654,1912.9906165428547,left,1,3,1.0319287768361391,W21A06,2022-11-15_16h26.08.495,t1_Paradigm,2021.1.4,60.09604762687917,
S,left,Distractor,0,9,9,9,1914.4899274602503,1916.502768200051,left,1,3,0.7837753128696932,W21A06,2022-11-15_16h26.08.495,t1_Paradigm,2021.1.4,60.09604762687917,
P,left,Distractor,0,10,10,10,1917.9899139865738,1919.992197134081,left,1,3,0.7660574209730839,W21A06,2022-11-15_16h26.08.495,t1_Paradigm,2021.1.4,60.09604762687917,
Y,right,Target,0,11,11,11,1921.4898774151516,1923.4922317806922,right,1,3,0.626105643925257,W21A06,2022-11-15_16h26.08.495,t1_Paradigm,2021.1.4,60.09604762687917,
H,left,Lure,0,12,12,12,1924.9900022071088,1926.99142047255,None,0,3,,W21A06,2022-11-15_16h26.08.495,t1_Paradigm,2021.1.4,60.09604762687917,
Q,left,Distractor,0,13,13,13,1928.4898700367048,1930.4921307280747,None,0,3,,W21A06,2022-11-15_16h26.08.495,t1_Paradigm,2021.1.4,60.09604762687917,
V,left,Pretarget,0,14,14,14,1931.9900002822978,1933.9922840714135,left,1,3,0.6227134840737563,W21A06,2022-11-15_16h26.08.495,t1_Paradigm,2021.1.4,60.09604762687917,
G,left,Distractor,0,15,15,15,1935.4899473499827,1937.489091450363,left,1,3,0.6137919817410875,W21A06,2022-11-15_16h26.08.495,t1_Paradigm,2021.1.4,60.09604762687917,
Z,left,Pretarget,0,16,16,16,1938.9899146281823,1940.9921544674144,left,1,3,0.6463976507075131,W21A06,2022-11-15_16h26.08.495,t1_Paradigm,2021.1.4,60.09604762687917,
V,right,Target,0,17,17,17,1942.48996980612,1944.4922205526236,left,0,3,0.7303720532654552,W21A06,2022-11-15_16h26.08.495,t1_Paradigm,2021.1.4,60.09604762687917,
N,left,Distractor,0,18,18,18,1945.9898876808147,1947.992253595221,left,1,3,1.086135645324248,W21A06,2022-11-15_16h26.08.495,t1_Paradigm,2021.1.4,60.09604762687917,
Z,right,Target,0,19,19,19,1949.4898905680311,1951.4916697356675,right,1,3,0.9468864245573059,W21A06,2022-11-15_16h26.08.495,t1_Paradigm,2021.1.4,60.09604762687917,
R,left,Distractor,0,20,20,20,1952.9900240216375,1954.9921012142877,None,0,3,,W21A06,2022-11-15_16h26.08.495,t1_Paradigm,2021.1.4,60.09604762687917,
P,left,Distractor,0,21,21,21,1956.4899479915766,1958.4920258258353,None,0,3,,W21A06,2022-11-15_16h26.08.495,t1_Paradigm,2021.1.4,60.09604762687917,
Z,right,Target,0,22,22,22,1959.9899088537495,1961.9917958108272,None,0,3,,W21A06,2022-11-15_16h26.08.495,t1_Paradigm,2021.1.4,60.09604762687917,
D,left,Pretarget,0,23,23,23,1963.4900506482081,1965.4916466379218,None,0,3,,W21A06,2022-11-15_16h26.08.495,t1_Paradigm,2021.1.4,60.09604762687917,
K,left,Distractor,0,24,24,24,1966.9899996406893,1968.9921118007624,right,0,3,1.4464042592298938,W21A06,2022-11-15_16h26.08.495,t1_Paradigm,2021.1.4,60.09604762687917,
W,left,Distractor,0,25,25,25,1970.4901276406745,1972.4920864574087,left,1,3,0.9223813257267466,W21A06,2022-11-15_16h26.08.495,t1_Paradigm,2021.1.4,60.09604762687917,
D,right,Target,0,26,26,26,1973.9899723725248,1975.9918352694804,left,0,3,1.3746103860321455,W21A06,2022-11-15_16h26.08.495,t1_Paradigm,2021.1.4,60.09604762687917,
G,left,Pretarget,0,27,27,27,1977.4899582572398,1979.4922766929667,left,1,3,1.3622486035601469,W21A06,2022-11-15_16h26.08.495,t1_Paradigm,2021.1.4,60.09604762687917,
V,left,Distractor,0,28,28,28,1980.9898491845815,1982.9920280714432,right,0,3,1.046545155433705,W21A06,2022-11-15_16h26.08.495,t1_Paradigm,2021.1.4,60.09604762687917,
D,right,Target,0,29,29,29,1984.4890840719163,1986.492079720556,left,0,3,1.0342799343488878,W21A06,2022-11-15_16h26.08.495,t1_Paradigm,2021.1.4,60.09604762687917,
G,right,Target,0,30,30,30,1987.9899675604975,1989.9920540564053,right,1,3,0.8785511172318365,W21A06,2022-11-15_16h26.08.495,t1_Paradigm,2021.1.4,60.09604762687917,
B,left,Pretarget,0,31,31,31,1991.4899617860647,1993.492121424817,left,1,3,0.8022223876178032,W21A06,2022-11-15_16h26.08.495,t1_Paradigm,2021.1.4,60.09604762687917,
N,left,Distractor,0,32,32,32,1994.9899518411985,1996.9920165225776,left,1,3,0.7583106954116374,W21A06,2022-11-15_16h26.08.495,t1_Paradigm,2021.1.4,60.09604762687917,
F,left,Distractor,0,33,33,33,1998.4899880918238,2000.4922288934758,left,1,3,1.2102536003512796,W21A06,2022-11-15_16h26.08.495,t1_Paradigm,2021.1.4,60.09604762687917,
B,right,Target,0,34,34,34,2001.9899726933363,2003.9919000714726,right,1,3,0.8626165633904748,W21A06,2022-11-15_16h26.08.495,t1_Paradigm,2021.1.4,60.09604762687917,
Q,left,Pretarget,0,35,35,35,2005.490158758461,2007.4920601516496,left,1,3,1.186335248305113,W21A06,2022-11-15_16h26.08.495,t1_Paradigm,2021.1.4,60.09604762687917,
S,left,Pretarget,0,36,36,36,2008.9899034001137,2010.9921307280747,None,0,3,,W21A06,2022-11-15_16h26.08.495,t1_Paradigm,2021.1.4,60.09604762687917,
W,left,Distractor,0,37,37,37,2012.4900009239063,2014.4922458959772,left,1,3,1.3541233316791477,W21A06,2022-11-15_16h26.08.495,t1_Paradigm,2021.1.4,60.09604762687917,
Q,right,Target,0,38,38,38,2015.99003685372,2017.9923357205262,right,1,3,0.8141873380809557,W21A06,2022-11-15_16h26.08.495,t1_Paradigm,2021.1.4,60.09604762687917,
S,right,Target,0,39,39,39,2019.4899011544912,2021.4920996102883,right,1,3,1.1383644489833387,W21A06,2022-11-15_16h26.08.495,t1_Paradigm,2021.1.4,60.09604762687917,
T,left,Distractor,0,40,40,40,2022.9900307584903,2024.9918096053152,left,1,3,0.9505162986606592,W21A06,2022-11-15_16h26.08.495,t1_Paradigm,2021.1.4,60.09604762687917,
G,left,Distractor,0,41,41,41,2026.4900445529638,2028.4916062168777,right,0,3,1.3707617249892792,W21A06,2022-11-15_16h26.08.495,t1_Paradigm,2021.1.4,60.09604762687917,
D,left,Distractor,0,42,42,42,2029.989910457749,2031.991945304544,right,0,3,1.2625982135214144,W21A06,2022-11-15_16h26.08.495,t1_Paradigm,2021.1.4,60.09604762687917,
S,left,Lure,0,43,43,43,2033.4899438211578,2035.492439981157,right,0,3,1.458041350080748,W21A06,2022-11-15_16h26.08.495,t1_Paradigm,2021.1.4,60.09604762687917,
Z,left,Pretarget,0,44,44,44,2036.9897000116762,2038.991860612834,left,1,3,0.6306276682735188,W21A06,2022-11-15_16h26.08.495,t1_Paradigm,2021.1.4,60.09604762687917,
J,left,Distractor,0,45,45,45,2040.489982317391,2042.4918785777409,left,1,3,0.7626562786608702,W21A06,2022-11-15_16h26.08.495,t1_Paradigm,2021.1.4,60.09604762687917,
M,left,Pretarget,0,46,46,46,2043.989925856251,2045.9922311390837,left,1,3,0.9584208588057663,W21A06,2022-11-15_16h26.08.495,t1_Paradigm,2021.1.4,60.09604762687917,
Z,right,Target,0,47,47,47,2047.489940292333,2049.492112763168,right,1,3,1.0743760081095388,W21A06,2022-11-15_16h26.08.495,t1_Paradigm,2021.1.4,60.09604762687917,
P,left,Distractor,0,48,48,48,2050.9900038111227,2052.990836292185,left,1,3,1.2236137185245752,W21A06,2022-11-15_16h26.08.495,t1_Paradigm,2021.1.4,60.09604762687917,
M,right,Target,0,49,49,49,2054.4899335554946,2056.492013635361,right,1,3,1.0823190644878196,W21A06,2022-11-15_16h26.08.495,t1_Paradigm,2021.1.4,60.09604762687917,
K,left,Distractor,0,50,50,50,2057.989954407618,2059.9920854950033,left,1,3,1.0543310188513715,W21A06,2022-11-15_16h26.08.495,t1_Paradigm,2021.1.4,60.09604762687917,
Y,left,Distractor,0,51,51,51,2061.4899855254043,2063.4923527230276,left,1,3,1.0901164767710725,W21A06,2022-11-15_16h26.08.495,t1_Paradigm,2021.1.4,60.09604762687917,
X,left,Distractor,0,52,52,52,2064.989956332429,2066.989033706006,left,1,3,1.0496928642096464,W21A06,2022-11-15_16h26.08.495,t1_Paradigm,2021.1.4,60.09604762687917,
F,left,Pretarget,0,53,53,53,2068.4898636206635,2070.492233705503,left,1,3,1.3541204444481991,W21A06,2022-11-15_16h26.08.495,t1_Paradigm,2021.1.4,60.09604762687917,
M,left,Lure,0,54,54,54,2071.9899852046074,2073.9920572644187,right,0,3,1.022385881122318,W21A06,2022-11-15_16h26.08.495,t1_Paradigm,2021.1.4,60.09604762687917,
V,left,Distractor,0,55,55,55,2075.489818387592,2077.491588251971,left,1,3,0.8827452819678001,W21A06,2022-11-15_16h26.08.495,t1_Paradigm,2021.1.4,60.09604762687917,
F,right,Target,0,56,56,56,2078.9899492747936,2080.9922266478534,right,1,3,1.0463080828048987,W21A06,2022-11-15_16h26.08.495,t1_Paradigm,2021.1.4,60.09604762687917,
S,left,Distractor,0,57,57,57,2082.4899435003463,2084.4921105175454,left,1,3,1.00222219513671,W21A06,2022-11-15_16h26.08.495,t1_Paradigm,2021.1.4,60.09604762687917,
D,left,Distractor,0,58,58,58,2085.990048723397,2087.9917021366564,left,1,3,1.2788137898751302,W21A06,2022-11-15_16h26.08.495,t1_Paradigm,2021.1.4,60.09604762687917,
F,right,Target,0,59,59,59,2089.4898770943546,2091.4922298558813,None,0,3,,W21A06,2022-11-15_16h26.08.495,t1_Paradigm,2021.1.4,60.09604762687917,
V,left,Pretarget,0,60,60,60,2092.990008943947,2094.9899726933363,right,0,3,1.1443499718297971,W21A06,2022-11-15_16h26.08.495,t1_Paradigm,2021.1.4,60.09604762687917,
J,left,Distractor,0,61,61,61,2096.489643871333,2098.4920046529005,left,1,3,1.002373292853008,W21A06,2022-11-15_16h26.08.495,t1_Paradigm,2021.1.4,60.09604762687917,
V,left,Lure,0,62,62,62,2099.989165234816,2101.991996953657,left,1,3,1.2145671034231782,W21A06,2022-11-15_16h26.08.495,t1_Paradigm,2021.1.4,60.09604762687917,
V,right,Target,0,63,63,63,2103.48970771092,2105.490033324895,right,1,3,1.1403851804789156,W21A06,2022-11-15_16h26.08.495,t1_Paradigm,2021.1.4,60.09604762687917,
R,left,Distractor,0,0,0,0,2223.9045344714395,2225.9084373480146,left,1,4,0.5780402080417844,W21A06,2022-11-15_16h26.08.495,t1_Paradigm,2021.1.4,60.09604762687917,
F,left,Distractor,0,1,1,1,2227.4064862305386,2229.4083789620636,left,1,4,0.6461073249374749,W21A06,2022-11-15_16h26.08.495,t1_Paradigm,2021.1.4,60.09604762687917,
P,left,Pretarget,0,2,2,2,2230.9066524059454,2232.908295874353,left,1,4,0.6340114872728009,W21A06,2022-11-15_16h26.08.495,t1_Paradigm,2021.1.4,60.09604762687917,
H,left,Distractor,0,3,3,3,2234.4064307317894,2236.40830774403,left,1,4,1.0699960990459658,W21A06,2022-11-15_16h26.08.495,t1_Paradigm,2021.1.4,60.09604762687917,
Z,left,Distractor,0,4,4,4,2237.9066469523095,2239.9087138792966,left,1,4,0.673734147567302,W21A06,2022-11-15_16h26.08.495,t1_Paradigm,2021.1.4,60.09604762687917,
T,left,Distractor,0,5,5,5,2241.4066572179727,2243.4071291176515,left,1,4,0.599386370027787,W21A06,2022-11-15_16h26.08.495,t1_Paradigm,2021.1.4,60.09604762687917,
P,right,Target,0,6,6,6,2244.906670370852,2246.9085095284536,right,1,4,0.681846587365726,W21A06,2022-11-15_16h26.08.495,t1_Paradigm,2021.1.4,60.09604762687917,
G,left,Distractor,0,7,7,7,2248.4065253683657,2250.408452425705,left,1,4,0.7178610978880897,W21A06,2022-11-15_16h26.08.495,t1_Paradigm,2021.1.4,60.09604762687917,
L,left,Distractor,0,8,8,8,2251.906558090166,2253.908732165015,left,1,4,0.7693087487859884,W21A06,2022-11-15_16h26.08.495,t1_Paradigm,2021.1.4,60.09604762687917,
P,left,Lure,0,9,9,9,2255.4065462205035,2257.408190009708,right,0,4,1.3661492345127044,W21A06,2022-11-15_16h26.08.495,t1_Paradigm,2021.1.4,60.09604762687917,
Q,left,Pretarget,0,10,10,10,2258.9065391628537,2260.905928997541,left,1,4,0.9564421523537021,W21A06,2022-11-15_16h26.08.495,t1_Paradigm,2021.1.4,60.09604762687917,
D,left,Distractor,0,11,11,11,2262.406637328255,2264.408730561001,left,1,4,1.3095135744224535,W21A06,2022-11-15_16h26.08.495,t1_Paradigm,2021.1.4,60.09604762687917,
M,left,Pretarget,0,12,12,12,2265.9064762856724,2267.9086336788023,left,1,4,1.2021539926354308,W21A06,2022-11-15_16h26.08.495,t1_Paradigm,2021.1.4,60.09604762687917,
C,left,Distractor,0,13,13,13,2269.406639253066,2271.408396285362,left,1,4,0.8859610007493757,W21A06,2022-11-15_16h26.08.495,t1_Paradigm,2021.1.4,60.09604762687917,
Q,right,Target,0,14,14,14,2272.9065022706345,2274.908512094873,right,1,4,1.4337746071105357,W21A06,2022-11-15_16h26.08.495,t1_Paradigm,2021.1.4,60.09604762687917,
R,left,Distractor,0,15,15,15,2276.406563223005,2278.408237488402,right,0,4,0.9901468887983356,W21A06,2022-11-15_16h26.08.495,t1_Paradigm,2021.1.4,60.09604762687917,
M,right,Target,0,16,16,16,2279.9062738596404,2281.906939844499,None,0,4,,W21A06,2022-11-15_16h26.08.495,t1_Paradigm,2021.1.4,60.09604762687917,
S,left,Distractor,0,17,17,17,2283.4064926465653,2285.4084713530174,left,1,4,0.9658612185157835,W21A06,2022-11-15_16h26.08.495,t1_Paradigm,2021.1.4,60.09604762687917,
Z,left,Distractor,0,18,18,18,2286.9063264711585,2288.908564706391,left,1,4,1.0337454783002613,W21A06,2022-11-15_16h26.08.495,t1_Paradigm,2021.1.4,60.09604762687917,
L,left,Pretarget,0,19,19,19,2290.4065847167367,2292.40859710738,left,1,4,1.0857699311018223,W21A06,2022-11-15_16h26.08.495,t1_Paradigm,2021.1.4,60.09604762687917,
M,right,Target,0,20,20,20,2293.9064884761465,2295.9088258391857,left,0,4,1.4416875081078615,W21A06,2022-11-15_16h26.08.495,t1_Paradigm,2021.1.4,60.09604762687917,
P,left,Distractor,0,21,21,21,2297.406605248063,2299.4088970572193,None,0,4,,W21A06,2022-11-15_16h26.08.495,t1_Paradigm,2021.1.4,60.09604762687917,
F,left,Distractor,0,22,22,22,2300.906540125259,2302.908806911859,left,1,4,1.4175131560768932,W21A06,2022-11-15_16h26.08.495,t1_Paradigm,2021.1.4,60.09604762687917,
L,right,Target,0,23,23,23,2304.4066254585778,2306.4086503605067,right,1,4,1.4377047518501058,W21A06,2022-11-15_16h26.08.495,t1_Paradigm,2021.1.4,60.09604762687917,
L,left,Lure,0,24,24,24,2307.9064727568475,2309.906531784407,left,1,4,1.2039062129188096,W21A06,2022-11-15_16h26.08.495,t1_Paradigm,2021.1.4,60.09604762687917,
V,left,Pretarget,0,25,25,25,2311.4065552029497,2313.4086032026244,left,1,4,0.597886300078244,W21A06,2022-11-15_16h26.08.495,t1_Paradigm,2021.1.4,60.09604762687917,
Z,left,Distractor,0,26,26,26,2314.906530180393,2316.9085906913533,left,1,4,1.2897820086509455,W21A06,2022-11-15_16h26.08.495,t1_Paradigm,2021.1.4,60.09604762687917,
H,left,Distractor,0,27,27,27,2318.4065382004483,2320.4083882653213,left,1,4,1.1498796351079363,W21A06,2022-11-15_16h26.08.495,t1_Paradigm,2021.1.4,60.09604762687917,
X,left,Distractor,0,28,28,28,2321.906403142828,2323.908628545978,left,1,4,0.6898047214344842,W21A06,2022-11-15_16h26.08.495,t1_Paradigm,2021.1.4,60.09604762687917,
V,right,Target,0,29,29,29,2325.406573488668,2327.4089416486822,right,1,4,0.8374095498875249,W21A06,2022-11-15_16h26.08.495,t1_Paradigm,2021.1.4,60.09604762687917,
C,left,Distractor,0,30,30,30,2328.906543974881,2330.908630791586,left,1,4,0.9856996113230707,W21A06,2022-11-15_16h26.08.495,t1_Paradigm,2021.1.4,60.09604762687917,
S,left,Pretarget,0,31,31,31,2332.406620004942,2334.408471994626,left,1,4,0.7658190651272889,W21A06,2022-11-15_16h26.08.495,t1_Paradigm,2021.1.4,60.09604762687917,
D,left,Distractor,0,32,32,32,2335.906473719253,2337.9081627415435,left,1,4,0.7859535581519594,W21A06,2022-11-15_16h26.08.495,t1_Paradigm,2021.1.4,60.09604762687917,
V,left,Distractor,0,33,33,33,2339.4065382004483,2341.4089981098223,right,0,4,0.6934929815033684,W21A06,2022-11-15_16h26.08.495,t1_Paradigm,2021.1.4,60.09604762687917,
R,left,Distractor,0,34,34,34,2342.9066488771205,2344.907240756729,left,1,4,0.7792555341584375,W21A06,2022-11-15_16h26.08.495,t1_Paradigm,2021.1.4,60.09604762687917,
S,right,Target,0,35,35,35,2346.406571563857,2348.408554119931,left,0,4,1.181791409428115,W21A06,2022-11-15_16h26.08.495,t1_Paradigm,2021.1.4,60.09604762687917,
Y,left,Distractor,0,36,36,36,2349.9065253683657,2351.9056357845548,left,1,4,0.8206534222408663,W21A06,2022-11-15_16h26.08.495,t1_Paradigm,2021.1.4,60.09604762687917,
N,left,Pretarget,0,37,37,37,2353.406154521319,2355.4081569671107,left,1,4,0.9983485115371877,W21A06,2022-11-15_16h26.08.495,t1_Paradigm,2021.1.4,60.09604762687917,
Z,left,Pretarget,0,38,38,38,2356.9063915939623,2358.905573869779,None,0,4,,W21A06,2022-11-15_16h26.08.495,t1_Paradigm,2021.1.4,60.09604762687917,
P,left,Pretarget,0,39,39,39,2360.4065709222486,2362.408464936976,left,1,4,1.277984196014586,W21A06,2022-11-15_16h26.08.495,t1_Paradigm,2021.1.4,60.09604762687917,
M,left,Distractor,0,40,40,40,2363.9065343508264,2365.9087796436943,left,1,4,0.8976952946104575,W21A06,2022-11-15_16h26.08.495,t1_Paradigm,2021.1.4,60.09604762687917,
N,right,Target,0,41,41,41,2367.4056399549736,2369.4087937589793,right,1,4,0.8375404370890465,W21A06,2022-11-15_16h26.08.495,t1_Paradigm,2021.1.4,60.09604762687917,
Z,right,Target,0,42,42,42,2370.9232847040257,2372.9054930276907,left,0,4,0.7170863611681852,W21A06,2022-11-15_16h26.08.495,t1_Paradigm,2021.1.4,60.09604762687917,
P,right,Target,0,43,43,43,2374.406433298209,2376.4088033830485,None,0,4,,W21A06,2022-11-15_16h26.08.495,t1_Paradigm,2021.1.4,60.09604762687917,
X,left,Pretarget,0,44,44,44,2377.9064711528335,2379.9085515535116,left,1,4,0.9143182894331403,W21A06,2022-11-15_16h26.08.495,t1_Paradigm,2021.1.4,60.09604762687917,
Z,left,Lure,0,45,45,45,2381.4064762856724,2383.4087619995844,left,1,4,1.3015047536464408,W21A06,2022-11-15_16h26.08.495,t1_Paradigm,2021.1.4,60.09604762687917,
R,left,Pretarget,0,46,46,46,2384.906243062651,2386.907963523525,right,0,4,1.2262840739713283,W21A06,2022-11-15_16h26.08.495,t1_Paradigm,2021.1.4,60.09604762687917,
K,left,Distractor,0,47,47,47,2388.4065972280077,2390.4086856487265,right,0,4,1.197831507117371,W21A06,2022-11-15_16h26.08.495,t1_Paradigm,2021.1.4,60.09604762687917,
X,right,Target,0,48,48,48,2391.906441318264,2393.9084655785846,right,1,4,1.1858392884896602,W21A06,2022-11-15_16h26.08.495,t1_Paradigm,2021.1.4,60.09604762687917,
B,left,Distractor,0,49,49,49,2395.4064990626066,2397.408568556013,left,1,4,0.9017993140005274,W21A06,2022-11-15_16h26.08.495,t1_Paradigm,2021.1.4,60.09604762687917,
R,right,Target,0,50,50,50,2398.906441318264,2400.9087966461957,None,0,4,,W21A06,2022-11-15_16h26.08.495,t1_Paradigm,2021.1.4,60.09604762687917,
Y,left,Pretarget,0,51,51,51,2402.406517669122,2404.4087295985955,None,0,4,,W21A06,2022-11-15_16h26.08.495,t1_Paradigm,2021.1.4,60.09604762687917,
W,left,Pretarget,0,52,52,52,2405.9065888871555,2407.908785418127,left,1,4,1.121620832622284,W21A06,2022-11-15_16h26.08.495,t1_Paradigm,2021.1.4,60.09604762687917,
Z,left,Distractor,0,53,53,53,2409.4065673934238,2411.4084729570313,right,0,4,1.2059452301327838,W21A06,2022-11-15_16h26.08.495,t1_Paradigm,2021.1.4,60.09604762687917,
Q,left,Distractor,0,54,54,54,2412.9065481453144,2414.9088441248896,left,1,4,0.745588010729989,W21A06,2022-11-15_16h26.08.495,t1_Paradigm,2021.1.4,60.09604762687917,
Y,right,Target,0,55,55,55,2416.406477568875,2418.4088861499476,right,1,4,0.9895518011762761,W21A06,2022-11-15_16h26.08.495,t1_Paradigm,2021.1.4,60.09604762687917,
W,right,Target,0,56,56,56,2419.9064252781536,2421.9080170974485,left,0,4,0.6425428944348823,W21A06,2022-11-15_16h26.08.495,t1_Paradigm,2021.1.4,60.09604762687917,
H,left,Pretarget,0,57,57,57,2423.4065048370394,2425.4086474732903,left,1,4,0.9496196572144981,W21A06,2022-11-15_16h26.08.495,t1_Paradigm,2021.1.4,60.09604762687917,
M,left,Distractor,0,58,58,58,2426.9065385212452,2428.90794940824,left,1,4,1.290407572465483,W21A06,2022-11-15_16h26.08.495,t1_Paradigm,2021.1.4,60.09604762687917,
R,left,Pretarget,0,59,59,59,2430.4064461302914,2432.4086211675312,right,0,4,0.9096730771561852,W21A06,2022-11-15_16h26.08.495,t1_Paradigm,2021.1.4,60.09604762687917,
J,left,Distractor,0,60,60,60,2433.90643971425,2435.9084055886196,left,1,4,1.217868797131814,W21A06,2022-11-15_16h26.08.495,t1_Paradigm,2021.1.4,60.09604762687917,
H,right,Target,0,61,61,61,2437.4065555237466,2439.4083738292247,right,1,4,1.190040831672377,W21A06,2022-11-15_16h26.08.495,t1_Paradigm,2021.1.4,60.09604762687917,
Z,left,Distractor,0,62,62,62,2440.906540125259,2442.9087453178945,right,0,4,1.0181509745307267,W21A06,2022-11-15_16h26.08.495,t1_Paradigm,2021.1.4,60.09604762687917,
R,right,Target,0,63,63,63,2444.4066925061925,2446.408642661263,left,0,4,0.8138723105512327,W21A06,2022-11-15_16h26.08.495,t1_Paradigm,2021.1.4,60.09604762687917,
J,left,Pretarget,0,0,0,0,2503.3368449384434,2505.3420964664256,None,0,4,,W21A06,2022-11-15_16h26.08.495,t1_Paradigm,2021.1.4,60.09604762687917,
G,left,Pretarget,0,1,1,1,2506.8397427424934,2508.8416296995856,None,0,4,,W21A06,2022-11-15_16h26.08.495,t1_Paradigm,2021.1.4,60.09604762687917,
Z,left,Distractor,0,2,2,2,2510.339561810193,2512.34144780488,None,0,4,,W21A06,2022-11-15_16h26.08.495,t1_Paradigm,2021.1.4,60.09604762687917,
F,left,Distractor,0,3,3,3,2513.8397430632904,2515.8417477547046,None,0,4,,W21A06,2022-11-15_16h26.08.495,t1_Paradigm,2021.1.4,60.09604762687917,
J,right,Target,0,4,4,4,2517.339760065792,2519.341718561729,right,1,4,0.648548306999146,W21A06,2022-11-15_16h26.08.495,t1_Paradigm,2021.1.4,60.09604762687917,
G,right,Target,0,5,5,5,2520.83981267731,2522.8419684664404,right,1,4,0.716258692133124,W21A06,2022-11-15_16h26.08.495,t1_Paradigm,2021.1.4,60.09604762687917,
H,left,Distractor,0,6,6,6,2524.3395047074446,2526.341882491528,left,1,4,0.6724826991412556,W21A06,2022-11-15_16h26.08.495,t1_Paradigm,2021.1.4,60.09604762687917,
P,left,Distractor,0,7,7,7,2527.8397533289535,2529.8417301105947,left,1,4,1.1566658796364209,W21A06,2022-11-15_16h26.08.495,t1_Paradigm,2021.1.4,60.09604762687917,
G,left,Lure,0,8,8,8,2531.3399913640023,2533.3417259401613,left,1,4,0.9525636567268521,W21A06,2022-11-15_16h26.08.495,t1_Paradigm,2021.1.4,60.09604762687917,
S,left,Distractor,0,9,9,9,2534.8397850883484,2536.841211694642,left,1,4,0.9250885734218173,W21A06,2022-11-15_16h26.08.495,t1_Paradigm,2021.1.4,60.09604762687917,
R,left,Pretarget,0,10,10,10,2538.339900577048,2540.3414327271894,left,1,4,0.881127798507805,W21A06,2022-11-15_16h26.08.495,t1_Paradigm,2021.1.4,60.09604762687917,
T,left,Pretarget,0,11,11,11,2541.8396635044046,2543.8420650278276,left,1,4,0.6283817337971414,W21A06,2022-11-15_16h26.08.495,t1_Paradigm,2021.1.4,60.09604762687917,
X,left,Distractor,0,12,12,12,2545.3397773891047,2547.3414346520003,left,1,4,0.6168277306423988,W21A06,2022-11-15_16h26.08.495,t1_Paradigm,2021.1.4,60.09604762687917,
F,left,Pretarget,0,13,13,13,2548.839978211123,2550.841721128134,right,0,4,1.3405935092741856,W21A06,2022-11-15_16h26.08.495,t1_Paradigm,2021.1.4,60.09604762687917,
R,right,Target,0,14,14,14,2552.3398149229324,2554.3421025616553,right,1,4,1.024186221678974,W21A06,2022-11-15_16h26.08.495,t1_Paradigm,2021.1.4,60.09604762687917,
T,right,Target,0,15,15,15,2555.839822942973,2557.8420602158003,left,0,4,1.300195881674881,W21A06,2022-11-15_16h26.08.495,t1_Paradigm,2021.1.4,60.09604762687917,
C,left,Distractor,0,16,16,16,2559.3396949430025,2561.341894682002,left,1,4,1.3523781690455507,W21A06,2022-11-15_16h26.08.495,t1_Paradigm,2021.1.4,60.09604762687917,
F,right,Target,0,17,17,17,2562.8398396246776,2564.8413040855958,left,0,4,1.4370140652463306,W21A06,2022-11-15_16h26.08.495,t1_Paradigm,2021.1.4,60.09604762687917,
M,left,Distractor,0,18,18,18,2566.3397106623015,2568.3412793838506,left,1,4,1.3769166312704328,W21A06,2022-11-15_16h26.08.495,t1_Paradigm,2021.1.4,60.09604762687917,
N,left,Distractor,0,19,19,19,2569.839785729957,2571.841574521648,right,0,4,1.2526892827736447,W21A06,2022-11-15_16h26.08.495,t1_Paradigm,2021.1.4,60.09604762687917,
R,left,Lure,0,20,20,20,2573.3398354542587,2575.342048025326,right,0,4,1.0482627291057725,W21A06,2022-11-15_16h26.08.495,t1_Paradigm,2021.1.4,60.09604762687917,
F,right,Target,0,21,21,21,2576.839810431702,2578.842127263415,left,0,4,1.19642607375863,W21A06,2022-11-15_16h26.08.495,t1_Paradigm,2021.1.4,60.09604762687917,
P,left,Distractor,0,22,22,22,2580.339799845242,2582.341643494059,None,0,4,,W21A06,2022-11-15_16h26.08.495,t1_Paradigm,2021.1.4,60.09604762687917,
L,left,Pretarget,0,23,23,23,2583.839800486836,2585.840567524312,left,1,4,1.125886857000296,W21A06,2022-11-15_16h26.08.495,t1_Paradigm,2021.1.4,60.09604762687917,
T,left,Distractor,0,24,24,24,2587.339866892842,2589.341548536686,None,0,4,,W21A06,2022-11-15_16h26.08.495,t1_Paradigm,2021.1.4,60.09604762687917,
F,left,Distractor,0,25,25,25,2590.839880366533,2592.8421404162946,right,0,4,1.1321113773010438,W21A06,2022-11-15_16h26.08.495,t1_Paradigm,2021.1.4,60.09604762687917,
V,left,Distractor,0,26,26,26,2594.3398749128974,2596.3418276343873,left,1,4,1.0405471213161945,W21A06,2022-11-15_16h26.08.495,t1_Paradigm,2021.1.4,60.09604762687917,
L,right,Target,0,27,27,27,2597.8398357750557,2599.8418763962836,left,0,4,1.2204435536114033,W21A06,2022-11-15_16h26.08.495,t1_Paradigm,2021.1.4,60.09604762687917,
S,left,Pretarget,0,28,28,28,2601.3397125871124,2603.3420582909894,left,1,4,1.048210117573035,W21A06,2022-11-15_16h26.08.495,t1_Paradigm,2021.1.4,60.09604762687917,
W,left,Distractor,0,29,29,29,2604.8399294492265,2606.841643494059,left,1,4,0.636650083339191,W21A06,2022-11-15_16h26.08.495,t1_Paradigm,2021.1.4,60.09604762687917,
Q,left,Distractor,0,30,30,30,2608.3398136397154,2610.3420348724467,left,1,4,0.4963232888112543,W21A06,2022-11-15_16h26.08.495,t1_Paradigm,2021.1.4,60.09604762687917,
L,right,Target,0,31,31,31,2611.839598060804,2613.841518381305,right,1,4,0.4527250201062998,W21A06,2022-11-15_16h26.08.495,t1_Paradigm,2021.1.4,60.09604762687917,
S,right,Target,0,32,32,32,2615.339824867784,2617.341687123131,right,1,4,0.45652491925284266,W21A06,2022-11-15_16h26.08.495,t1_Paradigm,2021.1.4,60.09604762687917,
Z,left,Pretarget,0,33,33,33,2618.8397870131594,2620.84181576471,left,1,4,0.9405175433785189,W21A06,2022-11-15_16h26.08.495,t1_Paradigm,2021.1.4,60.09604762687917,
F,left,Distractor,0,34,34,34,2622.339676657284,2624.3419347822346,right,0,4,1.3444434535194887,W21A06,2022-11-15_16h26.08.495,t1_Paradigm,2021.1.4,60.09604762687917,
V,left,Distractor,0,35,35,35,2625.839840266286,2627.8420618198143,left,1,4,1.4443245001602918,W21A06,2022-11-15_16h26.08.495,t1_Paradigm,2021.1.4,60.09604762687917,
M,left,Distractor,0,36,36,36,2629.3396772988926,2631.3420631030167,left,1,4,0.48823138033912983,W21A06,2022-11-15_16h26.08.495,t1_Paradigm,2021.1.4,60.09604762687917,
Z,right,Target,0,37,37,37,2632.839819414163,2634.8419944514026,right,1,4,0.7002622235158924,W21A06,2022-11-15_16h26.08.495,t1_Paradigm,2021.1.4,60.09604762687917,
H,left,Pretarget,0,38,38,38,2636.3397854091454,2638.3418600353907,left,1,4,0.6565298596106004,W21A06,2022-11-15_16h26.08.495,t1_Paradigm,2021.1.4,60.09604762687917,
L,left,Distractor,0,39,39,39,2639.8397764266992,2641.841167744773,None,0,4,,W21A06,2022-11-15_16h26.08.495,t1_Paradigm,2021.1.4,60.09604762687917,
G,left,Distractor,0,40,40,40,2643.3398014492413,2645.3420505917456,left,1,4,0.8085008026391733,W21A06,2022-11-15_16h26.08.495,t1_Paradigm,2021.1.4,60.09604762687917,
K,left,Distractor,0,41,41,41,2646.8397693690495,2648.8418241055624,left,1,4,1.3565376871702028,W21A06,2022-11-15_16h26.08.495,t1_Paradigm,2021.1.4,60.09604762687917,
H,right,Target,0,42,42,42,2650.339769689861,2652.3418677346344,right,1,4,0.7044246288569411,W21A06,2022-11-15_16h26.08.495,t1_Paradigm,2021.1.4,60.09604762687917,
B,left,Distractor,0,43,43,43,2653.8396047976566,2655.8416778198734,left,1,4,0.7724150740978075,W21A06,2022-11-15_16h26.08.495,t1_Paradigm,2021.1.4,60.09604762687917,
Z,left,Distractor,0,44,44,44,2657.3395842663303,2659.342005358674,left,1,4,0.8243182637816062,W21A06,2022-11-15_16h26.08.495,t1_Paradigm,2021.1.4,60.09604762687917,
T,left,Pretarget,0,45,45,45,2660.8398591935984,2662.8413137096504,left,1,4,0.7651704035815783,W21A06,2022-11-15_16h26.08.495,t1_Paradigm,2021.1.4,60.09604762687917,
H,right,Target,0,46,46,46,2664.3397687274555,2666.3414420304325,left,0,4,0.6409366390580544,W21A06,2022-11-15_16h26.08.495,t1_Paradigm,2021.1.4,60.09604762687917,
F,left,Distractor,0,47,47,47,2667.839827755015,2669.842093579209,left,1,4,0.5321607166551985,W21A06,2022-11-15_16h26.08.495,t1_Paradigm,2021.1.4,60.09604762687917,
R,left,Distractor,0,48,48,48,2671.339810431702,2673.3418449576857,left,1,4,0.5523930542549351,W21A06,2022-11-15_16h26.08.495,t1_Paradigm,2021.1.4,60.09604762687917,
T,right,Target,0,49,49,49,2674.8397850883484,2676.8420387220685,None,0,4,,W21A06,2022-11-15_16h26.08.495,t1_Paradigm,2021.1.4,60.09604762687917,
H,right,Target,0,50,50,50,2678.3398328878393,2680.341997338619,right,1,4,1.168341787531972,W21A06,2022-11-15_16h26.08.495,t1_Paradigm,2021.1.4,60.09604762687917,
Y,left,Pretarget,0,51,51,51,2681.8397639154136,2683.841937669451,None,0,4,,W21A06,2022-11-15_16h26.08.495,t1_Paradigm,2021.1.4,60.09604762687917,
H,left,Distractor,0,52,52,52,2685.339752687345,2687.341662742183,left,1,4,0.7926265595888253,W21A06,2022-11-15_16h26.08.495,t1_Paradigm,2021.1.4,60.09604762687917,
S,left,Distractor,0,53,53,53,2688.8396635044046,2690.8422283160326,left,1,4,0.524140026216628,W21A06,2022-11-15_16h26.08.495,t1_Paradigm,2021.1.4,60.09604762687917,
Q,left,Distractor,0,54,54,54,2692.339609930481,2694.3418882659607,left,1,4,0.46444968991272617,W21A06,2022-11-15_16h26.08.495,t1_Paradigm,2021.1.4,60.09604762687917,
Y,right,Target,0,55,55,55,2695.8397870131594,2697.8420300604193,right,1,4,0.42024350151768886,W21A06,2022-11-15_16h26.08.495,t1_Paradigm,2021.1.4,60.09604762687917,
R,left,Distractor,0,56,56,56,2699.339808506891,2701.352909737878,left,1,4,1.1974972314783372,W21A06,2022-11-15_16h26.08.495,t1_Paradigm,2021.1.4,60.09604762687917,
H,left,Pretarget,0,57,57,57,2702.839833529448,2704.8421060904802,None,0,4,,W21A06,2022-11-15_16h26.08.495,t1_Paradigm,2021.1.4,60.09604762687917,
J,left,Distractor,0,58,58,58,2706.339678582095,2708.341987072956,left,1,4,1.4403690120670944,W21A06,2022-11-15_16h26.08.495,t1_Paradigm,2021.1.4,60.09604762687917,
V,left,Distractor,0,59,59,59,2709.839760065792,2711.8420406468795,left,1,4,0.6443307237204863,W21A06,2022-11-15_16h26.08.495,t1_Paradigm,2021.1.4,60.09604762687917,
Y,left,Lure,0,60,60,60,2713.3397247775865,2715.341823143157,left,1,4,0.9364452833833639,W21A06,2022-11-15_16h26.08.495,t1_Paradigm,2021.1.4,60.09604762687917,
H,right,Target,0,61,61,61,2716.8397308728163,2718.8419100804895,right,1,4,0.8603918018488912,W21A06,2022-11-15_16h26.08.495,t1_Paradigm,2021.1.4,60.09604762687917,
L,left,Distractor,0,62,62,62,2720.339608326467,2722.3420560453815,left,1,4,1.1361765796609689,W21A06,2022-11-15_16h26.08.495,t1_Paradigm,2021.1.4,60.09604762687917,
P,left,Distractor,0,63,63,63,2723.8396651084186,2725.841747433893,None,0,4,,W21A06,2022-11-15_16h26.08.495,t1_Paradigm,2021.1.4,60.09604762687917,
