Letter,CorrAnswer,Stimulus,nback_run.thisRepN,nback_run.thisTrialN,nback_run.thisN,nback_run.thisIndex,fixcross.started,nback_trial.started,trial_resp.keys,trial_resp.corr,currentlevel,trial_resp.rt,Participant,date,expName,psychopyVersion,frameRate,
H,left,Distractor,0,0,0,0,37.59343068175531,39.57725584725722,None,0,1,,Z02T02,2022-11-11_10h52.56.135,t1_Paradigm,2021.1.4,60.038520949711604,
Q,left,Pretarget,0,1,1,1,41.07841394230945,43.077150945018275,left,1,1,0.8166969717581196,Z02T02,2022-11-11_10h52.56.135,t1_Paradigm,2021.1.4,60.038520949711604,
Q,right,Target,0,2,2,2,44.573984308934996,46.5741459931196,None,0,1,,Z02T02,2022-11-11_10h52.56.135,t1_Paradigm,2021.1.4,60.038520949711604,
T,left,Distractor,0,3,3,3,48.07394998312566,50.075547897656634,left,1,1,0.6950106955373485,Z02T02,2022-11-11_10h52.56.135,t1_Paradigm,2021.1.4,60.038520949711604,
Q,left,Lure,0,4,4,4,51.57307996822783,53.585333319646,left,1,1,1.2967212757134803,Z02T02,2022-11-11_10h52.56.135,t1_Paradigm,2021.1.4,60.038520949711604,
L,left,Distractor,0,5,5,5,55.07242777785632,57.07422811841934,left,1,1,0.7446637803045633,Z02T02,2022-11-11_10h52.56.135,t1_Paradigm,2021.1.4,60.038520949711604,
V,left,Pretarget,0,6,6,6,58.57182274537172,60.57452838904828,left,1,1,1.2166086870602157,Z02T02,2022-11-11_10h52.56.135,t1_Paradigm,2021.1.4,60.038520949711604,
V,right,Target,0,7,7,7,62.07055269043758,64.0709998883608,right,1,1,0.6976601988717448,Z02T02,2022-11-11_10h52.56.135,t1_Paradigm,2021.1.4,60.038520949711604,
K,left,Distractor,0,8,8,8,65.57069544730712,67.57349797317329,left,1,1,0.7358080423764477,Z02T02,2022-11-11_10h52.56.135,t1_Paradigm,2021.1.4,60.038520949711604,
G,left,Pretarget,0,9,9,9,69.07010068048521,71.0694173723241,left,1,1,0.8090798501725658,Z02T02,2022-11-11_10h52.56.135,t1_Paradigm,2021.1.4,60.038520949711604,
G,right,Target,0,10,10,10,72.56981067551897,74.56936187358588,right,1,1,0.7762278053169211,Z02T02,2022-11-11_10h52.56.135,t1_Paradigm,2021.1.4,60.038520949711604,
G,right,Target,0,11,11,11,76.0690381844147,78.06853356294187,right,1,1,0.42191744610818205,Z02T02,2022-11-11_10h52.56.135,t1_Paradigm,2021.1.4,60.038520949711604,
P,left,Pretarget,0,12,12,12,79.56867952783068,81.57024055013699,left,1,1,0.9014319957600492,Z02T02,2022-11-11_10h52.56.135,t1_Paradigm,2021.1.4,60.038520949711604,
P,right,Target,0,13,13,13,83.06803247029075,85.0677569014124,right,1,1,0.6345860435753821,Z02T02,2022-11-11_10h52.56.135,t1_Paradigm,2021.1.4,60.038520949711604,
G,left,Lure,0,14,14,14,86.5674675380501,88.5669978839901,left,1,1,1.3986416603679572,Z02T02,2022-11-11_10h52.56.135,t1_Paradigm,2021.1.4,60.038520949711604,
Y,left,Distractor,0,15,15,15,90.06677845545391,92.0684469464145,left,1,1,0.7604950359104805,Z02T02,2022-11-11_10h52.56.135,t1_Paradigm,2021.1.4,60.038520949711604,
B,left,Distractor,0,16,16,16,93.56555202958543,95.56503618004444,left,1,1,0.6288661447433697,Z02T02,2022-11-11_10h52.56.135,t1_Paradigm,2021.1.4,60.038520949711604,
T,left,Pretarget,0,17,17,17,97.06549139801655,99.06722950300082,left,1,1,0.9326017551716177,Z02T02,2022-11-11_10h52.56.135,t1_Paradigm,2021.1.4,60.038520949711604,
T,right,Target,0,18,18,18,100.56472468134734,102.56457326282543,right,1,1,0.637640078172808,Z02T02,2022-11-11_10h52.56.135,t1_Paradigm,2021.1.4,60.038520949711604,
S,left,Distractor,0,19,19,19,104.06354541336623,106.06792917206167,left,1,1,0.6587514131329044,Z02T02,2022-11-11_10h52.56.135,t1_Paradigm,2021.1.4,60.038520949711604,
T,left,Lure,0,20,20,20,107.56391690202827,109.563600912104,None,0,1,,Z02T02,2022-11-11_10h52.56.135,t1_Paradigm,2021.1.4,60.038520949711604,
J,left,Distractor,0,21,21,21,111.06308634577044,113.06454535305556,left,1,1,0.6176598909019049,Z02T02,2022-11-11_10h52.56.135,t1_Paradigm,2021.1.4,60.038520949711604,
P,left,Distractor,0,22,22,22,114.56266320799386,116.56401185940649,left,1,1,0.7981154810040607,Z02T02,2022-11-11_10h52.56.135,t1_Paradigm,2021.1.4,60.038520949711604,
F,left,Distractor,0,23,23,23,118.06194461161795,120.06397689199366,left,1,1,0.6712039825638385,Z02T02,2022-11-11_10h52.56.135,t1_Paradigm,2021.1.4,60.038520949711604,
L,left,Distractor,0,24,24,24,121.56166006028525,123.56331732317722,left,1,1,0.7535573728628151,Z02T02,2022-11-11_10h52.56.135,t1_Paradigm,2021.1.4,60.038520949711604,
W,left,Pretarget,0,25,25,25,125.06067744390157,127.06049907801525,left,1,1,0.6832866673421449,Z02T02,2022-11-11_10h52.56.135,t1_Paradigm,2021.1.4,60.038520949711604,
W,right,Target,0,26,26,26,128.5603534339284,130.55986549415684,right,1,1,0.7655409298381528,Z02T02,2022-11-11_10h52.56.135,t1_Paradigm,2021.1.4,60.038520949711604,
V,left,Distractor,0,27,27,27,132.06036113317532,134.07803988723163,left,1,1,0.6494789534672236,Z02T02,2022-11-11_10h52.56.135,t1_Paradigm,2021.1.4,60.038520949711604,
W,left,Lure,0,28,28,28,135.57587960687624,137.57765171686788,left,1,1,1.1517274543593885,Z02T02,2022-11-11_10h52.56.135,t1_Paradigm,2021.1.4,60.038520949711604,
R,left,Pretarget,0,29,29,29,139.07521137640697,141.0777178020703,left,1,1,0.6543237045693786,Z02T02,2022-11-11_10h52.56.135,t1_Paradigm,2021.1.4,60.038520949711604,
R,right,Target,0,30,30,30,142.57458420858802,144.5743731209027,right,1,1,0.6050790006893294,Z02T02,2022-11-11_10h52.56.135,t1_Paradigm,2021.1.4,60.038520949711604,
G,left,Distractor,0,31,31,31,146.07396345680763,148.07580774723874,left,1,1,0.5954414684001677,Z02T02,2022-11-11_10h52.56.135,t1_Paradigm,2021.1.4,60.038520949711604,
R,left,Lure,0,32,32,32,149.573312870446,151.57435066476592,left,1,1,0.6050235019511092,Z02T02,2022-11-11_10h52.56.135,t1_Paradigm,2021.1.4,60.038520949711604,
S,left,Distractor,0,33,33,33,153.07296672513803,155.0745652812725,left,1,1,0.8582469199800471,Z02T02,2022-11-11_10h52.56.135,t1_Paradigm,2021.1.4,60.038520949711604,
R,left,Lure,0,34,34,34,156.57248616381185,158.57390731646592,left,1,1,0.956620197434404,Z02T02,2022-11-11_10h52.56.135,t1_Paradigm,2021.1.4,60.038520949711604,
P,left,Pretarget,0,35,35,35,160.0717146351135,162.07309632912757,left,1,1,0.9251745483429659,Z02T02,2022-11-11_10h52.56.135,t1_Paradigm,2021.1.4,60.038520949711604,
P,right,Target,0,36,36,36,163.57093187834653,165.5708417329979,left,0,1,0.9927925425095054,Z02T02,2022-11-11_10h52.56.135,t1_Paradigm,2021.1.4,60.038520949711604,
Y,left,Pretarget,0,37,37,37,167.07033614911916,169.07219519643968,None,0,1,,Z02T02,2022-11-11_10h52.56.135,t1_Paradigm,2021.1.4,60.038520949711604,
Y,right,Target,0,38,38,38,170.56979656023304,172.5696220439704,right,1,1,0.6477052394657221,Z02T02,2022-11-11_10h52.56.135,t1_Paradigm,2021.1.4,60.038520949711604,
J,left,Distractor,0,39,39,39,174.06925729214936,176.07167998850264,left,1,1,1.4370692431766656,Z02T02,2022-11-11_10h52.56.135,t1_Paradigm,2021.1.4,60.038520949711604,
Y,left,Lure,0,40,40,40,177.56897306161818,179.57052638467758,left,1,1,0.8836656627704542,Z02T02,2022-11-11_10h52.56.135,t1_Paradigm,2021.1.4,60.038520949711604,
T,left,Distractor,0,41,41,41,181.06812004922404,183.0694539437468,left,1,1,1.3340071243696912,Z02T02,2022-11-11_10h52.56.135,t1_Paradigm,2021.1.4,60.038520949711604,
V,left,Distractor,0,42,42,42,184.56739343279924,186.5693054124422,left,1,1,0.8040381266705481,Z02T02,2022-11-11_10h52.56.135,t1_Paradigm,2021.1.4,60.038520949711604,
N,left,Pretarget,0,43,43,43,188.06687918726766,190.06861472583614,left,1,1,0.7152385419167331,Z02T02,2022-11-11_10h52.56.135,t1_Paradigm,2021.1.4,60.038520949711604,
N,right,Target,0,44,44,44,191.56658565348016,193.56594501197878,right,1,1,0.5711814622663951,Z02T02,2022-11-11_10h52.56.135,t1_Paradigm,2021.1.4,60.038520949711604,
N,right,Target,0,45,45,45,195.06569639046484,197.06556357845602,right,1,1,0.6985767300529915,Z02T02,2022-11-11_10h52.56.135,t1_Paradigm,2021.1.4,60.038520949711604,
X,left,Distractor,0,46,46,46,198.56476895201695,200.56822591386845,left,1,1,0.6758732549974411,Z02T02,2022-11-11_10h52.56.135,t1_Paradigm,2021.1.4,60.038520949711604,
Z,left,Distractor,0,47,47,47,202.0647304557824,204.06651411464418,left,1,1,0.6455282774090847,Z02T02,2022-11-11_10h52.56.135,t1_Paradigm,2021.1.4,60.038520949711604,
H,left,Pretarget,0,48,48,48,205.5639422453828,207.5631659046553,left,1,1,1.0691475778812674,Z02T02,2022-11-11_10h52.56.135,t1_Paradigm,2021.1.4,60.038520949711604,
H,right,Target,0,49,49,49,209.0635511878013,211.06295898739518,right,1,1,0.6498655198211054,Z02T02,2022-11-11_10h52.56.135,t1_Paradigm,2021.1.4,60.038520949711604,
K,left,Distractor,0,50,50,50,212.5631726414963,214.56343858631544,left,1,1,0.6491193344768362,Z02T02,2022-11-11_10h52.56.135,t1_Paradigm,2021.1.4,60.038520949711604,
V,left,Pretarget,0,51,51,51,216.06241298247005,218.06322204499702,left,1,1,0.6583061400210681,Z02T02,2022-11-11_10h52.56.135,t1_Paradigm,2021.1.4,60.038520949711604,
V,right,Target,0,52,52,52,219.56178004021558,221.56139058664394,right,1,1,0.5747571208407862,Z02T02,2022-11-11_10h52.56.135,t1_Paradigm,2021.1.4,60.038520949711604,
R,left,Distractor,0,53,53,53,223.06120997514427,225.0618108372032,left,1,1,0.6891547766767872,Z02T02,2022-11-11_10h52.56.135,t1_Paradigm,2021.1.4,60.038520949711604,
V,left,Lure,0,54,54,54,226.560769834864,228.55942118345138,left,1,1,1.1776562722557173,Z02T02,2022-11-11_10h52.56.135,t1_Paradigm,2021.1.4,60.038520949711604,
Y,left,Distractor,0,55,55,55,230.0600197998965,232.06152564426657,left,1,1,0.8125448320729447,Z02T02,2022-11-11_10h52.56.135,t1_Paradigm,2021.1.4,60.038520949711604,
Q,left,Distractor,0,56,56,56,233.575151707244,235.57762893992913,left,1,1,0.7394719214880752,Z02T02,2022-11-11_10h52.56.135,t1_Paradigm,2021.1.4,60.038520949711604,
Z,left,Pretarget,0,57,57,57,237.07526270471953,239.0774964487223,left,1,1,0.9601182219362272,Z02T02,2022-11-11_10h52.56.135,t1_Paradigm,2021.1.4,60.038520949711604,
Z,right,Target,0,58,58,58,240.57460024868578,242.5742951660277,right,1,1,0.5067333122033233,Z02T02,2022-11-11_10h52.56.135,t1_Paradigm,2021.1.4,60.038520949711604,
B,left,Distractor,0,59,59,59,244.07411647933986,246.07555944652677,left,1,1,0.5549241816665926,Z02T02,2022-11-11_10h52.56.135,t1_Paradigm,2021.1.4,60.038520949711604,
S,left,Pretarget,0,60,60,60,247.57359870498658,249.5724656324869,left,1,1,0.6034554220022983,Z02T02,2022-11-11_10h52.56.135,t1_Paradigm,2021.1.4,60.038520949711604,
S,right,Target,0,61,61,61,251.0730491712402,253.07277103594652,right,1,1,0.5996718837618573,Z02T02,2022-11-11_10h52.56.135,t1_Paradigm,2021.1.4,60.038520949711604,
T,left,Distractor,0,62,62,62,254.57240435931362,256.57416748685046,left,1,1,1.0188702125119562,Z02T02,2022-11-11_10h52.56.135,t1_Paradigm,2021.1.4,60.038520949711604,
D,left,Distractor,0,63,63,63,258.0719440085104,260.0742990156514,left,1,1,0.6560942105511458,Z02T02,2022-11-11_10h52.56.135,t1_Paradigm,2021.1.4,60.038520949711604,
R,left,Distractor,0,0,0,0,271.78641422974806,273.7870567960613,None,0,1,,Z02T02,2022-11-11_10h52.56.135,t1_Paradigm,2021.1.4,60.038520949711604,
V,left,Distractor,0,1,1,1,275.2854720344103,277.2852015983635,left,1,1,0.9855440223686855,Z02T02,2022-11-11_10h52.56.135,t1_Paradigm,2021.1.4,60.038520949711604,
N,left,Pretarget,0,2,2,2,278.7848265808798,280.78640653050115,left,1,1,0.7852737788034574,Z02T02,2022-11-11_10h52.56.135,t1_Paradigm,2021.1.4,60.038520949711604,
N,right,Target,0,3,3,3,282.2844984004814,284.284308164923,right,1,1,0.7554712773180654,Z02T02,2022-11-11_10h52.56.135,t1_Paradigm,2021.1.4,60.038520949711604,
S,left,Distractor,0,4,4,4,285.7837666512255,287.7837169269228,left,1,1,0.6543342910345018,Z02T02,2022-11-11_10h52.56.135,t1_Paradigm,2021.1.4,60.038520949711604,
N,left,Lure,0,5,5,5,289.28312151849696,291.2839029920556,left,1,1,1.2874061493885165,Z02T02,2022-11-11_10h52.56.135,t1_Paradigm,2021.1.4,60.038520949711604,
Z,left,Distractor,0,6,6,6,292.7829004859509,294.7948952709944,left,1,1,0.689382225261852,Z02T02,2022-11-11_10h52.56.135,t1_Paradigm,2021.1.4,60.038520949711604,
L,left,Pretarget,0,7,7,7,296.2821065011158,298.28309553353847,left,1,1,0.5997456682116535,Z02T02,2022-11-11_10h52.56.135,t1_Paradigm,2021.1.4,60.038520949711604,
L,right,Target,0,8,8,8,299.7806295289215,301.78105779952966,right,1,1,0.6394789149703684,Z02T02,2022-11-11_10h52.56.135,t1_Paradigm,2021.1.4,60.038520949711604,
H,left,Distractor,0,9,9,9,303.2806920853027,305.2822665812905,left,1,1,0.7039841677819823,Z02T02,2022-11-11_10h52.56.135,t1_Paradigm,2021.1.4,60.038520949711604,
L,left,Lure,0,10,10,10,306.7802201856289,308.7813429924663,left,1,1,1.0927707921368892,Z02T02,2022-11-11_10h52.56.135,t1_Paradigm,2021.1.4,60.038520949711604,
X,left,Pretarget,0,11,11,11,310.2798387521061,312.2810626115588,left,1,1,0.6409453007008779,Z02T02,2022-11-11_10h52.56.135,t1_Paradigm,2021.1.4,60.038520949711604,
X,right,Target,0,12,12,12,313.77910026600875,315.7781462009989,right,1,1,0.6277805509325844,Z02T02,2022-11-11_10h52.56.135,t1_Paradigm,2021.1.4,60.038520949711604,
X,right,Target,0,13,13,13,317.2787813888672,319.2781721859574,right,1,1,0.5878403869128306,Z02T02,2022-11-11_10h52.56.135,t1_Paradigm,2021.1.4,60.038520949711604,
R,left,Distractor,0,14,14,14,320.7780246170587,322.7776056497073,left,1,1,0.6377834766462911,Z02T02,2022-11-11_10h52.56.135,t1_Paradigm,2021.1.4,60.038520949711604,
T,left,Distractor,0,15,15,15,324.2773371384724,326.27930654166494,left,1,1,1.0407193919650126,Z02T02,2022-11-11_10h52.56.135,t1_Paradigm,2021.1.4,60.038520949711604,
V,left,Pretarget,0,16,16,16,327.77681551449587,329.7779643062913,left,1,1,0.5283749327918486,Z02T02,2022-11-11_10h52.56.135,t1_Paradigm,2021.1.4,60.038520949711604,
V,right,Target,0,17,17,17,331.27663490299574,333.2757886274426,right,1,1,0.5676013124648307,Z02T02,2022-11-11_10h52.56.135,t1_Paradigm,2021.1.4,60.038520949711604,
N,left,Distractor,0,18,18,18,334.77523235685476,336.77804867720533,left,1,1,0.5822362975864053,Z02T02,2022-11-11_10h52.56.135,t1_Paradigm,2021.1.4,60.038520949711604,
B,left,Distractor,0,19,19,19,338.27525449218956,340.2762011787545,left,1,1,0.7520540949085444,Z02T02,2022-11-11_10h52.56.135,t1_Paradigm,2021.1.4,60.038520949711604,
V,left,Lure,0,20,20,20,341.7743446978493,343.775391795426,left,1,1,0.8106617246057795,Z02T02,2022-11-11_10h52.56.135,t1_Paradigm,2021.1.4,60.038520949711604,
P,left,Distractor,0,21,21,21,345.27384264279226,347.2752589834172,left,1,1,0.6644530262533408,Z02T02,2022-11-11_10h52.56.135,t1_Paradigm,2021.1.4,60.038520949711604,
K,left,Pretarget,0,22,22,22,348.77316158024496,350.7725988936181,left,1,1,0.6671660483743835,Z02T02,2022-11-11_10h52.56.135,t1_Paradigm,2021.1.4,60.038520949711604,
K,right,Target,0,23,23,23,352.2727698810595,354.27244362547253,right,1,1,0.8720779754062278,Z02T02,2022-11-11_10h52.56.135,t1_Paradigm,2021.1.4,60.038520949711604,
J,left,Pretarget,0,24,24,24,355.7720487182678,357.77386926935424,left,1,1,1.1445482274411916,Z02T02,2022-11-11_10h52.56.135,t1_Paradigm,2021.1.4,60.038520949711604,
J,right,Target,0,25,25,25,359.2714860316414,361.2709685780901,right,1,1,0.8374897503772445,Z02T02,2022-11-11_10h52.56.135,t1_Paradigm,2021.1.4,60.038520949711604,
H,left,Distractor,0,26,26,26,362.77118576101293,364.7894974573237,left,1,1,0.5379017884065433,Z02T02,2022-11-11_10h52.56.135,t1_Paradigm,2021.1.4,60.038520949711604,
J,left,Lure,0,27,27,27,366.28664360314497,368.2886912820145,left,1,1,1.0207013500630637,Z02T02,2022-11-11_10h52.56.135,t1_Paradigm,2021.1.4,60.038520949711604,
V,left,Distractor,0,28,28,28,369.7866067109203,371.7883233221737,left,1,1,0.7074282975554524,Z02T02,2022-11-11_10h52.56.135,t1_Paradigm,2021.1.4,60.038520949711604,
Z,left,Pretarget,0,29,29,29,373.28583261580616,375.2866917234378,left,1,1,0.6035609658447356,Z02T02,2022-11-11_10h52.56.135,t1_Paradigm,2021.1.4,60.038520949711604,
Z,right,Target,0,30,30,30,376.7854053076039,378.78510054574826,right,1,1,0.7200771977818476,Z02T02,2022-11-11_10h52.56.135,t1_Paradigm,2021.1.4,60.038520949711604,
T,left,Distractor,0,31,31,31,380.2845981698888,382.2855830318863,left,1,1,0.6427267139483774,Z02T02,2022-11-11_10h52.56.135,t1_Paradigm,2021.1.4,60.038520949711604,
Z,left,Lure,0,32,32,32,383.78412370379965,385.7851643853369,None,0,1,,Z02T02,2022-11-11_10h52.56.135,t1_Paradigm,2021.1.4,60.038520949711604,
F,left,Distractor,0,33,33,33,387.2834105610568,389.28406628025004,left,1,1,0.7886498985626531,Z02T02,2022-11-11_10h52.56.135,t1_Paradigm,2021.1.4,60.038520949711604,
Y,left,Pretarget,0,34,34,34,390.782697739116,392.78404927774636,left,1,1,0.8505993222097459,Z02T02,2022-11-11_10h52.56.135,t1_Paradigm,2021.1.4,60.038520949711604,
Y,right,Target,0,35,35,35,394.28217739834736,396.28205581440716,right,1,1,0.583666111893308,Z02T02,2022-11-11_10h52.56.135,t1_Paradigm,2021.1.4,60.038520949711604,
Y,right,Target,0,36,36,36,397.78155408015164,399.7813433132683,right,1,1,0.5727306149001379,Z02T02,2022-11-11_10h52.56.135,t1_Paradigm,2021.1.4,60.038520949711604,
W,left,Distractor,0,37,37,37,401.2810664611825,403.2819743307109,left,1,1,0.4831588598444796,Z02T02,2022-11-11_10h52.56.135,t1_Paradigm,2021.1.4,60.038520949711604,
Q,left,Distractor,0,38,38,38,404.78043544373986,406.78239650608157,left,1,1,0.7081568387916377,Z02T02,2022-11-11_10h52.56.135,t1_Paradigm,2021.1.4,60.038520949711604,
P,left,Pretarget,0,39,39,39,408.27993916311743,410.2808736592083,left,1,1,0.6732808544111322,Z02T02,2022-11-11_10h52.56.135,t1_Paradigm,2021.1.4,60.038520949711604,
P,right,Target,0,40,40,40,411.7793014088338,413.778947243477,right,1,1,0.5575220358864499,Z02T02,2022-11-11_10h52.56.135,t1_Paradigm,2021.1.4,60.038520949711604,
J,left,Distractor,0,41,41,41,415.2788137898642,417.2790389928359,left,1,1,0.6190393393017075,Z02T02,2022-11-11_10h52.56.135,t1_Paradigm,2021.1.4,60.038520949711604,
P,left,Lure,0,42,42,42,418.7781340105248,420.7801913134531,left,1,1,0.7739481866346978,Z02T02,2022-11-11_10h52.56.135,t1_Paradigm,2021.1.4,60.038520949711604,
L,left,Distractor,0,43,43,43,422.2777804867719,424.2791843161208,left,1,1,0.5799040673837226,Z02T02,2022-11-11_10h52.56.135,t1_Paradigm,2021.1.4,60.038520949711604,
Z,left,Distractor,0,44,44,44,425.7773775595183,427.7778263614514,left,1,1,0.9284903573347947,Z02T02,2022-11-11_10h52.56.135,t1_Paradigm,2021.1.4,60.038520949711604,
F,left,Pretarget,0,45,45,45,429.2762499406517,431.27809872231,left,1,1,0.7944317121714448,Z02T02,2022-11-11_10h52.56.135,t1_Paradigm,2021.1.4,60.038520949711604,
F,right,Target,0,46,46,46,432.7758107627774,434.7755268530482,right,1,1,0.7119862517115507,Z02T02,2022-11-11_10h52.56.135,t1_Paradigm,2021.1.4,60.038520949711604,
G,left,Pretarget,0,47,47,47,436.27512392579456,438.2759961863062,left,1,1,0.6957007405394506,Z02T02,2022-11-11_10h52.56.135,t1_Paradigm,2021.1.4,60.038520949711604,
G,right,Target,0,48,48,48,439.77487081305344,441.774243966036,right,1,1,0.4613100011933966,Z02T02,2022-11-11_10h52.56.135,t1_Paradigm,2021.1.4,60.038520949711604,
V,left,Distractor,0,49,49,49,443.27398764527516,445.27545659742054,left,1,1,0.7261624900388597,Z02T02,2022-11-11_10h52.56.135,t1_Paradigm,2021.1.4,60.038520949711604,
G,left,Lure,0,50,50,50,446.7734249586488,448.775626622456,None,0,1,,Z02T02,2022-11-11_10h52.56.135,t1_Paradigm,2021.1.4,60.038520949711604,
Q,left,Pretarget,0,51,51,51,450.2728385326777,452.2739661515443,left,1,1,0.6276438893000886,Z02T02,2022-11-11_10h52.56.135,t1_Paradigm,2021.1.4,60.038520949711604,
Q,right,Target,0,52,52,52,453.77206251275175,455.77197525462043,right,1,1,0.9242557715479052,Z02T02,2022-11-11_10h52.56.135,t1_Paradigm,2021.1.4,60.038520949711604,
Y,left,Distractor,0,53,53,53,457.2719730090066,459.2731298208514,left,1,1,0.6217337549101103,Z02T02,2022-11-11_10h52.56.135,t1_Paradigm,2021.1.4,60.038520949711604,
V,left,Distractor,0,54,54,54,460.7883794625154,462.789323582665,left,1,1,0.7287593818532514,Z02T02,2022-11-11_10h52.56.135,t1_Paradigm,2021.1.4,60.038520949711604,
B,left,Distractor,0,55,55,55,464.2872316331259,466.28852991863187,left,1,1,0.5466243935238708,Z02T02,2022-11-11_10h52.56.135,t1_Paradigm,2021.1.4,60.038520949711604,
J,left,Pretarget,0,56,56,56,467.78665707682694,469.7862621696222,left,1,1,0.867660532505397,Z02T02,2022-11-11_10h52.56.135,t1_Paradigm,2021.1.4,60.038520949711604,
J,right,Target,0,57,57,57,471.28601098169247,473.2858021396205,right,1,1,0.6730639922907358,Z02T02,2022-11-11_10h52.56.135,t1_Paradigm,2021.1.4,60.038520949711604,
H,left,Distractor,0,58,58,58,474.7846552726369,476.787243502798,left,1,1,0.7132890284451605,Z02T02,2022-11-11_10h52.56.135,t1_Paradigm,2021.1.4,60.038520949711604,
J,left,Lure,0,59,59,59,478.2849353327424,480.28688163819425,left,1,1,0.9632319256970732,Z02T02,2022-11-11_10h52.56.135,t1_Paradigm,2021.1.4,60.038520949711604,
D,left,Pretarget,0,60,60,60,481.78428314237044,483.7858380694397,left,1,1,0.5770652908968259,Z02T02,2022-11-11_10h52.56.135,t1_Paradigm,2021.1.4,60.038520949711604,
D,right,Target,0,61,61,61,485.28357417005327,487.28333421019215,right,1,1,0.739444974124126,Z02T02,2022-11-11_10h52.56.135,t1_Paradigm,2021.1.4,60.038520949711604,
R,left,Distractor,0,62,62,62,488.78332939816255,490.7846373077273,left,1,1,1.2571532419606228,Z02T02,2022-11-11_10h52.56.135,t1_Paradigm,2021.1.4,60.038520949711604,
F,left,Distractor,0,63,63,63,492.28171704754413,494.2842440045324,left,1,1,0.6825918103113509,Z02T02,2022-11-11_10h52.56.135,t1_Paradigm,2021.1.4,60.038520949711604,
F,left,Distractor,0,0,0,0,619.691212721209,621.6774926632593,None,0,2,,Z02T02,2022-11-11_10h52.56.135,t1_Paradigm,2021.1.4,60.038520949711604,
N,left,Pretarget,0,1,1,1,623.1774150291867,625.1786347182137,None,0,2,,Z02T02,2022-11-11_10h52.56.135,t1_Paradigm,2021.1.4,60.038520949711604,
V,left,Distractor,0,2,2,2,626.6766627486054,628.6776623674928,left,1,2,0.9276537058399299,Z02T02,2022-11-11_10h52.56.135,t1_Paradigm,2021.1.4,60.038520949711604,
N,right,Target,0,3,3,3,630.1759313201514,632.1778352797455,right,1,2,1.4176543089474762,Z02T02,2022-11-11_10h52.56.135,t1_Paradigm,2021.1.4,60.038520949711604,
N,left,Lure,0,4,4,4,633.6753968640969,635.6750860070038,left,1,2,1.2372574256028201,Z02T02,2022-11-11_10h52.56.135,t1_Paradigm,2021.1.4,60.038520949711604,
X,left,Distractor,0,5,5,5,637.174718047163,639.1763525331162,left,1,2,1.0042932925443893,Z02T02,2022-11-11_10h52.56.135,t1_Paradigm,2021.1.4,60.038520949711604,
G,left,Pretarget,0,6,6,6,640.6741425284581,642.6752082325479,left,1,2,0.9857406739661201,Z02T02,2022-11-11_10h52.56.135,t1_Paradigm,2021.1.4,60.038520949711604,
H,left,Pretarget,0,7,7,7,644.1736087140075,646.1746721724835,left,1,2,1.0320012780748584,Z02T02,2022-11-11_10h52.56.135,t1_Paradigm,2021.1.4,60.038520949711604,
G,right,Target,0,8,8,8,647.6731153206028,649.6745268491986,right,1,2,1.0940190325386538,Z02T02,2022-11-11_10h52.56.135,t1_Paradigm,2021.1.4,60.038520949711604,
H,right,Target,0,9,9,9,651.1724509397573,653.1742098968684,right,1,2,1.103042229085986,Z02T02,2022-11-11_10h52.56.135,t1_Paradigm,2021.1.4,60.038520949711604,
T,left,Pretarget,0,10,10,10,654.6717410050342,656.6717445338554,left,1,2,0.6983249005193102,Z02T02,2022-11-11_10h52.56.135,t1_Paradigm,2021.1.4,60.038520949711604,
K,left,Distractor,0,11,11,11,658.171279691825,660.1728201828059,left,1,2,0.931163920815834,Z02T02,2022-11-11_10h52.56.135,t1_Paradigm,2021.1.4,60.038520949711604,
T,right,Target,0,12,12,12,661.6710435815871,663.6724977768426,right,1,2,0.6871988471662007,Z02T02,2022-11-11_10h52.56.135,t1_Paradigm,2021.1.4,60.038520949711604,
T,left,Lure,0,13,13,13,665.1700606444015,667.1697074414506,None,0,2,,Z02T02,2022-11-11_10h52.56.135,t1_Paradigm,2021.1.4,60.038520949711604,
J,left,Distractor,0,14,14,14,668.6695675717988,670.6714705689874,None,0,2,,Z02T02,2022-11-11_10h52.56.135,t1_Paradigm,2021.1.4,60.038520949711604,
Q,left,Pretarget,0,15,15,15,672.1688977373196,674.1688492962248,None,0,2,,Z02T02,2022-11-11_10h52.56.135,t1_Paradigm,2021.1.4,60.038520949711604,
M,left,Distractor,0,16,16,16,675.6683071409229,677.6702024388646,left,1,2,1.0604275391792726,Z02T02,2022-11-11_10h52.56.135,t1_Paradigm,2021.1.4,60.038520949711604,
Q,right,Target,0,17,17,17,679.1678679630486,681.1692628099427,right,1,2,0.7154768977684398,Z02T02,2022-11-11_10h52.56.135,t1_Paradigm,2021.1.4,60.038520949711604,
R,left,Distractor,0,18,18,18,682.6673909305437,684.6689410455833,left,1,2,0.8599940074195729,Z02T02,2022-11-11_10h52.56.135,t1_Paradigm,2021.1.4,60.038520949711604,
W,left,Distractor,0,19,19,19,686.1666322339238,688.1681380782939,left,1,2,0.9592421118004495,Z02T02,2022-11-11_10h52.56.135,t1_Paradigm,2021.1.4,60.038520949711604,
C,left,Pretarget,0,20,20,20,689.6658860485795,691.6689096069917,left,1,2,1.0695482595210706,Z02T02,2022-11-11_10h52.56.135,t1_Paradigm,2021.1.4,60.038520949711604,
T,left,Distractor,0,21,21,21,693.165553376954,695.1643282342934,left,1,2,1.021955685701414,Z02T02,2022-11-11_10h52.56.135,t1_Paradigm,2021.1.4,60.038520949711604,
C,right,Target,0,22,22,22,696.6647632417421,698.6667611963089,right,1,2,1.0573609933057924,Z02T02,2022-11-11_10h52.56.135,t1_Paradigm,2021.1.4,60.038520949711604,
F,left,Pretarget,0,23,23,23,700.164288134049,702.1660326550723,left,1,2,0.646600718339414,Z02T02,2022-11-11_10h52.56.135,t1_Paradigm,2021.1.4,60.038520949711604,
C,right,Target,0,24,24,24,703.6639342894941,705.6644992217343,right,1,2,0.7962509800499902,Z02T02,2022-11-11_10h52.56.135,t1_Paradigm,2021.1.4,60.038520949711604,
F,right,Target,0,25,25,25,707.1631483247079,709.1641209962313,right,1,2,0.5322765261512359,Z02T02,2022-11-11_10h52.56.135,t1_Paradigm,2021.1.4,60.038520949711604,
H,left,Distractor,0,26,26,26,710.6625102496223,712.663218901138,left,1,2,0.6685968250872065,Z02T02,2022-11-11_10h52.56.135,t1_Paradigm,2021.1.4,60.038520949711604,
H,left,Lure,0,27,27,27,714.1785407232414,716.1783739062257,left,1,2,1.0625477192907056,Z02T02,2022-11-11_10h52.56.135,t1_Paradigm,2021.1.4,60.038520949711604,
P,left,Distractor,0,28,28,28,717.6778506782393,719.679760091467,left,1,2,0.918955802473647,Z02T02,2022-11-11_10h52.56.135,t1_Paradigm,2021.1.4,60.038520949711604,
G,left,Pretarget,0,29,29,29,721.1773534352114,723.1782478310579,left,1,2,0.6237933034517482,Z02T02,2022-11-11_10h52.56.135,t1_Paradigm,2021.1.4,60.038520949711604,
K,left,Distractor,0,30,30,30,724.6767666884384,726.6761584479345,left,1,2,0.5291952233874326,Z02T02,2022-11-11_10h52.56.135,t1_Paradigm,2021.1.4,60.038520949711604,
G,right,Target,0,31,31,31,728.176257575738,730.1775930742706,right,1,2,0.7445919206666076,Z02T02,2022-11-11_10h52.56.135,t1_Paradigm,2021.1.4,60.038520949711604,
M,left,Pretarget,0,32,32,32,731.6756544680657,733.6770319916541,left,1,2,0.6113381676050267,Z02T02,2022-11-11_10h52.56.135,t1_Paradigm,2021.1.4,60.038520949711604,
B,left,Distractor,0,33,33,33,735.1748944882374,737.1770313500501,left,1,2,0.6081080127346468,Z02T02,2022-11-11_10h52.56.135,t1_Paradigm,2021.1.4,60.038520949711604,
M,right,Target,0,34,34,34,738.6745085634875,740.6763005631997,right,1,2,0.7363787490521645,Z02T02,2022-11-11_10h52.56.135,t1_Paradigm,2021.1.4,60.038520949711604,
M,left,Lure,0,35,35,35,742.1738438618395,744.1734890548792,left,1,2,0.7439265774150954,Z02T02,2022-11-11_10h52.56.135,t1_Paradigm,2021.1.4,60.038520949711604,
T,left,Distractor,0,36,36,36,745.6733764533933,747.6748745985165,left,1,2,0.7922335771854705,Z02T02,2022-11-11_10h52.56.135,t1_Paradigm,2021.1.4,60.038520949711604,
F,left,Distractor,0,37,37,37,749.1727390199117,751.1747029694711,left,1,2,0.7200617992884872,Z02T02,2022-11-11_10h52.56.135,t1_Paradigm,2021.1.4,60.038520949711604,
X,left,Distractor,0,38,38,38,752.672232794429,754.6720245939609,left,1,2,0.556626998435604,Z02T02,2022-11-11_10h52.56.135,t1_Paradigm,2021.1.4,60.038520949711604,
C,left,Distractor,0,39,39,39,756.1712341379475,758.1725211953849,left,1,2,0.7652874962946044,Z02T02,2022-11-11_10h52.56.135,t1_Paradigm,2021.1.4,60.038520949711604,
R,left,Distractor,0,40,40,40,759.6709098071724,761.6720358220296,left,1,2,0.5661115081925345,Z02T02,2022-11-11_10h52.56.135,t1_Paradigm,2021.1.4,60.038520949711604,
B,left,Pretarget,0,41,41,41,763.1704250754206,765.1722879723648,left,1,2,0.6688714315591824,Z02T02,2022-11-11_10h52.56.135,t1_Paradigm,2021.1.4,60.038520949711604,
H,left,Distractor,0,42,42,42,766.6695967647765,768.6712460076196,left,1,2,0.5197078264127413,Z02T02,2022-11-11_10h52.56.135,t1_Paradigm,2021.1.4,60.038520949711604,
B,right,Target,0,43,43,43,770.1692134064419,772.1713027895653,right,1,2,1.2021177420165259,Z02T02,2022-11-11_10h52.56.135,t1_Paradigm,2021.1.4,60.038520949711604,
W,left,Pretarget,0,44,44,44,773.6685589704566,775.6702309902385,left,1,2,0.6164495051307313,Z02T02,2022-11-11_10h52.56.135,t1_Paradigm,2021.1.4,60.038520949711604,
L,left,Pretarget,0,45,45,45,777.1679417474979,779.1692599227254,left,1,2,1.0344826811856365,Z02T02,2022-11-11_10h52.56.135,t1_Paradigm,2021.1.4,60.038520949711604,
W,right,Target,0,46,46,46,780.6675500483129,782.6685836722072,right,1,2,0.8403737599401211,Z02T02,2022-11-11_10h52.56.135,t1_Paradigm,2021.1.4,60.038520949711604,
L,right,Target,0,47,47,47,784.1667839732477,786.1684203840127,right,1,2,0.7396759515304439,Z02T02,2022-11-11_10h52.56.135,t1_Paradigm,2021.1.4,60.038520949711604,
W,right,Target,0,48,48,48,787.6659848555814,789.6682352812854,right,1,2,0.6595479643833642,Z02T02,2022-11-11_10h52.56.135,t1_Paradigm,2021.1.4,60.038520949711604,
X,left,Distractor,0,49,49,49,791.165592835594,793.1672022989951,left,1,2,0.9875291448574899,Z02T02,2022-11-11_10h52.56.135,t1_Paradigm,2021.1.4,60.038520949711604,
R,left,Distractor,0,50,50,50,794.6651466000767,796.664992615139,left,1,2,0.8723105568224128,Z02T02,2022-11-11_10h52.56.135,t1_Paradigm,2021.1.4,60.038520949711604,
V,left,Pretarget,0,51,51,51,798.1647234623001,800.1654593819812,left,1,2,0.9666718850448888,Z02T02,2022-11-11_10h52.56.135,t1_Paradigm,2021.1.4,60.038520949711604,
Z,left,Distractor,0,52,52,52,801.6639522544037,803.66312073574,left,1,2,1.1089167544591874,Z02T02,2022-11-11_10h52.56.135,t1_Paradigm,2021.1.4,60.038520949711604,
V,right,Target,0,53,53,53,805.1632561141646,807.1651690562135,right,1,2,0.842435554095573,Z02T02,2022-11-11_10h52.56.135,t1_Paradigm,2021.1.4,60.038520949711604,
V,left,Lure,0,54,54,54,808.6630745402585,810.662389307286,left,1,2,1.0014513080377583,Z02T02,2022-11-11_10h52.56.135,t1_Paradigm,2021.1.4,60.038520949711604,
N,left,Distractor,0,55,55,55,812.162051182027,814.1641055977375,left,1,2,0.49486107350594466,Z02T02,2022-11-11_10h52.56.135,t1_Paradigm,2021.1.4,60.038520949711604,
B,left,Distractor,0,56,56,56,815.6781871994885,817.677535329919,left,1,2,0.7105179411701101,Z02T02,2022-11-11_10h52.56.135,t1_Paradigm,2021.1.4,60.038520949711604,
V,left,Lure,0,57,57,57,819.1775812045985,821.1790507983478,None,0,2,,Z02T02,2022-11-11_10h52.56.135,t1_Paradigm,2021.1.4,60.038520949711604,
J,left,Distractor,0,58,58,58,822.6771510091789,824.6790382870718,left,1,2,0.5926899500450418,Z02T02,2022-11-11_10h52.56.135,t1_Paradigm,2021.1.4,60.038520949711604,
H,left,Distractor,0,59,59,59,826.1762219667212,828.1782420566228,left,1,2,1.0148085389782864,Z02T02,2022-11-11_10h52.56.135,t1_Paradigm,2021.1.4,60.038520949711604,
X,left,Pretarget,0,60,60,60,829.6760564329134,831.6778189188462,left,1,2,0.5834964076593678,Z02T02,2022-11-11_10h52.56.135,t1_Paradigm,2021.1.4,60.038520949711604,
P,left,Distractor,0,61,61,61,833.1751620370669,835.1772549490115,left,1,2,0.630325472830009,Z02T02,2022-11-11_10h52.56.135,t1_Paradigm,2021.1.4,60.038520949711604,
X,right,Target,0,62,62,62,836.6749932952393,838.6758087738049,right,1,2,0.6407454410832543,Z02T02,2022-11-11_10h52.56.135,t1_Paradigm,2021.1.4,60.038520949711604,
Q,left,Distractor,0,63,63,63,840.173862468353,842.1760920419301,left,1,2,0.5719590862022415,Z02T02,2022-11-11_10h52.56.135,t1_Paradigm,2021.1.4,60.038520949711604,
B,left,Pretarget,0,0,0,0,869.836050632814,871.8374830135367,None,0,2,,Z02T02,2022-11-11_10h52.56.135,t1_Paradigm,2021.1.4,60.038520949711604,
F,left,Distractor,0,1,1,1,873.3355376704903,875.3368779810521,left,1,2,1.0613443911629474,Z02T02,2022-11-11_10h52.56.135,t1_Paradigm,2021.1.4,60.038520949711604,
B,right,Target,0,2,2,2,876.8338723875495,878.8361741415661,right,1,2,0.8667462469379643,Z02T02,2022-11-11_10h52.56.135,t1_Paradigm,2021.1.4,60.038520949711604,
V,left,Distractor,0,3,3,3,880.3338303624932,882.3355168183634,None,0,2,,Z02T02,2022-11-11_10h52.56.135,t1_Paradigm,2021.1.4,60.038520949711604,
G,left,Pretarget,0,4,4,4,883.8333356858811,885.832353711101,None,0,2,,Z02T02,2022-11-11_10h52.56.135,t1_Paradigm,2021.1.4,60.038520949711604,
B,left,Lure,0,5,5,5,887.3329292298058,889.3340655103252,left,1,2,0.9578889691611039,Z02T02,2022-11-11_10h52.56.135,t1_Paradigm,2021.1.4,60.038520949711604,
G,right,Target,0,6,6,6,890.8320771798171,892.8337475955896,right,1,2,0.6982411712092471,Z02T02,2022-11-11_10h52.56.135,t1_Paradigm,2021.1.4,60.038520949711604,
Y,left,Pretarget,0,7,7,7,894.3319270445031,896.3336876056242,left,1,2,0.6584790522738331,Z02T02,2022-11-11_10h52.56.135,t1_Paradigm,2021.1.4,60.038520949711604,
P,left,Distractor,0,8,8,8,897.8311234356092,899.8332676758669,left,1,2,0.7050915761255965,Z02T02,2022-11-11_10h52.56.135,t1_Paradigm,2021.1.4,60.038520949711604,
Y,right,Target,0,9,9,9,901.3301834858853,903.3320357963653,right,1,2,0.573004900570595,Z02T02,2022-11-11_10h52.56.135,t1_Paradigm,2021.1.4,60.038520949711604,
X,left,Distractor,0,10,10,10,904.8299813806548,906.8311295308463,left,1,2,0.7302841535383777,Z02T02,2022-11-11_10h52.56.135,t1_Paradigm,2021.1.4,60.038520949711604,
Y,right,Target,0,11,11,11,908.3293019221169,910.3311086787194,right,1,2,1.1641591716638686,Z02T02,2022-11-11_10h52.56.135,t1_Paradigm,2021.1.4,60.038520949711604,
N,left,Distractor,0,12,12,12,911.8290244284271,913.8306922777838,left,1,2,0.7081998262538036,Z02T02,2022-11-11_10h52.56.135,t1_Paradigm,2021.1.4,60.038520949711604,
Y,right,Target,0,13,13,13,915.3282811303006,917.3297410999912,right,1,2,0.6040678329318325,Z02T02,2022-11-11_10h52.56.135,t1_Paradigm,2021.1.4,60.038520949711604,
Y,left,Lure,0,14,14,14,918.8277652807596,920.8272160678148,left,1,2,1.0035002701151825,Z02T02,2022-11-11_10h52.56.135,t1_Paradigm,2021.1.4,60.038520949711604,
K,left,Distractor,0,15,15,15,922.3275086391968,924.3277720176006,left,1,2,0.7922351811957924,Z02T02,2022-11-11_10h52.56.135,t1_Paradigm,2021.1.4,60.038520949711604,
T,left,Pretarget,0,16,16,16,925.8256434966388,927.8274990151381,left,1,2,0.6631409462629563,Z02T02,2022-11-11_10h52.56.135,t1_Paradigm,2021.1.4,60.038520949711604,
J,left,Distractor,0,17,17,17,929.3258186545054,931.3273010803327,None,0,2,,Z02T02,2022-11-11_10h52.56.135,t1_Paradigm,2021.1.4,60.038520949711604,
T,right,Target,0,18,18,18,932.8250493714208,934.8264448599184,right,1,2,0.6091685839928687,Z02T02,2022-11-11_10h52.56.135,t1_Paradigm,2021.1.4,60.038520949711604,
S,left,Pretarget,0,19,19,19,936.3239695520451,938.3266527395845,left,1,2,0.6550997244953578,Z02T02,2022-11-11_10h52.56.135,t1_Paradigm,2021.1.4,60.038520949711604,
R,left,Distractor,0,20,20,20,939.8243153765511,941.8254654515545,left,1,2,0.5508333151547049,Z02T02,2022-11-11_10h52.56.135,t1_Paradigm,2021.1.4,60.038520949711604,
S,right,Target,0,21,21,21,943.3233885797072,945.3256072460181,right,1,2,1.2659624636053195,Z02T02,2022-11-11_10h52.56.135,t1_Paradigm,2021.1.4,60.038520949711604,
Q,left,Distractor,0,22,22,22,946.8228894118674,948.8250358977384,left,1,2,0.5898235845897943,Z02T02,2022-11-11_10h52.56.135,t1_Paradigm,2021.1.4,60.038520949711604,
D,left,Distractor,0,23,23,23,950.3224210410153,952.3240670758387,None,0,2,,Z02T02,2022-11-11_10h52.56.135,t1_Paradigm,2021.1.4,60.038520949711604,
F,left,Distractor,0,24,24,24,953.821766925832,955.8214689008169,left,1,2,0.7258115327022097,Z02T02,2022-11-11_10h52.56.135,t1_Paradigm,2021.1.4,60.038520949711604,
Z,left,Distractor,0,25,25,25,957.3205655225156,959.3209822442536,left,1,2,0.984181255670137,Z02T02,2022-11-11_10h52.56.135,t1_Paradigm,2021.1.4,60.038520949711604,
P,left,Distractor,0,26,26,26,960.8206014523348,962.8222202189922,left,1,2,1.4652882662194315,Z02T02,2022-11-11_10h52.56.135,t1_Paradigm,2021.1.4,60.038520949711604,
H,left,Distractor,0,27,27,27,964.3365571790987,966.3379937302466,left,1,2,0.822415908183757,Z02T02,2022-11-11_10h52.56.135,t1_Paradigm,2021.1.4,60.038520949711604,
Z,left,Pretarget,0,28,28,28,967.8359152543894,969.8483610869798,left,1,2,1.0337839745307065,Z02T02,2022-11-11_10h52.56.135,t1_Paradigm,2021.1.4,60.038520949711604,
J,left,Pretarget,0,29,29,29,971.3353605878119,973.3372655098119,left,1,2,0.7152263514426522,Z02T02,2022-11-11_10h52.56.135,t1_Paradigm,2021.1.4,60.038520949711604,
Z,right,Target,0,30,30,30,974.834916597908,976.8363740011832,right,1,2,0.40735303741712414,Z02T02,2022-11-11_10h52.56.135,t1_Paradigm,2021.1.4,60.038520949711604,
J,right,Target,0,31,31,31,978.3343744426065,980.3364561264834,right,1,2,0.4203355716754231,Z02T02,2022-11-11_10h52.56.135,t1_Paradigm,2021.1.4,60.038520949711604,
V,left,Pretarget,0,32,32,32,981.8337062121373,983.8355155351555,left,1,2,0.5243998757855479,Z02T02,2022-11-11_10h52.56.135,t1_Paradigm,2021.1.4,60.038520949711604,
Z,left,Lure,0,33,33,33,985.3327293701886,987.334172016574,left,1,2,0.9186532862308923,Z02T02,2022-11-11_10h52.56.135,t1_Paradigm,2021.1.4,60.038520949711604,
V,right,Target,0,34,34,34,988.8324165882841,990.8339631745021,right,1,2,0.8870780331503738,Z02T02,2022-11-11_10h52.56.135,t1_Paradigm,2021.1.4,60.038520949711604,
X,left,Distractor,0,35,35,35,992.3314946034693,994.3332718462921,left,1,2,0.8398925570095344,Z02T02,2022-11-11_10h52.56.135,t1_Paradigm,2021.1.4,60.038520949711604,
S,left,Distractor,0,36,36,36,995.831009230114,997.8333286282382,left,1,2,0.7961662883340068,Z02T02,2022-11-11_10h52.56.135,t1_Paradigm,2021.1.4,60.038520949711604,
Q,left,Distractor,0,37,37,37,999.3303608893657,1001.3321214504867,left,1,2,1.0106223942862016,Z02T02,2022-11-11_10h52.56.135,t1_Paradigm,2021.1.4,60.038520949711604,
P,left,Distractor,0,38,38,38,1002.8300866036952,1004.832189139699,left,1,2,0.7467274992718558,Z02T02,2022-11-11_10h52.56.135,t1_Paradigm,2021.1.4,60.038520949711604,
S,left,Lure,0,39,39,39,1006.3296689195518,1008.3310470847441,left,1,2,0.8265603486220243,Z02T02,2022-11-11_10h52.56.135,t1_Paradigm,2021.1.4,60.038520949711604,
K,left,Pretarget,0,40,40,40,1009.8290112755471,1011.8307647790252,left,1,2,0.9828419075142847,Z02T02,2022-11-11_10h52.56.135,t1_Paradigm,2021.1.4,60.038520949711604,
L,left,Distractor,0,41,41,41,1013.3287523883705,1015.3283385538502,left,1,2,1.0968087263263442,Z02T02,2022-11-11_10h52.56.135,t1_Paradigm,2021.1.4,60.038520949711604,
K,right,Target,0,42,42,42,1016.827774584016,1018.829247385785,right,1,2,0.7989675309927406,Z02T02,2022-11-11_10h52.56.135,t1_Paradigm,2021.1.4,60.038520949711604,
B,left,Distractor,0,43,43,43,1020.3272596968804,1022.3288341928687,left,1,2,0.6744180973364564,Z02T02,2022-11-11_10h52.56.135,t1_Paradigm,2021.1.4,60.038520949711604,
N,left,Distractor,0,44,44,44,1023.8268667144876,1025.8281435062627,left,1,2,0.9292330138573561,Z02T02,2022-11-11_10h52.56.135,t1_Paradigm,2021.1.4,60.038520949711604,
S,left,Pretarget,0,45,45,45,1027.3261481181116,1029.3281534511234,left,1,2,0.6321303046206594,Z02T02,2022-11-11_10h52.56.135,t1_Paradigm,2021.1.4,60.038520949711604,
Z,left,Distractor,0,46,46,46,1030.8250994165255,1032.8256630655578,left,1,2,1.256565853583652,Z02T02,2022-11-11_10h52.56.135,t1_Paradigm,2021.1.4,60.038520949711604,
S,right,Target,0,47,47,47,1034.324825451657,1036.3269472357779,right,1,2,0.9462191564962268,Z02T02,2022-11-11_10h52.56.135,t1_Paradigm,2021.1.4,60.038520949711604,
C,left,Distractor,0,48,48,48,1037.8245428251362,1039.825446524239,left,1,2,0.7285174971802917,Z02T02,2022-11-11_10h52.56.135,t1_Paradigm,2021.1.4,60.038520949711604,
T,left,Pretarget,0,49,49,49,1041.3237976021978,1043.3251318175226,left,1,2,1.0565095849206045,Z02T02,2022-11-11_10h52.56.135,t1_Paradigm,2021.1.4,60.038520949711604,
S,left,Lure,0,50,50,50,1044.823105311582,1046.8249184842234,left,1,2,1.2456200909282416,Z02T02,2022-11-11_10h52.56.135,t1_Paradigm,2021.1.4,60.038520949711604,
T,right,Target,0,51,51,51,1048.3224858430099,1050.3347892395327,None,0,2,,Z02T02,2022-11-11_10h52.56.135,t1_Paradigm,2021.1.4,60.038520949711604,
N,left,Pretarget,0,52,52,52,1051.821772379465,1053.8233754268272,left,1,2,0.9069905312094306,Z02T02,2022-11-11_10h52.56.135,t1_Paradigm,2021.1.4,60.038520949711604,
B,left,Distractor,0,53,53,53,1055.321447086284,1057.3227633366996,left,1,2,1.1860503761722612,Z02T02,2022-11-11_10h52.56.135,t1_Paradigm,2021.1.4,60.038520949711604,
N,right,Target,0,54,54,54,1058.820834354553,1060.8220559683919,None,0,2,,Z02T02,2022-11-11_10h52.56.135,t1_Paradigm,2021.1.4,60.038520949711604,
N,left,Lure,0,55,55,55,1062.3369931489533,1064.336409289398,None,0,2,,Z02T02,2022-11-11_10h52.56.135,t1_Paradigm,2021.1.4,60.038520949711604,
X,left,Distractor,0,56,56,56,1065.8362136002065,1067.8363091991887,left,1,2,1.229569727588114,Z02T02,2022-11-11_10h52.56.135,t1_Paradigm,2021.1.4,60.038520949711604,
W,left,Distractor,0,57,57,57,1069.3356733697165,1071.3377553743953,left,1,2,0.8458334883875978,Z02T02,2022-11-11_10h52.56.135,t1_Paradigm,2021.1.4,60.038520949711604,
S,left,Distractor,0,58,58,58,1072.8350802069044,1074.8370377404249,left,1,2,1.0395372367661366,Z02T02,2022-11-11_10h52.56.135,t1_Paradigm,2021.1.4,60.038520949711604,
L,left,Distractor,0,59,59,59,1076.334550562879,1078.3357927080433,None,0,2,,Z02T02,2022-11-11_10h52.56.135,t1_Paradigm,2021.1.4,60.038520949711604,
K,left,Pretarget,0,60,60,60,1079.8331383926798,1081.836057048853,left,1,2,1.2635766594762572,Z02T02,2022-11-11_10h52.56.135,t1_Paradigm,2021.1.4,60.038520949711604,
V,left,Pretarget,0,61,61,61,1083.3331704728748,1085.3354853797719,left,1,2,0.8036727332455484,Z02T02,2022-11-11_10h52.56.135,t1_Paradigm,2021.1.4,60.038520949711604,
K,right,Target,0,62,62,62,1086.8328268939827,1088.8337597860636,right,1,2,0.8516274924709251,Z02T02,2022-11-11_10h52.56.135,t1_Paradigm,2021.1.4,60.038520949711604,
V,right,Target,0,63,63,63,1090.3313852100032,1092.3337139113842,right,1,2,0.6160783372706646,Z02T02,2022-11-11_10h52.56.135,t1_Paradigm,2021.1.4,60.038520949711604,
R,left,Distractor,0,0,0,0,1196.1996029755023,1198.1970243693995,left,1,3,0.5608108975138748,Z02T02,2022-11-11_10h52.56.135,t1_Paradigm,2021.1.4,60.038520949711604,
P,left,Lure,0,1,1,1,1199.6974545648195,1201.6989581635758,left,1,3,0.7722880365249694,Z02T02,2022-11-11_10h52.56.135,t1_Paradigm,2021.1.4,60.038520949711604,
V,left,Distractor,0,2,2,2,1203.19660732686,1205.1979736223802,left,1,3,0.505321142003595,Z02T02,2022-11-11_10h52.56.135,t1_Paradigm,2021.1.4,60.038520949711604,
P,left,Pretarget,0,3,3,3,1206.6961726402128,1208.6978623041023,left,1,3,1.1595617588673122,Z02T02,2022-11-11_10h52.56.135,t1_Paradigm,2021.1.4,60.038520949711604,
Z,left,Distractor,0,4,4,4,1210.1954242092552,1212.1965906451583,left,1,3,0.8482744704519973,Z02T02,2022-11-11_10h52.56.135,t1_Paradigm,2021.1.4,60.038520949711604,
L,left,Pretarget,0,5,5,5,1213.6946786655153,1215.6956917580846,left,1,3,0.62121726376472,Z02T02,2022-11-11_10h52.56.135,t1_Paradigm,2021.1.4,60.038520949711604,
P,right,Target,0,6,6,6,1217.1941727608346,1219.1957308959227,right,1,3,0.9613622919118825,Z02T02,2022-11-11_10h52.56.135,t1_Paradigm,2021.1.4,60.038520949711604,
S,left,Distractor,0,7,7,7,1220.693657552897,1222.6954014323164,left,1,3,0.5711426452298838,Z02T02,2022-11-11_10h52.56.135,t1_Paradigm,2021.1.4,60.038520949711604,
L,right,Target,0,8,8,8,1224.193305953956,1226.1935157584335,left,0,3,1.0762090704824914,Z02T02,2022-11-11_10h52.56.135,t1_Paradigm,2021.1.4,60.038520949711604,
D,left,Distractor,0,9,9,9,1227.6923964804178,1229.6933495830217,left,1,3,0.5800894909129966,Z02T02,2022-11-11_10h52.56.135,t1_Paradigm,2021.1.4,60.038520949711604,
G,left,Distractor,0,10,10,10,1231.1918607411553,1233.1938625453454,left,1,3,0.9397556387357326,Z02T02,2022-11-11_10h52.56.135,t1_Paradigm,2021.1.4,60.038520949711604,
M,left,Pretarget,0,11,11,11,1234.6912922800934,1236.6930085705449,left,1,3,0.8397741810890693,Z02T02,2022-11-11_10h52.56.135,t1_Paradigm,2021.1.4,60.038520949711604,
Y,left,Distractor,0,12,12,12,1238.1907408215352,1240.1919852123133,left,1,3,0.6706021580989727,Z02T02,2022-11-11_10h52.56.135,t1_Paradigm,2021.1.4,60.038520949711604,
V,left,Distractor,0,13,13,13,1241.690079648709,1243.6924250317916,left,1,3,0.9486222839304901,Z02T02,2022-11-11_10h52.56.135,t1_Paradigm,2021.1.4,60.038520949711604,
M,right,Target,0,14,14,14,1245.1894880899067,1247.190403017078,right,1,3,0.6704901982175215,Z02T02,2022-11-11_10h52.56.135,t1_Paradigm,2021.1.4,60.038520949711604,
S,left,Pretarget,0,15,15,15,1248.6888734333638,1250.6883328820718,left,1,3,0.6860282408379135,Z02T02,2022-11-11_10h52.56.135,t1_Paradigm,2021.1.4,60.038520949711604,
Q,left,Distractor,0,16,16,16,1252.1883672078811,1254.1897681500122,left,1,3,0.8654229388794192,Z02T02,2022-11-11_10h52.56.135,t1_Paradigm,2021.1.4,60.038520949711604,
R,left,Pretarget,0,17,17,17,1255.6877410024676,1257.6891371325696,left,1,3,0.7857604353666829,Z02T02,2022-11-11_10h52.56.135,t1_Paradigm,2021.1.4,60.038520949711604,
S,right,Target,0,18,18,18,1259.1866708071507,1261.188609734158,left,0,3,0.5834601570390987,Z02T02,2022-11-11_10h52.56.135,t1_Paradigm,2021.1.4,60.038520949711604,
F,left,Distractor,0,19,19,19,1262.6865607720806,1264.6880993382497,left,1,3,1.01812948080169,Z02T02,2022-11-11_10h52.56.135,t1_Paradigm,2021.1.4,60.038520949711604,
R,right,Target,0,20,20,20,1266.186046526549,1268.1869710777792,left,0,3,1.0942172881455008,Z02T02,2022-11-11_10h52.56.135,t1_Paradigm,2021.1.4,60.038520949711604,
P,left,Distractor,0,21,21,21,1269.685355519141,1271.6862688423025,left,1,3,0.8021014452770032,Z02T02,2022-11-11_10h52.56.135,t1_Paradigm,2021.1.4,60.038520949711604,
L,left,Distractor,0,22,22,22,1273.185113634468,1275.1846407723883,left,1,3,0.9519595866531745,Z02T02,2022-11-11_10h52.56.135,t1_Paradigm,2021.1.4,60.038520949711604,
R,right,Target,0,23,23,23,1276.6842731333495,1278.685934887469,left,0,3,1.2950184589444689,Z02T02,2022-11-11_10h52.56.135,t1_Paradigm,2021.1.4,60.038520949711604,
H,left,Pretarget,0,24,24,24,1280.183628321423,1282.185819398766,left,1,3,0.7534842300174205,Z02T02,2022-11-11_10h52.56.135,t1_Paradigm,2021.1.4,60.038520949711604,
G,left,Pretarget,0,25,25,25,1283.6832513791278,1285.6850908575293,None,0,3,,Z02T02,2022-11-11_10h52.56.135,t1_Paradigm,2021.1.4,60.038520949711604,
T,left,Distractor,0,26,26,26,1287.1825250835045,1289.184215068196,left,1,3,1.2105506629691263,Z02T02,2022-11-11_10h52.56.135,t1_Paradigm,2021.1.4,60.038520949711604,
H,right,Target,0,27,27,27,1290.6985019831977,1292.699548118368,right,1,3,0.45378912019441486,Z02T02,2022-11-11_10h52.56.135,t1_Paradigm,2021.1.4,60.038520949711604,
G,right,Target,0,28,28,28,1294.198112208824,1296.1999202486345,None,0,3,,Z02T02,2022-11-11_10h52.56.135,t1_Paradigm,2021.1.4,60.038520949711604,
D,left,Distractor,0,29,29,29,1297.697441411939,1299.6986537225216,None,0,3,,Z02T02,2022-11-11_10h52.56.135,t1_Paradigm,2021.1.4,60.038520949711604,
N,left,Pretarget,0,30,30,30,1301.1966711664486,1303.198243416823,left,1,3,0.6911527312436192,Z02T02,2022-11-11_10h52.56.135,t1_Paradigm,2021.1.4,60.038520949711604,
V,left,Distractor,0,31,31,31,1304.696137031196,1306.6976874670377,left,1,3,0.7949350504363792,Z02T02,2022-11-11_10h52.56.135,t1_Paradigm,2021.1.4,60.038520949711604,
R,left,Distractor,0,32,32,32,1308.195681492422,1310.1975642790876,left,1,3,1.0903782511672944,Z02T02,2022-11-11_10h52.56.135,t1_Paradigm,2021.1.4,60.038520949711604,
N,right,Target,0,33,33,33,1311.6951386955166,1313.6963898231356,right,1,3,0.8440212781520131,Z02T02,2022-11-11_10h52.56.135,t1_Paradigm,2021.1.4,60.038520949711604,
Z,left,Distractor,0,34,34,34,1315.1937246005054,1317.196455587536,left,1,3,0.5755000981657759,Z02T02,2022-11-11_10h52.56.135,t1_Paradigm,2021.1.4,60.038520949711604,
N,left,Lure,0,35,35,35,1318.69377624962,1320.695218896005,right,0,3,0.43168009115879613,Z02T02,2022-11-11_10h52.56.135,t1_Paradigm,2021.1.4,60.038520949711604,
Y,left,Pretarget,0,36,36,36,1322.193241793565,1324.1953671065075,left,1,3,0.9019856999320837,Z02T02,2022-11-11_10h52.56.135,t1_Paradigm,2021.1.4,60.038520949711604,
Y,left,Lure,0,37,37,37,1325.6927743851188,1327.6923390568677,left,1,3,1.2980468293858394,Z02T02,2022-11-11_10h52.56.135,t1_Paradigm,2021.1.4,60.038520949711604,
B,left,Distractor,0,38,38,38,1329.192029162181,1331.193562274717,left,1,3,0.7876669613765444,Z02T02,2022-11-11_10h52.56.135,t1_Paradigm,2021.1.4,60.038520949711604,
Y,right,Target,0,39,39,39,1332.6915056133926,1334.6928892322185,right,1,3,0.8836951765501908,Z02T02,2022-11-11_10h52.56.135,t1_Paradigm,2021.1.4,60.038520949711604,
J,left,Distractor,0,40,40,40,1336.1908758791578,1338.192255327558,left,1,3,0.6366423840972857,Z02T02,2022-11-11_10h52.56.135,t1_Paradigm,2021.1.4,60.038520949711604,
X,left,Distractor,0,41,41,41,1339.6902519193582,1341.692525442803,left,1,3,0.8332885279937727,Z02T02,2022-11-11_10h52.56.135,t1_Paradigm,2021.1.4,60.038520949711604,
W,left,Pretarget,0,42,42,42,1343.1889626163065,1345.1915745858128,left,1,3,0.6071545893282746,Z02T02,2022-11-11_10h52.56.135,t1_Paradigm,2021.1.4,60.038520949711604,
S,left,Pretarget,0,43,43,43,1346.6891300749267,1348.6912361397517,left,1,3,0.5146981831062476,Z02T02,2022-11-11_10h52.56.135,t1_Paradigm,2021.1.4,60.038520949711604,
R,left,Distractor,0,44,44,44,1350.1885670674978,1352.2007758274444,left,1,3,0.6452321772057985,Z02T02,2022-11-11_10h52.56.135,t1_Paradigm,2021.1.4,60.038520949711604,
W,right,Target,0,45,45,45,1353.6881833883617,1355.689472049809,right,1,3,0.39662317447664464,Z02T02,2022-11-11_10h52.56.135,t1_Paradigm,2021.1.4,60.038520949711604,
S,right,Target,0,46,46,46,1357.187350265688,1359.1895179244884,right,1,3,0.6671124744480039,Z02T02,2022-11-11_10h52.56.135,t1_Paradigm,2021.1.4,60.038520949711604,
D,left,Distractor,0,47,47,47,1360.6867949575067,1362.68830304749,left,1,3,0.8206646503194861,Z02T02,2022-11-11_10h52.56.135,t1_Paradigm,2021.1.4,60.038520949711604,
T,left,Distractor,0,48,48,48,1364.1862207220097,1366.1880326114433,left,1,3,1.014232378669476,Z02T02,2022-11-11_10h52.56.135,t1_Paradigm,2021.1.4,60.038520949711604,
S,right,Target,0,49,49,49,1367.685616331129,1369.686681393615,right,1,3,1.339569509442299,Z02T02,2022-11-11_10h52.56.135,t1_Paradigm,2021.1.4,60.038520949711604,
K,left,Distractor,0,50,50,50,1371.184872391399,1373.1860968924557,left,1,3,0.9334011936398383,Z02T02,2022-11-11_10h52.56.135,t1_Paradigm,2021.1.4,60.038520949711604,
S,left,Lure,0,51,51,51,1374.6844540656516,1376.6853770128719,left,1,3,0.7720445478421425,Z02T02,2022-11-11_10h52.56.135,t1_Paradigm,2021.1.4,60.038520949711604,
T,left,Pretarget,0,52,52,52,1378.1838881710055,1380.1854280203825,left,1,3,0.6434587840067252,Z02T02,2022-11-11_10h52.56.135,t1_Paradigm,2021.1.4,60.038520949711604,
V,left,Distractor,0,53,53,53,1381.6826222864966,1383.6854167923143,left,1,3,0.6406706942279925,Z02T02,2022-11-11_10h52.56.135,t1_Paradigm,2021.1.4,60.038520949711604,
B,left,Distractor,0,54,54,54,1385.1827143566575,1387.1845753287898,left,1,3,0.5527173850277904,Z02T02,2022-11-11_10h52.56.135,t1_Paradigm,2021.1.4,60.038520949711604,
T,right,Target,0,55,55,55,1388.682212943204,1390.6828539055073,right,1,3,0.42111832844193486,Z02T02,2022-11-11_10h52.56.135,t1_Paradigm,2021.1.4,60.038520949711604,
Y,left,Pretarget,0,56,56,56,1392.1978164294228,1394.1990181535411,left,1,3,0.6921401596564465,Z02T02,2022-11-11_10h52.56.135,t1_Paradigm,2021.1.4,60.038520949711604,
T,left,Lure,0,57,57,57,1395.6976390259424,1397.6989700332479,left,1,3,0.5303546016475593,Z02T02,2022-11-11_10h52.56.135,t1_Paradigm,2021.1.4,60.038520949711604,
P,left,Pretarget,0,58,58,58,1399.1970728104948,1401.198112529626,left,1,3,1.4096464505832955,Z02T02,2022-11-11_10h52.56.135,t1_Paradigm,2021.1.4,60.038520949711604,
Y,right,Target,0,59,59,59,1402.6963022442023,1404.6977724795552,right,1,3,1.0606482509238049,Z02T02,2022-11-11_10h52.56.135,t1_Paradigm,2021.1.4,60.038520949711604,
R,left,Distractor,0,60,60,60,1406.196013201642,1408.1969621338208,left,1,3,0.9483845696827302,Z02T02,2022-11-11_10h52.56.135,t1_Paradigm,2021.1.4,60.038520949711604,
P,right,Target,0,61,61,61,1409.6955615124912,1411.6957472568224,None,0,3,,Z02T02,2022-11-11_10h52.56.135,t1_Paradigm,2021.1.4,60.038520949711604,
L,left,Distractor,0,62,62,62,1413.1946626254175,1415.1939295929537,left,1,3,0.7048673355602659,Z02T02,2022-11-11_10h52.56.135,t1_Paradigm,2021.1.4,60.038520949711604,
V,left,Distractor,0,63,63,63,1416.6942904951516,1418.6955092217731,left,1,3,1.1458118663363166,Z02T02,2022-11-11_10h52.56.135,t1_Paradigm,2021.1.4,60.038520949711604,
H,left,Lure,0,0,0,0,1476.154535433859,1478.1524191033718,left,1,3,0.7599711663206108,Z02T02,2022-11-11_10h52.56.135,t1_Paradigm,2021.1.4,60.038520949711604,
B,left,Distractor,0,1,1,1,1479.649332667776,1481.6520261209785,left,1,3,0.6068344289797096,Z02T02,2022-11-11_10h52.56.135,t1_Paradigm,2021.1.4,60.038520949711604,
T,left,Distractor,0,2,2,2,1483.1495113544647,1485.1509668329277,left,1,3,0.9438763398293304,Z02T02,2022-11-11_10h52.56.135,t1_Paradigm,2021.1.4,60.038520949711604,
R,left,Distractor,0,3,3,3,1486.6489098508014,1488.6487029335417,right,0,3,0.9882910494970929,Z02T02,2022-11-11_10h52.56.135,t1_Paradigm,2021.1.4,60.038520949711604,
H,left,Pretarget,0,4,4,4,1490.1486172794198,1492.1503364570885,left,1,3,0.8414991331928832,Z02T02,2022-11-11_10h52.56.135,t1_Paradigm,2021.1.4,60.038520949711604,
K,left,Distractor,0,5,5,5,1493.6478909837965,1495.649138261792,left,1,3,1.1746269394088813,Z02T02,2022-11-11_10h52.56.135,t1_Paradigm,2021.1.4,60.038520949711604,
G,left,Distractor,0,6,6,6,1497.1473019914106,1499.148198953672,None,0,3,,Z02T02,2022-11-11_10h52.56.135,t1_Paradigm,2021.1.4,60.038520949711604,
H,right,Target,0,7,7,7,1500.6465503524328,1502.6465192346436,left,0,3,1.0251720460883007,Z02T02,2022-11-11_10h52.56.135,t1_Paradigm,2021.1.4,60.038520949711604,
Y,left,Pretarget,0,8,8,8,1504.1460906432335,1506.1475669738243,left,1,3,0.6786536455292662,Z02T02,2022-11-11_10h52.56.135,t1_Paradigm,2021.1.4,60.038520949711604,
S,left,Distractor,0,9,9,9,1507.645412147102,1509.6470870541011,None,0,3,,Z02T02,2022-11-11_10h52.56.135,t1_Paradigm,2021.1.4,60.038520949711604,
P,left,Distractor,0,10,10,10,1511.1448728790178,1513.1467514952578,None,0,3,,Z02T02,2022-11-11_10h52.56.135,t1_Paradigm,2021.1.4,60.038520949711604,
Y,right,Target,0,11,11,11,1514.6443438765968,1516.6465432947903,right,1,3,0.3903588747289177,Z02T02,2022-11-11_10h52.56.135,t1_Paradigm,2021.1.4,60.038520949711604,
H,left,Lure,0,12,12,12,1518.1438065333246,1520.1448731998203,left,1,3,0.6220179854408343,Z02T02,2022-11-11_10h52.56.135,t1_Paradigm,2021.1.4,60.038520949711604,
Q,left,Distractor,0,13,13,13,1521.6422054107738,1523.6445899316946,left,1,3,0.7464561008191595,Z02T02,2022-11-11_10h52.56.135,t1_Paradigm,2021.1.4,60.038520949711604,
V,left,Pretarget,0,14,14,14,1525.1425323079643,1527.1440885182415,left,1,3,0.9932346076011527,Z02T02,2022-11-11_10h52.56.135,t1_Paradigm,2021.1.4,60.038520949711604,
G,left,Distractor,0,15,15,15,1528.642021270453,1530.6433314256315,left,1,3,0.6528156145859612,Z02T02,2022-11-11_10h52.56.135,t1_Paradigm,2021.1.4,60.038520949711604,
Z,left,Pretarget,0,16,16,16,1532.1413995562666,1534.1425534808936,left,1,3,0.9489000984222002,Z02T02,2022-11-11_10h52.56.135,t1_Paradigm,2021.1.4,60.038520949711604,
V,right,Target,0,17,17,17,1535.6408625337967,1537.6418801175928,right,1,3,0.5594500556271669,Z02T02,2022-11-11_10h52.56.135,t1_Paradigm,2021.1.4,60.038520949711604,
N,left,Distractor,0,18,18,18,1539.1400964587315,1541.1413382830938,left,1,3,0.6266102654062706,Z02T02,2022-11-11_10h52.56.135,t1_Paradigm,2021.1.4,60.038520949711604,
Z,right,Target,0,19,19,19,1542.639521902433,1544.6411891101848,right,1,3,0.7916246950780987,Z02T02,2022-11-11_10h52.56.135,t1_Paradigm,2021.1.4,60.038520949711604,
R,left,Distractor,0,20,20,20,1546.1388783737134,1548.1405041980147,left,1,3,1.3531038230612467,Z02T02,2022-11-11_10h52.56.135,t1_Paradigm,2021.1.4,60.038520949711604,
P,left,Distractor,0,21,21,21,1549.6383487296885,1551.6405978721846,left,1,3,1.1792695852800534,Z02T02,2022-11-11_10h52.56.135,t1_Paradigm,2021.1.4,60.038520949711604,
Z,right,Target,0,22,22,22,1553.1376862736547,1555.1389877671795,right,1,3,0.9783718530934493,Z02T02,2022-11-11_10h52.56.135,t1_Paradigm,2021.1.4,60.038520949711604,
D,left,Pretarget,0,23,23,23,1556.6373183138135,1558.638830253421,left,1,3,0.7800575390383528,Z02T02,2022-11-11_10h52.56.135,t1_Paradigm,2021.1.4,60.038520949711604,
K,left,Distractor,0,24,24,24,1560.1366779931145,1562.138191857533,left,1,3,0.5048880593658396,Z02T02,2022-11-11_10h52.56.135,t1_Paradigm,2021.1.4,60.038520949711604,
W,left,Distractor,0,25,25,25,1563.6360687902047,1565.6377096921965,left,1,3,0.9314295448330085,Z02T02,2022-11-11_10h52.56.135,t1_Paradigm,2021.1.4,60.038520949711604,
D,right,Target,0,26,26,26,1567.1355532614648,1569.1374931508785,left,0,3,0.7780278250784249,Z02T02,2022-11-11_10h52.56.135,t1_Paradigm,2021.1.4,60.038520949711604,
G,left,Pretarget,0,27,27,27,1570.6515000057748,1572.6526478351639,left,1,3,1.286675683340036,Z02T02,2022-11-11_10h52.56.135,t1_Paradigm,2021.1.4,60.038520949711604,
V,left,Distractor,0,28,28,28,1574.1502662014614,1576.1518278653707,left,1,3,1.2239152723550433,Z02T02,2022-11-11_10h52.56.135,t1_Paradigm,2021.1.4,60.038520949711604,
D,right,Target,0,29,29,29,1577.650271975896,1579.6517829530972,None,0,3,,Z02T02,2022-11-11_10h52.56.135,t1_Paradigm,2021.1.4,60.038520949711604,
G,right,Target,0,30,30,30,1581.1496746426587,1583.1510845672442,left,0,3,1.0763819827352563,Z02T02,2022-11-11_10h52.56.135,t1_Paradigm,2021.1.4,60.038520949711604,
B,left,Pretarget,0,31,31,31,1584.6491408282077,1586.6507926374666,left,1,3,0.5802688192052301,Z02T02,2022-11-11_10h52.56.135,t1_Paradigm,2021.1.4,60.038520949711604,
N,left,Distractor,0,32,32,32,1588.1485582518603,1590.1504493793768,left,1,3,0.9426264954181534,Z02T02,2022-11-11_10h52.56.135,t1_Paradigm,2021.1.4,60.038520949711604,
F,left,Distractor,0,33,33,33,1591.6480638960497,1593.6471755954403,left,1,3,0.6301762999210041,Z02T02,2022-11-11_10h52.56.135,t1_Paradigm,2021.1.4,60.038520949711604,
B,right,Target,0,34,34,34,1595.1473289387745,1597.1488020613447,right,1,3,1.0463943785234733,Z02T02,2022-11-11_10h52.56.135,t1_Paradigm,2021.1.4,60.038520949711604,
Q,left,Pretarget,0,35,35,35,1598.6475762770801,1600.6477896103793,left,1,3,0.5632384058962998,Z02T02,2022-11-11_10h52.56.135,t1_Paradigm,2021.1.4,60.038520949711604,
S,left,Pretarget,0,36,36,36,1602.1462510442102,1604.1479612394246,left,1,3,0.6093732556391842,Z02T02,2022-11-11_10h52.56.135,t1_Paradigm,2021.1.4,60.038520949711604,
W,left,Distractor,0,37,37,37,1605.6457111345221,1607.6468714751886,left,1,3,0.8690691738838723,Z02T02,2022-11-11_10h52.56.135,t1_Paradigm,2021.1.4,60.038520949711604,
Q,right,Target,0,38,38,38,1609.1450429040528,1611.1462760667623,right,1,3,0.6998740531535077,Z02T02,2022-11-11_10h52.56.135,t1_Paradigm,2021.1.4,60.038520949711604,
S,right,Target,0,39,39,39,1612.644445250014,1614.6454342824368,left,0,3,1.2530386361040655,Z02T02,2022-11-11_10h52.56.135,t1_Paradigm,2021.1.4,60.038520949711604,
T,left,Distractor,0,40,40,40,1616.1438799969715,1618.144968798802,None,0,3,,Z02T02,2022-11-11_10h52.56.135,t1_Paradigm,2021.1.4,60.038520949711604,
G,left,Distractor,0,41,41,41,1619.643378262716,1621.644832457972,None,0,3,,Z02T02,2022-11-11_10h52.56.135,t1_Paradigm,2021.1.4,60.038520949711604,
D,left,Distractor,0,42,42,42,1623.1427539821148,1625.143584859174,left,1,3,0.9616632041443154,Z02T02,2022-11-11_10h52.56.135,t1_Paradigm,2021.1.4,60.038520949711604,
S,left,Lure,0,43,43,43,1626.6421139822173,1628.64412605207,right,0,3,1.0481571852578782,Z02T02,2022-11-11_10h52.56.135,t1_Paradigm,2021.1.4,60.038520949711604,
Z,left,Pretarget,0,44,44,44,1630.1415108745446,1632.1406745438521,left,1,3,1.2941994515567785,Z02T02,2022-11-11_10h52.56.135,t1_Paradigm,2021.1.4,60.038520949711604,
J,left,Distractor,0,45,45,45,1633.6411705036721,1635.6427571901345,left,1,3,0.9629646976700315,Z02T02,2022-11-11_10h52.56.135,t1_Paradigm,2021.1.4,60.038520949711604,
M,left,Pretarget,0,46,46,46,1637.1403521378884,1639.1421531200554,left,1,3,0.9162289858686563,Z02T02,2022-11-11_10h52.56.135,t1_Paradigm,2021.1.4,60.038520949711604,
Z,right,Target,0,47,47,47,1640.6397637871055,1642.6410094610915,right,1,3,1.2168159251223187,Z02T02,2022-11-11_10h52.56.135,t1_Paradigm,2021.1.4,60.038520949711604,
P,left,Distractor,0,48,48,48,1644.1391914764204,1646.1410072154772,None,0,3,,Z02T02,2022-11-11_10h52.56.135,t1_Paradigm,2021.1.4,60.038520949711604,
M,right,Target,0,49,49,49,1647.638726313588,1649.6397358773352,left,0,3,1.172401857058503,Z02T02,2022-11-11_10h52.56.135,t1_Paradigm,2021.1.4,60.038520949711604,
K,left,Distractor,0,50,50,50,1651.1380240781114,1653.1393534814074,left,1,3,1.0518191395585745,Z02T02,2022-11-11_10h52.56.135,t1_Paradigm,2021.1.4,60.038520949711604,
Y,left,Distractor,0,51,51,51,1654.637401722321,1656.6392132909536,left,1,3,1.2535772625842583,Z02T02,2022-11-11_10h52.56.135,t1_Paradigm,2021.1.4,60.038520949711604,
X,left,Distractor,0,52,52,52,1658.1369789053465,1660.137695256109,None,0,3,,Z02T02,2022-11-11_10h52.56.135,t1_Paradigm,2021.1.4,60.038520949711604,
F,left,Pretarget,0,53,53,53,1661.636405632256,1663.637766153341,left,1,3,0.801516623315365,Z02T02,2022-11-11_10h52.56.135,t1_Paradigm,2021.1.4,60.038520949711604,
M,left,Lure,0,54,54,54,1665.1357479882513,1667.1376917272878,left,1,3,0.863964573199155,Z02T02,2022-11-11_10h52.56.135,t1_Paradigm,2021.1.4,60.038520949711604,
V,left,Distractor,0,55,55,55,1668.6518493591016,1670.6523940808188,left,1,3,0.7036232655837011,Z02T02,2022-11-11_10h52.56.135,t1_Paradigm,2021.1.4,60.038520949711604,
F,right,Target,0,56,56,56,1672.151231494539,1674.1523347324578,right,1,3,1.1543747120804255,Z02T02,2022-11-11_10h52.56.135,t1_Paradigm,2021.1.4,60.038520949711604,
S,left,Distractor,0,57,57,57,1675.6502296300382,1677.651870532031,left,1,3,0.9890866383420871,Z02T02,2022-11-11_10h52.56.135,t1_Paradigm,2021.1.4,60.038520949711604,
D,left,Distractor,0,58,58,58,1679.1501077252956,1681.1511063817775,left,1,3,0.533964586030379,Z02T02,2022-11-11_10h52.56.135,t1_Paradigm,2021.1.4,60.038520949711604,
F,right,Target,0,59,59,59,1682.6494914647433,1684.6509594544827,left,0,3,0.7722113648587765,Z02T02,2022-11-11_10h52.56.135,t1_Paradigm,2021.1.4,60.038520949711604,
V,left,Pretarget,0,60,60,60,1686.1487603570909,1688.150083023546,right,0,3,0.9828557019982327,Z02T02,2022-11-11_10h52.56.135,t1_Paradigm,2021.1.4,60.038520949711604,
J,left,Distractor,0,61,61,61,1689.6483757155488,1691.6503123969428,left,1,3,1.2492852532468532,Z02T02,2022-11-11_10h52.56.135,t1_Paradigm,2021.1.4,60.038520949711604,
V,left,Lure,0,62,62,62,1693.1476635352114,1695.1490487580472,right,0,3,1.1090591905267502,Z02T02,2022-11-11_10h52.56.135,t1_Paradigm,2021.1.4,60.038520949711604,
V,right,Target,0,63,63,63,1696.647056577916,1698.6466988837378,left,0,3,1.0766498523671544,Z02T02,2022-11-11_10h52.56.135,t1_Paradigm,2021.1.4,60.038520949711604,
R,left,Distractor,0,0,0,0,1824.7298776974635,1826.7107944724544,None,0,4,,Z02T02,2022-11-11_10h52.56.135,t1_Paradigm,2021.1.4,60.038520949711604,
F,left,Distractor,0,1,1,1,1828.208360868834,1830.209379094235,None,0,4,,Z02T02,2022-11-11_10h52.56.135,t1_Paradigm,2021.1.4,60.038520949711604,
P,left,Pretarget,0,2,2,2,1831.707833149621,1833.7087743825527,None,0,4,,Z02T02,2022-11-11_10h52.56.135,t1_Paradigm,2021.1.4,60.038520949711604,
H,left,Distractor,0,3,3,3,1835.2072435156301,1837.2089764877833,None,0,4,,Z02T02,2022-11-11_10h52.56.135,t1_Paradigm,2021.1.4,60.038520949711604,
Z,left,Distractor,0,4,4,4,1838.7067071347642,1840.7080564277808,left,1,4,0.813290375813267,Z02T02,2022-11-11_10h52.56.135,t1_Paradigm,2021.1.4,60.038520949711604,
T,left,Distractor,0,5,5,5,1842.2060312050476,1844.2077824629118,left,1,4,0.6929909264372327,Z02T02,2022-11-11_10h52.56.135,t1_Paradigm,2021.1.4,60.038520949711604,
P,right,Target,0,6,6,6,1845.7053934507635,1847.706959926703,right,1,4,0.41839632386654557,Z02T02,2022-11-11_10h52.56.135,t1_Paradigm,2021.1.4,60.038520949711604,
G,left,Distractor,0,7,7,7,1849.2048118368225,1851.2064209794212,left,1,4,0.46134240219089406,Z02T02,2022-11-11_10h52.56.135,t1_Paradigm,2021.1.4,60.038520949711604,
L,left,Distractor,0,8,8,8,1852.7042584534524,1854.7057017414413,left,1,4,0.5782038170300439,Z02T02,2022-11-11_10h52.56.135,t1_Paradigm,2021.1.4,60.038520949711604,
P,left,Lure,0,9,9,9,1856.2037159773486,1858.205314854285,left,1,4,0.8373861313466477,Z02T02,2022-11-11_10h52.56.135,t1_Paradigm,2021.1.4,60.038520949711604,
Q,left,Pretarget,0,10,10,10,1859.702926804543,1861.704472107553,None,0,4,,Z02T02,2022-11-11_10h52.56.135,t1_Paradigm,2021.1.4,60.038520949711604,
D,left,Distractor,0,11,11,11,1863.2025501830499,1865.204002453493,left,1,4,0.6139668188125142,Z02T02,2022-11-11_10h52.56.135,t1_Paradigm,2021.1.4,60.038520949711604,
M,left,Pretarget,0,12,12,12,1866.701915957587,1868.7030775814615,right,0,4,0.7633877071257302,Z02T02,2022-11-11_10h52.56.135,t1_Paradigm,2021.1.4,60.038520949711604,
C,left,Distractor,0,13,13,13,1870.201256067969,1872.2033948545936,None,0,4,,Z02T02,2022-11-11_10h52.56.135,t1_Paradigm,2021.1.4,60.038520949711604,
Q,right,Target,0,14,14,14,1873.700612860052,1875.702086624227,right,1,4,1.2982976965131456,Z02T02,2022-11-11_10h52.56.135,t1_Paradigm,2021.1.4,60.038520949711604,
R,left,Distractor,0,15,15,15,1877.2002003087396,1879.2012348950398,None,0,4,,Z02T02,2022-11-11_10h52.56.135,t1_Paradigm,2021.1.4,60.038520949711604,
M,right,Target,0,16,16,16,1880.6995115469458,1882.7009429652621,left,0,4,1.2986268393178761,Z02T02,2022-11-11_10h52.56.135,t1_Paradigm,2021.1.4,60.038520949711604,
S,left,Distractor,0,17,17,17,1884.1988715470484,1886.201238423862,left,1,4,0.6392761681363481,Z02T02,2022-11-11_10h52.56.135,t1_Paradigm,2021.1.4,60.038520949711604,
Z,left,Distractor,0,18,18,18,1887.6983701335944,1889.6977593266752,right,0,4,0.8032643523592924,Z02T02,2022-11-11_10h52.56.135,t1_Paradigm,2021.1.4,60.038520949711604,
L,left,Pretarget,0,19,19,19,1891.197774725169,1893.1988545445442,left,1,4,1.3589889348986617,Z02T02,2022-11-11_10h52.56.135,t1_Paradigm,2021.1.4,60.038520949711604,
M,right,Target,0,20,20,20,1894.6972502139747,1896.698439426817,right,1,4,0.8920122879981136,Z02T02,2022-11-11_10h52.56.135,t1_Paradigm,2021.1.4,60.038520949711604,
P,left,Distractor,0,21,21,21,1898.1964013720058,1900.1982337927643,left,1,4,0.661332585650598,Z02T02,2022-11-11_10h52.56.135,t1_Paradigm,2021.1.4,60.038520949711604,
F,left,Distractor,0,22,22,22,1901.6959381339852,1903.6971757879214,left,1,4,0.9906142972449743,Z02T02,2022-11-11_10h52.56.135,t1_Paradigm,2021.1.4,60.038520949711604,
L,right,Target,0,23,23,23,1905.1955140338018,1907.1947774725172,right,1,4,1.219161308204093,Z02T02,2022-11-11_10h52.56.135,t1_Paradigm,2021.1.4,60.038520949711604,
L,left,Lure,0,24,24,24,1908.694886545181,1910.6937996681622,left,1,4,1.0589746271316471,Z02T02,2022-11-11_10h52.56.135,t1_Paradigm,2021.1.4,60.038520949711604,
V,left,Pretarget,0,25,25,25,1912.1942041994257,1914.1962448206527,None,0,4,,Z02T02,2022-11-11_10h52.56.135,t1_Paradigm,2021.1.4,60.038520949711604,
Z,left,Distractor,0,26,26,26,1915.693632851147,1917.6951361291008,right,0,4,1.1144868387791576,Z02T02,2022-11-11_10h52.56.135,t1_Paradigm,2021.1.4,60.038520949711604,
H,left,Distractor,0,27,27,27,1919.209827896168,1921.2095770290402,None,0,4,,Z02T02,2022-11-11_10h52.56.135,t1_Paradigm,2021.1.4,60.038520949711604,
X,left,Distractor,0,28,28,28,1922.7091997659431,1924.710558683018,left,1,4,1.4530993959942862,Z02T02,2022-11-11_10h52.56.135,t1_Paradigm,2021.1.4,60.038520949711604,
V,right,Target,0,29,29,29,1926.2082059214904,1928.210579535145,None,0,4,,Z02T02,2022-11-11_10h52.56.135,t1_Paradigm,2021.1.4,60.038520949711604,
C,left,Distractor,0,30,30,30,1929.7080137611206,1931.7088061419458,right,0,4,1.2703349942321438,Z02T02,2022-11-11_10h52.56.135,t1_Paradigm,2021.1.4,60.038520949711604,
S,left,Pretarget,0,31,31,31,1933.2074138614676,1935.2087936306693,left,1,4,1.125434847048382,Z02T02,2022-11-11_10h52.56.135,t1_Paradigm,2021.1.4,60.038520949711604,
D,left,Distractor,0,32,32,32,1936.7068944831049,1938.7083098613234,left,1,4,1.0332360447946485,Z02T02,2022-11-11_10h52.56.135,t1_Paradigm,2021.1.4,60.038520949711604,
V,left,Distractor,0,33,33,33,1940.2062544832074,1942.208016648338,left,1,4,1.227451472287612,Z02T02,2022-11-11_10h52.56.135,t1_Paradigm,2021.1.4,60.038520949711604,
R,left,Distractor,0,34,34,34,1943.7055663630167,1945.707206944207,right,0,4,1.07085937710508,Z02T02,2022-11-11_10h52.56.135,t1_Paradigm,2021.1.4,60.038520949711604,
S,right,Target,0,35,35,35,1947.2048974909435,1949.2067273452872,left,0,4,1.2119262617461573,Z02T02,2022-11-11_10h52.56.135,t1_Paradigm,2021.1.4,60.038520949711604,
Y,left,Distractor,0,36,36,36,1950.7044361777348,1952.7058756161,left,1,4,1.2472927523140243,Z02T02,2022-11-11_10h52.56.135,t1_Paradigm,2021.1.4,60.038520949711604,
N,left,Pretarget,0,37,37,37,1954.2038590550205,1956.2049671049676,left,1,4,1.278432677143428,Z02T02,2022-11-11_10h52.56.135,t1_Paradigm,2021.1.4,60.038520949711604,
Z,left,Pretarget,0,38,38,38,1957.7030856015103,1959.7046979521288,None,0,4,,Z02T02,2022-11-11_10h52.56.135,t1_Paradigm,2021.1.4,60.038520949711604,
P,left,Pretarget,0,39,39,39,1961.2027157168573,1963.2044782027901,None,0,4,,Z02T02,2022-11-11_10h52.56.135,t1_Paradigm,2021.1.4,60.038520949711604,
M,left,Distractor,0,40,40,40,1964.7026788246326,1966.703430784412,left,1,4,0.5428511209465796,Z02T02,2022-11-11_10h52.56.135,t1_Paradigm,2021.1.4,60.038520949711604,
N,right,Target,0,41,41,41,1968.2015595466169,1970.2035754660933,right,1,4,0.6751017262995447,Z02T02,2022-11-11_10h52.56.135,t1_Paradigm,2021.1.4,60.038520949711604,
Z,right,Target,0,42,42,42,1971.7009830655065,1973.7025902832934,left,0,4,1.1599268314903384,Z02T02,2022-11-11_10h52.56.135,t1_Paradigm,2021.1.4,60.038520949711604,
P,right,Target,0,43,43,43,1975.200395677129,1977.2023724587675,None,0,4,,Z02T02,2022-11-11_10h52.56.135,t1_Paradigm,2021.1.4,60.038520949711604,
X,left,Pretarget,0,44,44,44,1978.699751186005,1980.701465872447,left,1,4,0.9073790223756077,Z02T02,2022-11-11_10h52.56.135,t1_Paradigm,2021.1.4,60.038520949711604,
Z,left,Lure,0,45,45,45,1982.1991089404942,1984.2006815116697,None,0,4,,Z02T02,2022-11-11_10h52.56.135,t1_Paradigm,2021.1.4,60.038520949711604,
R,left,Pretarget,0,46,46,46,1985.6987031260228,1987.700233672143,left,1,4,0.9164359031283311,Z02T02,2022-11-11_10h52.56.135,t1_Paradigm,2021.1.4,60.038520949711604,
K,left,Distractor,0,47,47,47,1989.1980111562084,1991.1996366597073,left,1,4,0.706486423019669,Z02T02,2022-11-11_10h52.56.135,t1_Paradigm,2021.1.4,60.038520949711604,
X,right,Target,0,48,48,48,1992.6973743643307,1994.6992276372162,left,0,4,0.8968907233056598,Z02T02,2022-11-11_10h52.56.135,t1_Paradigm,2021.1.4,60.038520949711604,
B,left,Distractor,0,49,49,49,1996.1968569107798,1998.1990078878785,left,1,4,0.9108927661727648,Z02T02,2022-11-11_10h52.56.135,t1_Paradigm,2021.1.4,60.038520949711604,
R,right,Target,0,50,50,50,1999.696077682835,2001.6974167101885,left,0,4,0.750532852044671,Z02T02,2022-11-11_10h52.56.135,t1_Paradigm,2021.1.4,60.038520949711604,
Y,left,Pretarget,0,51,51,51,2003.1956590362856,2005.1975395773366,None,0,4,,Z02T02,2022-11-11_10h52.56.135,t1_Paradigm,2021.1.4,60.038520949711604,
W,left,Pretarget,0,52,52,52,2006.6949381942954,2008.696549261706,None,0,4,,Z02T02,2022-11-11_10h52.56.135,t1_Paradigm,2021.1.4,60.038520949711604,
Z,left,Distractor,0,53,53,53,2010.1945355878438,2012.196307056231,left,1,4,1.2310925744613996,Z02T02,2022-11-11_10h52.56.135,t1_Paradigm,2021.1.4,60.038520949711604,
Q,left,Distractor,0,54,54,54,2013.6940765202485,2015.6949975426573,None,0,4,,Z02T02,2022-11-11_10h52.56.135,t1_Paradigm,2021.1.4,60.038520949711604,
Y,right,Target,0,55,55,55,2017.1933139740045,2019.193970334802,None,0,4,,Z02T02,2022-11-11_10h52.56.135,t1_Paradigm,2021.1.4,60.038520949711604,
W,right,Target,0,56,56,56,2020.7094185528754,2022.710545209336,None,0,4,,Z02T02,2022-11-11_10h52.56.135,t1_Paradigm,2021.1.4,60.038520949711604,
H,left,Pretarget,0,57,57,57,2024.208915535412,2026.210354973778,left,1,4,0.7961499274342714,Z02T02,2022-11-11_10h52.56.135,t1_Paradigm,2021.1.4,60.038520949711604,
M,left,Distractor,0,58,58,58,2027.7080926784015,2029.7096306029666,left,1,4,0.7987089646176173,Z02T02,2022-11-11_10h52.56.135,t1_Paradigm,2021.1.4,60.038520949711604,
R,left,Pretarget,0,59,59,59,2031.2074257311401,2033.2086585730472,left,1,4,0.7816551327669004,Z02T02,2022-11-11_10h52.56.135,t1_Paradigm,2021.1.4,60.038520949711604,
J,left,Distractor,0,60,60,60,2034.7062984330746,2036.7085982622798,left,1,4,0.7792471933043998,Z02T02,2022-11-11_10h52.56.135,t1_Paradigm,2021.1.4,60.038520949711604,
H,right,Target,0,61,61,61,2038.2061187839813,2040.207637460429,left,0,4,0.7081885981851883,Z02T02,2022-11-11_10h52.56.135,t1_Paradigm,2021.1.4,60.038520949711604,
Z,left,Distractor,0,62,62,62,2041.7057934908003,2043.7072428740262,left,1,4,0.44887411346371664,Z02T02,2022-11-11_10h52.56.135,t1_Paradigm,2021.1.4,60.038520949711604,
R,right,Target,0,63,63,63,2045.2052138016702,2047.206357460634,left,0,4,1.1944364600394692,Z02T02,2022-11-11_10h52.56.135,t1_Paradigm,2021.1.4,60.038520949711604,
J,left,Pretarget,0,0,0,0,2083.4666349928207,2085.4664460404697,None,0,4,,Z02T02,2022-11-11_10h52.56.135,t1_Paradigm,2021.1.4,60.038520949711604,
G,left,Pretarget,0,1,1,1,2086.964929288833,2088.9642225621296,left,1,4,0.32253524651059706,Z02T02,2022-11-11_10h52.56.135,t1_Paradigm,2021.1.4,60.038520949711604,
Z,left,Distractor,0,2,2,2,2090.464386171126,2092.4636672539477,left,1,4,0.4228307692701492,Z02T02,2022-11-11_10h52.56.135,t1_Paradigm,2021.1.4,60.038520949711604,
F,left,Distractor,0,3,3,3,2093.963798461947,2095.965849028034,left,1,4,0.6020865600667094,Z02T02,2022-11-11_10h52.56.135,t1_Paradigm,2021.1.4,60.038520949711604,
J,right,Target,0,4,4,4,2097.4631190034092,2099.4650066021045,right,1,4,0.4089811073317833,Z02T02,2022-11-11_10h52.56.135,t1_Paradigm,2021.1.4,60.038520949711604,
G,right,Target,0,5,5,5,2100.9625967378292,2102.9639498804695,right,1,4,0.42458715996599494,Z02T02,2022-11-11_10h52.56.135,t1_Paradigm,2021.1.4,60.038520949711604,
H,left,Distractor,0,6,6,6,2104.462008066244,2106.4634000259207,left,1,4,0.5534071092279191,Z02T02,2022-11-11_10h52.56.135,t1_Paradigm,2021.1.4,60.038520949711604,
P,left,Distractor,0,7,7,7,2107.960663264455,2109.962529048617,left,1,4,0.6337718482172932,Z02T02,2022-11-11_10h52.56.135,t1_Paradigm,2021.1.4,60.038520949711604,
G,left,Lure,0,8,8,8,2111.460715234371,2113.4621623719836,left,1,4,0.7421227080303652,Z02T02,2022-11-11_10h52.56.135,t1_Paradigm,2021.1.4,60.038520949711604,
S,left,Distractor,0,9,9,9,2114.9601628134074,2116.961603214179,left,1,4,0.6669633015389991,Z02T02,2022-11-11_10h52.56.135,t1_Paradigm,2021.1.4,60.038520949711604,
R,left,Pretarget,0,10,10,10,2118.4595119062437,2120.4611056503486,left,1,4,0.686048772162394,Z02T02,2022-11-11_10h52.56.135,t1_Paradigm,2021.1.4,60.038520949711604,
T,left,Pretarget,0,11,11,11,2121.9589152146104,2123.958215866351,left,1,4,1.2705563475792587,Z02T02,2022-11-11_10h52.56.135,t1_Paradigm,2021.1.4,60.038520949711604,
X,left,Distractor,0,12,12,12,2125.4584291996503,2127.4593431644157,left,1,4,0.6959759886149186,Z02T02,2022-11-11_10h52.56.135,t1_Paradigm,2021.1.4,60.038520949711604,
F,left,Pretarget,0,13,13,13,2128.9573282073457,2130.959708557841,left,1,4,0.8895950452779289,Z02T02,2022-11-11_10h52.56.135,t1_Paradigm,2021.1.4,60.038520949711604,
R,right,Target,0,14,14,14,2132.4571883376943,2134.45815972601,left,0,4,1.2601652515022579,Z02T02,2022-11-11_10h52.56.135,t1_Paradigm,2021.1.4,60.038520949711604,
T,right,Target,0,15,15,15,2135.956758783878,2137.958478923953,None,0,4,,Z02T02,2022-11-11_10h52.56.135,t1_Paradigm,2021.1.4,60.038520949711604,
C,left,Distractor,0,16,16,16,2139.456121992,2141.457546994278,left,1,4,0.8405809980022241,Z02T02,2022-11-11_10h52.56.135,t1_Paradigm,2021.1.4,60.038520949711604,
F,right,Target,0,17,17,17,2142.9554880873407,2144.9569724379794,None,0,4,,Z02T02,2022-11-11_10h52.56.135,t1_Paradigm,2021.1.4,60.038520949711604,
M,left,Distractor,0,18,18,18,2146.45495106487,2148.4563449493585,left,1,4,0.5967349418770027,Z02T02,2022-11-11_10h52.56.135,t1_Paradigm,2021.1.4,60.038520949711604,
N,left,Distractor,0,19,19,19,2149.9543097817646,2151.9555910647673,left,1,4,0.9176770858857708,Z02T02,2022-11-11_10h52.56.135,t1_Paradigm,2021.1.4,60.038520949711604,
R,left,Lure,0,20,20,20,2153.4538218419934,2155.4536701026695,None,0,4,,Z02T02,2022-11-11_10h52.56.135,t1_Paradigm,2021.1.4,60.038520949711604,
F,right,Target,0,21,21,21,2156.9532004486096,2158.95424818779,left,0,4,1.1229216845431438,Z02T02,2022-11-11_10h52.56.135,t1_Paradigm,2021.1.4,60.038520949711604,
P,left,Distractor,0,22,22,22,2160.452126403669,2162.4516099125235,left,1,4,0.8993246477275534,Z02T02,2022-11-11_10h52.56.135,t1_Paradigm,2021.1.4,60.038520949711604,
L,left,Pretarget,0,23,23,23,2163.9513292108145,2165.9537907242043,left,1,4,0.8416662710114906,Z02T02,2022-11-11_10h52.56.135,t1_Paradigm,2021.1.4,60.038520949711604,
T,left,Distractor,0,24,24,24,2167.4514466243295,2169.4532273959735,left,1,4,1.0976700795708894,Z02T02,2022-11-11_10h52.56.135,t1_Paradigm,2021.1.4,60.038520949711604,
F,left,Distractor,0,25,25,25,2170.950962534181,2172.9521023435223,left,1,4,0.9817489352581106,Z02T02,2022-11-11_10h52.56.135,t1_Paradigm,2021.1.4,60.038520949711604,
V,left,Distractor,0,26,26,26,2174.4502272561035,2176.4520378623297,left,1,4,0.6328408809476969,Z02T02,2022-11-11_10h52.56.135,t1_Paradigm,2021.1.4,60.038520949711604,
L,right,Target,0,27,27,27,2177.9665182209096,2179.968320807086,right,1,4,0.6595717037280338,Z02T02,2022-11-11_10h52.56.135,t1_Paradigm,2021.1.4,60.038520949711604,
S,left,Pretarget,0,28,28,28,2181.465780055614,2183.4670645466363,left,1,4,0.5484144684251078,Z02T02,2022-11-11_10h52.56.135,t1_Paradigm,2021.1.4,60.038520949711604,
W,left,Distractor,0,29,29,29,2184.965258110836,2186.9662064014105,left,1,4,1.1392861129970697,Z02T02,2022-11-11_10h52.56.135,t1_Paradigm,2021.1.4,60.038520949711604,
Q,left,Distractor,0,30,30,30,2188.464544005687,2190.466187153293,left,1,4,0.6999622736902893,Z02T02,2022-11-11_10h52.56.135,t1_Paradigm,2021.1.4,60.038520949711604,
L,right,Target,0,31,31,31,2191.96401243685,2193.9657515042404,left,0,4,1.2741329685604796,Z02T02,2022-11-11_10h52.56.135,t1_Paradigm,2021.1.4,60.038520949711604,
S,right,Target,0,32,32,32,2195.4633474144007,2197.4653710331236,left,0,4,0.9537416415059852,Z02T02,2022-11-11_10h52.56.135,t1_Paradigm,2021.1.4,60.038520949711604,
Z,left,Pretarget,0,33,33,33,2198.96288257237,2200.9646238853734,left,1,4,0.9890430092764291,Z02T02,2022-11-11_10h52.56.135,t1_Paradigm,2021.1.4,60.038520949711604,
F,left,Distractor,0,34,34,34,2202.462278823093,2204.4632489282008,right,0,4,1.240894036548525,Z02T02,2022-11-11_10h52.56.135,t1_Paradigm,2021.1.4,60.038520949711604,
V,left,Distractor,0,35,35,35,2205.9617013795764,2207.9626618606258,None,0,4,,Z02T02,2022-11-11_10h52.56.135,t1_Paradigm,2021.1.4,60.038520949711604,
M,left,Distractor,0,36,36,36,2209.4611130287935,2211.461849590079,left,1,4,1.4054365665460864,Z02T02,2022-11-11_10h52.56.135,t1_Paradigm,2021.1.4,60.038520949711604,
Z,right,Target,0,37,37,37,2212.960465650451,2214.959411495232,None,0,4,,Z02T02,2022-11-11_10h52.56.135,t1_Paradigm,2021.1.4,60.038520949711604,
H,left,Pretarget,0,38,38,38,2216.4599982420054,2218.4597499412935,None,0,4,,Z02T02,2022-11-11_10h52.56.135,t1_Paradigm,2021.1.4,60.038520949711604,
L,left,Distractor,0,39,39,39,2219.959331294744,2221.960362993826,left,1,4,0.9681472532292901,Z02T02,2022-11-11_10h52.56.135,t1_Paradigm,2021.1.4,60.038520949711604,
G,left,Distractor,0,40,40,40,2223.458956598062,2225.4595273047375,left,1,4,1.003263518273343,Z02T02,2022-11-11_10h52.56.135,t1_Paradigm,2021.1.4,60.038520949711604,
K,left,Distractor,0,41,41,41,2226.9581568387916,2228.957213039445,None,0,4,,Z02T02,2022-11-11_10h52.56.135,t1_Paradigm,2021.1.4,60.038520949711604,
H,right,Target,0,42,42,42,2230.457445941663,2232.4589367083413,None,0,4,,Z02T02,2022-11-11_10h52.56.135,t1_Paradigm,2021.1.4,60.038520949711604,
B,left,Distractor,0,43,43,43,2233.956843154792,2235.958484377586,None,0,4,,Z02T02,2022-11-11_10h52.56.135,t1_Paradigm,2021.1.4,60.038520949711604,
Z,left,Distractor,0,44,44,44,2237.4562965082628,2239.457957299977,left,1,4,1.0002986666186189,Z02T02,2022-11-11_10h52.56.135,t1_Paradigm,2021.1.4,60.038520949711604,
T,left,Pretarget,0,45,45,45,2240.9558056812743,2242.9572419116207,left,1,4,0.546219541458413,Z02T02,2022-11-11_10h52.56.135,t1_Paradigm,2021.1.4,60.038520949711604,
H,right,Target,0,46,46,46,2244.455090934522,2246.456520748829,right,1,4,1.0997052471657298,Z02T02,2022-11-11_10h52.56.135,t1_Paradigm,2021.1.4,60.038520949711604,
F,left,Distractor,0,47,47,47,2247.9546889696735,2249.955759485793,left,1,4,0.9023780407214872,Z02T02,2022-11-11_10h52.56.135,t1_Paradigm,2021.1.4,60.038520949711604,
R,left,Distractor,0,48,48,48,2251.4539655612684,2253.4552519771028,left,1,4,1.3582100277562859,Z02T02,2022-11-11_10h52.56.135,t1_Paradigm,2021.1.4,60.038520949711604,
T,right,Target,0,49,49,49,2254.953362132794,2256.9550277365365,left,0,4,1.3726627973674113,Z02T02,2022-11-11_10h52.56.135,t1_Paradigm,2021.1.4,60.038520949711604,
H,right,Target,0,50,50,50,2258.4528960075554,2260.4547496012433,None,0,4,,Z02T02,2022-11-11_10h52.56.135,t1_Paradigm,2021.1.4,60.038520949711604,
Y,left,Pretarget,0,51,51,51,2261.9524298823167,2263.952758704319,left,1,4,0.9297552794378134,Z02T02,2022-11-11_10h52.56.135,t1_Paradigm,2021.1.4,60.038520949711604,
H,left,Distractor,0,52,52,52,2265.4517430453348,2267.4527779524365,right,0,4,0.7765059406110595,Z02T02,2022-11-11_10h52.56.135,t1_Paradigm,2021.1.4,60.038520949711604,
S,left,Distractor,0,53,53,53,2268.9510154665036,2270.95312666416,left,1,4,0.7414118109018091,Z02T02,2022-11-11_10h52.56.135,t1_Paradigm,2021.1.4,60.038520949711604,
Q,left,Distractor,0,54,54,54,2272.450601311182,2274.451868158096,right,0,4,1.0630885913842576,Z02T02,2022-11-11_10h52.56.135,t1_Paradigm,2021.1.4,60.038520949711604,
Y,right,Target,0,55,55,55,2275.949912549387,2277.949718785008,left,0,4,0.850707111666452,Z02T02,2022-11-11_10h52.56.135,t1_Paradigm,2021.1.4,60.038520949711604,
R,left,Distractor,0,56,56,56,2279.4492622838275,2281.4504242285034,None,0,4,,Z02T02,2022-11-11_10h52.56.135,t1_Paradigm,2021.1.4,60.038520949711604,
H,left,Pretarget,0,57,57,57,2282.965303985515,2284.964337409229,None,0,4,,Z02T02,2022-11-11_10h52.56.135,t1_Paradigm,2021.1.4,60.038520949711604,
J,left,Distractor,0,58,58,58,2286.4648843765594,2288.4658438952033,left,1,4,1.0121128401624446,Z02T02,2022-11-11_10h52.56.135,t1_Paradigm,2021.1.4,60.038520949711604,
V,left,Distractor,0,59,59,59,2289.9643223315375,2291.9656231834592,left,1,4,1.1406816014950891,Z02T02,2022-11-11_10h52.56.135,t1_Paradigm,2021.1.4,60.038520949711604,
Y,left,Lure,0,60,60,60,2293.4636993341433,2295.46496650186,None,0,4,,Z02T02,2022-11-11_10h52.56.135,t1_Paradigm,2021.1.4,60.038520949711604,
H,right,Target,0,61,61,61,2296.963188938235,2298.9649119655282,right,1,4,1.3695619256841383,Z02T02,2022-11-11_10h52.56.135,t1_Paradigm,2021.1.4,60.038520949711604,
L,left,Distractor,0,62,62,62,2300.4619073344306,2302.4635687677487,left,1,4,0.9563083779357839,Z02T02,2022-11-11_10h52.56.135,t1_Paradigm,2021.1.4,60.038520949711604,
P,left,Distractor,0,63,63,63,2303.9613828232373,2305.963928065936,left,1,4,0.8029778762138449,Z02T02,2022-11-11_10h52.56.135,t1_Paradigm,2021.1.4,60.038520949711604,
