Letter,CorrAnswer,Stimulus,nback_run.thisRepN,nback_run.thisTrialN,nback_run.thisN,nback_run.thisIndex,fixcross.started,nback_trial.started,trial_resp.keys,trial_resp.corr,currentlevel,trial_resp.rt,Participant,date,expName,psychopyVersion,frameRate,
H,left,Distractor,0,0,0,0,316.28455078509705,318.2212922904382,None,0,1,,Z12I04,2023-01-25_10h41.04.049,t1_Paradigm,2021.1.4,59.98329731741151,
Q,left,Pretarget,0,1,1,1,319.7247832505773,321.7232305721109,left,1,1,0.5168160852358596,Z12I04,2023-01-25_10h41.04.049,t1_Paradigm,2021.1.4,59.98329731741151,
Q,right,Target,0,2,2,2,323.2210212133091,325.22109339360986,right,1,1,0.7630526043617465,Z12I04,2023-01-25_10h41.04.049,t1_Paradigm,2021.1.4,59.98329731741151,
T,left,Distractor,0,3,3,3,326.7210795991523,328.73371403897227,left,1,1,0.7382780795805957,Z12I04,2023-01-25_10h41.04.049,t1_Paradigm,2021.1.4,59.98329731741151,
Q,left,Lure,0,4,4,4,330.2209416545779,332.22099490759956,right,0,1,0.5311867018863268,Z12I04,2023-01-25_10h41.04.049,t1_Paradigm,2021.1.4,59.98329731741151,
L,left,Distractor,0,5,5,5,333.72095737384325,335.7222591856653,left,1,1,0.8857905539402964,Z12I04,2023-01-25_10h41.04.049,t1_Paradigm,2021.1.4,59.98329731741151,
V,left,Pretarget,0,6,6,6,337.2209499954124,339.222856838554,left,1,1,0.8253637726752459,Z12I04,2023-01-25_10h41.04.049,t1_Paradigm,2021.1.4,59.98329731741151,
V,right,Target,0,7,7,7,340.7206279108709,342.7208861559466,right,1,1,0.5751618282338313,Z12I04,2023-01-25_10h41.04.049,t1_Paradigm,2021.1.4,59.98329731741151,
K,left,Distractor,0,8,8,8,344.22074404095474,346.2236658995239,left,1,1,0.7044601651355151,Z12I04,2023-01-25_10h41.04.049,t1_Paradigm,2021.1.4,59.98329731741151,
G,left,Pretarget,0,9,9,9,347.7208656246612,349.7225931398557,left,1,1,0.9653608341345716,Z12I04,2023-01-25_10h41.04.049,t1_Paradigm,2021.1.4,59.98329731741151,
G,right,Target,0,10,10,10,351.2208948175826,353.22074596576294,right,1,1,0.8752528716531742,Z12I04,2023-01-25_10h41.04.049,t1_Paradigm,2021.1.4,59.98329731741151,
G,right,Target,0,11,11,11,354.7204922119058,356.7208961007882,right,1,1,0.6391318602563842,Z12I04,2023-01-25_10h41.04.049,t1_Paradigm,2021.1.4,59.98329731741151,
P,left,Pretarget,0,12,12,12,358.2208954591856,360.2228578009581,left,1,1,0.5613019273105238,Z12I04,2023-01-25_10h41.04.049,t1_Paradigm,2021.1.4,59.98329731741151,
P,right,Target,0,13,13,13,361.72096892269155,363.72064555494444,right,1,1,0.9032761515645689,Z12I04,2023-01-25_10h41.04.049,t1_Paradigm,2021.1.4,59.98329731741151,
G,left,Lure,0,14,14,14,365.22089064716556,367.2213930220578,left,1,1,0.6344795992804393,Z12I04,2023-01-25_10h41.04.049,t1_Paradigm,2021.1.4,59.98329731741151,
Y,left,Distractor,0,15,15,15,368.72088102312546,370.72281673838734,left,1,1,0.7972448939653987,Z12I04,2023-01-25_10h41.04.049,t1_Paradigm,2021.1.4,59.98329731741151,
B,left,Distractor,0,16,16,16,372.22080499320873,374.22223063434603,left,1,1,0.6259421133236174,Z12I04,2023-01-25_10h41.04.049,t1_Paradigm,2021.1.4,59.98329731741151,
T,left,Pretarget,0,17,17,17,375.7208383565476,377.7208742862972,left,1,1,0.7591981763084732,Z12I04,2023-01-25_10h41.04.049,t1_Paradigm,2021.1.4,59.98329731741151,
T,right,Target,0,18,18,18,379.22058043227344,381.2208900055625,right,1,1,0.7470872842691278,Z12I04,2023-01-25_10h41.04.049,t1_Paradigm,2021.1.4,59.98329731741151,
S,left,Distractor,0,19,19,19,382.72058556509455,384.7228032647308,left,1,1,0.5572463568196326,Z12I04,2023-01-25_10h41.04.049,t1_Paradigm,2021.1.4,59.98329731741151,
T,left,Lure,0,20,20,20,386.2209021960134,388.22295083334575,left,1,1,0.897218139134111,Z12I04,2023-01-25_10h41.04.049,t1_Paradigm,2021.1.4,59.98329731741151,
J,left,Distractor,0,21,21,21,389.72078766993627,391.7223403484031,left,1,1,0.709575342439166,Z12I04,2023-01-25_10h41.04.049,t1_Paradigm,2021.1.4,59.98329731741151,
P,left,Distractor,0,22,22,22,393.22081205083805,395.22222101030593,left,1,1,0.6980191159100286,Z12I04,2023-01-25_10h41.04.049,t1_Paradigm,2021.1.4,59.98329731741151,
F,left,Distractor,0,23,23,23,396.72090027120566,398.7222505240288,left,1,1,0.5896838631151695,Z12I04,2023-01-25_10h41.04.049,t1_Paradigm,2021.1.4,59.98329731741151,
L,left,Distractor,0,24,24,24,400.22074339935216,402.22268681384594,left,1,1,0.64131395094455,Z12I04,2023-01-25_10h41.04.049,t1_Paradigm,2021.1.4,59.98329731741151,
W,left,Pretarget,0,25,25,25,403.7207751586843,405.7221767397218,left,1,1,0.7096921141255734,Z12I04,2023-01-25_10h41.04.049,t1_Paradigm,2021.1.4,59.98329731741151,
W,right,Target,0,26,26,26,407.22085054699846,409.2207889531419,right,1,1,0.5071253184755733,Z12I04,2023-01-25_10h41.04.049,t1_Paradigm,2021.1.4,59.98329731741151,
V,left,Distractor,0,27,27,27,410.72073634172284,412.72255015247674,left,1,1,0.6373385807878549,Z12I04,2023-01-25_10h41.04.049,t1_Paradigm,2021.1.4,59.98329731741151,
W,left,Lure,0,28,28,28,414.22075976022006,416.2207292840935,left,1,1,0.9950333537149163,Z12I04,2023-01-25_10h41.04.049,t1_Paradigm,2021.1.4,59.98329731741151,
R,left,Pretarget,0,29,29,29,417.7203067887335,419.72431199341463,left,1,1,0.6596426144797078,Z12I04,2023-01-25_10h41.04.049,t1_Paradigm,2021.1.4,59.98329731741151,
R,right,Target,0,30,30,30,421.2205258960462,423.2206137956123,right,1,1,0.42740586566014827,Z12I04,2023-01-25_10h41.04.049,t1_Paradigm,2021.1.4,59.98329731741151,
G,left,Distractor,0,31,31,31,424.7205044023567,426.7209368425579,left,1,1,0.6389496450974548,Z12I04,2023-01-25_10h41.04.049,t1_Paradigm,2021.1.4,59.98329731741151,
R,left,Lure,0,32,32,32,428.2207514193856,430.2206134748112,left,1,1,1.1072567187029563,Z12I04,2023-01-25_10h41.04.049,t1_Paradigm,2021.1.4,59.98329731741151,
S,left,Distractor,0,33,33,33,431.720737624928,433.7208803815224,left,1,1,0.7750505743306348,Z12I04,2023-01-25_10h41.04.049,t1_Paradigm,2021.1.4,59.98329731741151,
R,left,Lure,0,34,34,34,435.2204354300693,437.22259121504794,left,1,1,0.681519661593029,Z12I04,2023-01-25_10h41.04.049,t1_Paradigm,2021.1.4,59.98329731741151,
P,left,Pretarget,0,35,35,35,438.720594226731,440.72256779655027,left,1,1,0.685173909612331,Z12I04,2023-01-25_10h41.04.049,t1_Paradigm,2021.1.4,59.98329731741151,
P,right,Target,0,36,36,36,442.2204139363798,444.22042484362555,right,1,1,0.595327400219503,Z12I04,2023-01-25_10h41.04.049,t1_Paradigm,2021.1.4,59.98329731741151,
Y,left,Pretarget,0,37,37,37,445.7207469281666,447.72252512997284,left,1,1,0.6773001616197689,Z12I04,2023-01-25_10h41.04.049,t1_Paradigm,2021.1.4,59.98329731741151,
Y,right,Target,0,38,38,38,449.2206872591182,451.22045082853356,right,1,1,0.5393793264070155,Z12I04,2023-01-25_10h41.04.049,t1_Paradigm,2021.1.4,59.98329731741151,
J,left,Distractor,0,39,39,39,452.7207093944103,454.7334298089886,left,1,1,0.6103139554356858,Z12I04,2023-01-25_10h41.04.049,t1_Paradigm,2021.1.4,59.98329731741151,
Y,left,Lure,0,40,40,40,456.22051178078755,458.22180428937054,left,1,1,0.5939068919037709,Z12I04,2023-01-25_10h41.04.049,t1_Paradigm,2021.1.4,59.98329731741151,
T,left,Distractor,0,41,41,41,459.7206394597192,461.7223602380859,left,1,1,0.7094078841419105,Z12I04,2023-01-25_10h41.04.049,t1_Paradigm,2021.1.4,59.98329731741151,
V,left,Distractor,0,42,42,42,463.2206532541768,465.22272274359557,left,1,1,0.7299093351266492,Z12I04,2023-01-25_10h41.04.049,t1_Paradigm,2021.1.4,59.98329731741151,
N,left,Pretarget,0,43,43,43,466.7204145779824,468.72315454219415,left,1,1,0.7967383486557083,Z12I04,2023-01-25_10h41.04.049,t1_Paradigm,2021.1.4,59.98329731741151,
N,right,Target,0,44,44,44,470.2206224572483,472.2207661762468,right,1,1,0.4349315442027546,Z12I04,2023-01-25_10h41.04.049,t1_Paradigm,2021.1.4,59.98329731741151,
N,right,Target,0,45,45,45,473.7206384973151,475.7208563214226,right,1,1,0.6790305640261067,Z12I04,2023-01-25_10h41.04.049,t1_Paradigm,2021.1.4,59.98329731741151,
X,left,Distractor,0,46,46,46,477.2204546781495,479.2219640484359,left,1,1,0.6818459165519926,Z12I04,2023-01-25_10h41.04.049,t1_Paradigm,2021.1.4,59.98329731741151,
Z,left,Distractor,0,47,47,47,480.7206895047275,482.72200735661636,left,1,1,0.49359488052414235,Z12I04,2023-01-25_10h41.04.049,t1_Paradigm,2021.1.4,59.98329731741151,
H,left,Pretarget,0,48,48,48,484.220715810437,486.23337719756955,left,1,1,0.9663732831513698,Z12I04,2023-01-25_10h41.04.049,t1_Paradigm,2021.1.4,59.98329731741151,
H,right,Target,0,49,49,49,487.72058588589607,489.72043510926824,right,1,1,0.5833817208681467,Z12I04,2023-01-25_10h41.04.049,t1_Paradigm,2021.1.4,59.98329731741151,
K,left,Distractor,0,50,50,50,491.2203651745767,493.22007420776526,left,1,1,0.5076520742691173,Z12I04,2023-01-25_10h41.04.049,t1_Paradigm,2021.1.4,59.98329731741151,
V,left,Pretarget,0,51,51,51,494.72058845230686,496.72251261872043,left,1,1,0.6372731373148781,Z12I04,2023-01-25_10h41.04.049,t1_Paradigm,2021.1.4,59.98329731741151,
V,right,Target,0,52,52,52,498.22036742018645,500.2206741062637,right,1,1,0.675141810230798,Z12I04,2023-01-25_10h41.04.049,t1_Paradigm,2021.1.4,59.98329731741151,
R,left,Distractor,0,53,53,53,501.7206526125742,503.7206025675655,left,1,1,0.4871390744369819,Z12I04,2023-01-25_10h41.04.049,t1_Paradigm,2021.1.4,59.98329731741151,
V,left,Lure,0,54,54,54,505.22058492349197,507.22221780229256,left,1,1,0.4415522421768401,Z12I04,2023-01-25_10h41.04.049,t1_Paradigm,2021.1.4,59.98329731741151,
Y,left,Distractor,0,55,55,55,508.7202885030574,510.7220564392205,left,1,1,0.5096092832204704,Z12I04,2023-01-25_10h41.04.049,t1_Paradigm,2021.1.4,59.98329731741151,
Q,left,Distractor,0,56,56,56,512.2197418575811,514.2205878107043,left,1,1,0.5472071998087813,Z12I04,2023-01-25_10h41.04.049,t1_Paradigm,2021.1.4,59.98329731741151,
Z,left,Pretarget,0,57,57,57,515.7204995903367,517.7210423861975,left,1,1,0.5666047733952837,Z12I04,2023-01-25_10h41.04.049,t1_Paradigm,2021.1.4,59.98329731741151,
Z,right,Target,0,58,58,58,519.2204922119058,521.2206102667978,right,1,1,0.395015196359509,Z12I04,2023-01-25_10h41.04.049,t1_Paradigm,2021.1.4,59.98329731741151,
B,left,Distractor,0,59,59,59,522.7204970239259,524.7205852442935,left,1,1,0.4948995795580231,Z12I04,2023-01-25_10h41.04.049,t1_Paradigm,2021.1.4,59.98329731741151,
S,left,Pretarget,0,60,60,60,526.2204302972482,528.2205319912719,left,1,1,0.49954638691087894,Z12I04,2023-01-25_10h41.04.049,t1_Paradigm,2021.1.4,59.98329731741151,
S,right,Target,0,61,61,61,529.7202294756116,531.7204585277655,right,1,1,0.5995132160528556,Z12I04,2023-01-25_10h41.04.049,t1_Paradigm,2021.1.4,59.98329731741151,
T,left,Distractor,0,62,62,62,533.2203125631577,535.2229707230285,left,1,1,0.4567171629355471,Z12I04,2023-01-25_10h41.04.049,t1_Paradigm,2021.1.4,59.98329731741151,
D,left,Distractor,0,63,63,63,536.720402387532,538.7226932298727,left,1,1,0.5729697927044981,Z12I04,2023-01-25_10h41.04.049,t1_Paradigm,2021.1.4,59.98329731741151,
R,left,Distractor,0,0,0,0,556.8809936115622,558.872095865705,None,0,1,,Z12I04,2023-01-25_10h41.04.049,t1_Paradigm,2021.1.4,59.98329731741151,
V,left,Distractor,0,1,1,1,560.370315739091,562.3720461414978,left,1,1,0.6834749457361795,Z12I04,2023-01-25_10h41.04.049,t1_Paradigm,2021.1.4,59.98329731741151,
N,left,Pretarget,0,2,2,2,563.8704264155517,565.8723893989272,left,1,1,0.6871917500161544,Z12I04,2023-01-25_10h41.04.049,t1_Paradigm,2021.1.4,59.98329731741151,
N,right,Target,0,3,3,3,567.3704068466704,569.3702891125799,right,1,1,0.4212391015767025,Z12I04,2023-01-25_10h41.04.049,t1_Paradigm,2021.1.4,59.98329731741151,
S,left,Distractor,0,4,4,4,570.870463949308,572.8713002783916,left,1,1,0.4563524118166242,Z12I04,2023-01-25_10h41.04.049,t1_Paradigm,2021.1.4,59.98329731741151,
N,left,Lure,0,5,5,5,574.3704171123131,576.370298415819,left,1,1,0.8611780338342214,Z12I04,2023-01-25_10h41.04.049,t1_Paradigm,2021.1.4,59.98329731741151,
Z,left,Distractor,0,6,6,6,577.8702175738822,579.8714189748857,left,1,1,0.6242392998319701,Z12I04,2023-01-25_10h41.04.049,t1_Paradigm,2021.1.4,59.98329731741151,
L,left,Pretarget,0,7,7,7,581.3702005714113,583.3718536606962,left,1,1,0.531531242521396,Z12I04,2023-01-25_10h41.04.049,t1_Paradigm,2021.1.4,59.98329731741151,
L,right,Target,0,8,8,8,584.870237463565,586.8701563008271,right,1,1,0.3453298062295289,Z12I04,2023-01-25_10h41.04.049,t1_Paradigm,2021.1.4,59.98329731741151,
H,left,Distractor,0,9,9,9,588.3705146359193,590.3721446275081,left,1,1,0.4114565856343688,Z12I04,2023-01-25_10h41.04.049,t1_Paradigm,2021.1.4,59.98329731741151,
L,left,Lure,0,10,10,10,591.8703276087404,593.8710436373226,left,1,1,0.6085729665846884,Z12I04,2023-01-25_10h41.04.049,t1_Paradigm,2021.1.4,59.98329731741151,
X,left,Pretarget,0,11,11,11,595.3701675288739,597.3723079153879,left,1,1,0.5475915198089751,Z12I04,2023-01-25_10h41.04.049,t1_Paradigm,2021.1.4,59.98329731741151,
X,right,Target,0,12,12,12,598.8703699545167,600.8702730725131,right,1,1,0.6973765508337237,Z12I04,2023-01-25_10h41.04.049,t1_Paradigm,2021.1.4,59.98329731741151,
X,right,Target,0,13,13,13,602.3704427764201,604.3703494232313,right,1,1,0.7009287840282923,Z12I04,2023-01-25_10h41.04.049,t1_Paradigm,2021.1.4,59.98329731741151,
R,left,Distractor,0,14,14,14,605.8697613943823,607.8722960457385,left,1,1,0.9432136722962241,Z12I04,2023-01-25_10h41.04.049,t1_Paradigm,2021.1.4,59.98329731741151,
T,left,Distractor,0,15,15,15,609.370067759658,611.3712935415633,left,1,1,0.46805941497405,Z12I04,2023-01-25_10h41.04.049,t1_Paradigm,2021.1.4,59.98329731741151,
V,left,Pretarget,0,16,16,16,612.8704501548509,614.8727810973587,left,1,1,0.5026863903885896,Z12I04,2023-01-25_10h41.04.049,t1_Paradigm,2021.1.4,59.98329731741151,
V,right,Target,0,17,17,17,616.3702105162529,618.3701707368873,right,1,1,0.6531707683257082,Z12I04,2023-01-25_10h41.04.049,t1_Paradigm,2021.1.4,59.98329731741151,
N,left,Distractor,0,18,18,18,619.8702589572545,621.8708957479066,left,1,1,0.40050378641808493,Z12I04,2023-01-25_10h41.04.049,t1_Paradigm,2021.1.4,59.98329731741151,
B,left,Distractor,0,19,19,19,623.3702220651007,625.3702198194915,None,0,1,,Z12I04,2023-01-25_10h41.04.049,t1_Paradigm,2021.1.4,59.98329731741151,
V,left,Lure,0,20,20,20,626.8702913581897,628.8708665549852,right,0,1,0.6966849031532547,Z12I04,2023-01-25_10h41.04.049,t1_Paradigm,2021.1.4,59.98329731741151,
P,left,Distractor,0,21,21,21,630.3700815541156,632.3725465915822,left,1,1,0.9229945264874004,Z12I04,2023-01-25_10h41.04.049,t1_Paradigm,2021.1.4,59.98329731741151,
K,left,Pretarget,0,22,22,22,633.8702756389239,635.8703956186237,left,1,1,0.6730813032490914,Z12I04,2023-01-25_10h41.04.049,t1_Paradigm,2021.1.4,59.98329731741151,
K,right,Target,0,23,23,23,637.3700706468703,639.3701123510441,right,1,1,0.6294568127614184,Z12I04,2023-01-25_10h41.04.049,t1_Paradigm,2021.1.4,59.98329731741151,
J,left,Pretarget,0,24,24,24,640.8702628068704,642.8726607968579,left,1,1,0.6146633799503434,Z12I04,2023-01-25_10h41.04.049,t1_Paradigm,2021.1.4,59.98329731741151,
J,right,Target,0,25,25,25,644.3703609720792,646.3700138650338,right,1,1,0.5574850330135632,Z12I04,2023-01-25_10h41.04.049,t1_Paradigm,2021.1.4,59.98329731741151,
H,left,Distractor,0,26,26,26,647.8702823757521,649.8711693914461,left,1,1,0.720196433073852,Z12I04,2023-01-25_10h41.04.049,t1_Paradigm,2021.1.4,59.98329731741151,
J,left,Lure,0,27,27,27,651.3701758697084,653.3831198828175,left,1,1,1.0646270331585583,Z12I04,2023-01-25_10h41.04.049,t1_Paradigm,2021.1.4,59.98329731741151,
V,left,Distractor,0,28,28,28,654.8701781153177,656.872291875321,left,1,1,1.3669765179838578,Z12I04,2023-01-25_10h41.04.049,t1_Paradigm,2021.1.4,59.98329731741151,
Z,left,Pretarget,0,29,29,29,658.3701367319454,660.370929432047,left,1,1,0.7002749909052,Z12I04,2023-01-25_10h41.04.049,t1_Paradigm,2021.1.4,59.98329731741151,
Z,right,Target,0,30,30,30,661.8698807324795,663.8699657448333,right,1,1,0.705386639394419,Z12I04,2023-01-25_10h41.04.049,t1_Paradigm,2021.1.4,59.98329731741151,
T,left,Distractor,0,31,31,31,665.3700574940153,667.3727644156893,left,1,1,0.5627548365609982,Z12I04,2023-01-25_10h41.04.049,t1_Paradigm,2021.1.4,59.98329731741151,
Z,left,Lure,0,32,32,32,668.8699137750168,670.8701267871043,left,1,1,0.6333757218835672,Z12I04,2023-01-25_10h41.04.049,t1_Paradigm,2021.1.4,59.98329731741151,
F,left,Distractor,0,33,33,33,672.3702384259691,674.3709089007616,left,1,1,0.6042062187980264,Z12I04,2023-01-25_10h41.04.049,t1_Paradigm,2021.1.4,59.98329731741151,
Y,left,Pretarget,0,34,34,34,675.8701829273377,677.8710324092758,left,1,1,0.9923934795206151,Z12I04,2023-01-25_10h41.04.049,t1_Paradigm,2021.1.4,59.98329731741151,
Y,right,Target,0,35,35,35,679.3701014437984,681.3703093230642,right,1,1,0.5970988651970401,Z12I04,2023-01-25_10h41.04.049,t1_Paradigm,2021.1.4,59.98329731741151,
Y,right,Target,0,36,36,36,682.8699513087731,684.8702271979223,right,1,1,0.6971754083961059,Z12I04,2023-01-25_10h41.04.049,t1_Paradigm,2021.1.4,59.98329731741151,
W,left,Distractor,0,37,37,37,686.3697559407597,688.3717051296776,left,1,1,0.5077970764732527,Z12I04,2023-01-25_10h41.04.049,t1_Paradigm,2021.1.4,59.98329731741151,
Q,left,Distractor,0,38,38,38,689.869524322195,691.8715649394935,left,1,1,0.8798971125952448,Z12I04,2023-01-25_10h41.04.049,t1_Paradigm,2021.1.4,59.98329731741151,
P,left,Pretarget,0,39,39,39,693.3699233990569,695.3700324715114,left,1,1,0.6932629153016023,Z12I04,2023-01-25_10h41.04.049,t1_Paradigm,2021.1.4,59.98329731741151,
P,right,Target,0,40,40,40,696.8695766128126,698.8702053834313,right,1,1,0.473065840624713,Z12I04,2023-01-25_10h41.04.049,t1_Paradigm,2021.1.4,59.98329731741151,
J,left,Distractor,0,41,41,41,700.370250937221,702.3711819026985,left,1,1,0.42817258085324283,Z12I04,2023-01-25_10h41.04.049,t1_Paradigm,2021.1.4,59.98329731741151,
P,left,Lure,0,42,42,42,703.8700571732143,705.8701149174544,left,1,1,0.8973185499521605,Z12I04,2023-01-25_10h41.04.049,t1_Paradigm,2021.1.4,59.98329731741151,
L,left,Distractor,0,43,43,43,707.3698172138147,709.3707513873055,left,1,1,0.4523863448985139,Z12I04,2023-01-25_10h41.04.049,t1_Paradigm,2021.1.4,59.98329731741151,
Z,left,Distractor,0,44,44,44,710.8701004813943,712.870769031379,left,1,1,0.6325615280920829,Z12I04,2023-01-25_10h41.04.049,t1_Paradigm,2021.1.4,59.98329731741151,
F,left,Pretarget,0,45,45,45,714.3699699152507,716.3711677874394,left,1,1,0.5561270809580492,Z12I04,2023-01-25_10h41.04.049,t1_Paradigm,2021.1.4,59.98329731741151,
F,right,Target,0,46,46,46,717.8700786669037,719.8702400299758,right,1,1,0.4009282065858315,Z12I04,2023-01-25_10h41.04.049,t1_Paradigm,2021.1.4,59.98329731741151,
G,left,Pretarget,0,47,47,47,721.3701736240992,723.3720426126829,left,1,1,0.5952725431911858,Z12I04,2023-01-25_10h41.04.049,t1_Paradigm,2021.1.4,59.98329731741151,
G,right,Target,0,48,48,48,724.8701476391907,726.8698656548163,right,1,1,0.5213166071794149,Z12I04,2023-01-25_10h41.04.049,t1_Paradigm,2021.1.4,59.98329731741151,
V,left,Distractor,0,49,49,49,728.3699407223289,730.3716056812632,left,1,1,0.5874947147976854,Z12I04,2023-01-25_10h41.04.049,t1_Paradigm,2021.1.4,59.98329731741151,
G,left,Lure,0,50,50,50,731.8700812333145,733.8718222221651,left,1,1,0.559323545470761,Z12I04,2023-01-25_10h41.04.049,t1_Paradigm,2021.1.4,59.98329731741151,
Q,left,Pretarget,0,51,51,51,735.3698380659016,737.3716881272067,left,1,1,0.6756005561414895,Z12I04,2023-01-25_10h41.04.049,t1_Paradigm,2021.1.4,59.98329731741151,
Q,right,Target,0,52,52,52,738.8695323422285,740.8701877393578,right,1,1,0.7290187906173742,Z12I04,2023-01-25_10h41.04.049,t1_Paradigm,2021.1.4,59.98329731741151,
Y,left,Distractor,0,53,53,53,742.3700427371541,744.3714003684081,left,1,1,0.4760643707127201,Z12I04,2023-01-25_10h41.04.049,t1_Paradigm,2021.1.4,59.98329731741151,
V,left,Distractor,0,54,54,54,745.870058777221,747.8699862761187,left,1,1,0.9931736683697636,Z12I04,2023-01-25_10h41.04.049,t1_Paradigm,2021.1.4,59.98329731741151,
B,left,Distractor,0,55,55,55,749.3698874693073,751.3707436880732,left,1,1,0.6602540618264356,Z12I04,2023-01-25_10h41.04.049,t1_Paradigm,2021.1.4,59.98329731741151,
J,left,Pretarget,0,56,56,56,752.8700080906096,754.8707975826978,left,1,1,0.5523230187150148,Z12I04,2023-01-25_10h41.04.049,t1_Paradigm,2021.1.4,59.98329731741151,
J,right,Target,0,57,57,57,756.3695313798244,758.3700469075716,right,1,1,0.493217938953876,Z12I04,2023-01-25_10h41.04.049,t1_Paradigm,2021.1.4,59.98329731741151,
H,left,Distractor,0,58,58,58,759.8700623060354,761.869946175952,left,1,1,0.44959986449384814,Z12I04,2023-01-25_10h41.04.049,t1_Paradigm,2021.1.4,59.98329731741151,
J,left,Lure,0,59,59,59,763.369824271444,765.3701739449007,left,1,1,0.6929998582054395,Z12I04,2023-01-25_10h41.04.049,t1_Paradigm,2021.1.4,59.98329731741151,
D,left,Pretarget,0,60,60,60,766.869993975351,768.8713339625315,left,1,1,0.8238980313708453,Z12I04,2023-01-25_10h41.04.049,t1_Paradigm,2021.1.4,59.98329731741151,
D,right,Target,0,61,61,61,770.3699795392909,772.369502507704,right,1,1,0.42972878813452553,Z12I04,2023-01-25_10h41.04.049,t1_Paradigm,2021.1.4,59.98329731741151,
R,left,Distractor,0,62,62,62,773.8699772936816,775.8708662341837,left,1,1,0.4643657083902326,Z12I04,2023-01-25_10h41.04.049,t1_Paradigm,2021.1.4,59.98329731741151,
F,left,Distractor,0,63,63,63,777.369628582629,779.3700106570204,left,1,1,0.6293685923947123,Z12I04,2023-01-25_10h41.04.049,t1_Paradigm,2021.1.4,59.98329731741151,
F,left,Distractor,0,0,0,0,866.2941379330255,868.2862423705424,None,0,2,,Z12I04,2023-01-25_10h41.04.049,t1_Paradigm,2021.1.4,59.98329731741151,
N,left,Pretarget,0,1,1,1,869.7864079040314,871.7888472773911,None,0,2,,Z12I04,2023-01-25_10h41.04.049,t1_Paradigm,2021.1.4,59.98329731741151,
V,left,Distractor,0,2,2,2,873.2859177195901,875.2862911323455,left,1,2,0.9845649645162666,Z12I04,2023-01-25_10h41.04.049,t1_Paradigm,2021.1.4,59.98329731741151,
N,right,Target,0,3,3,3,876.7864980492072,878.7870934564867,right,1,2,0.8120851637722808,Z12I04,2023-01-25_10h41.04.049,t1_Paradigm,2021.1.4,59.98329731741151,
N,left,Lure,0,4,4,4,880.2863302701085,882.2863992423954,left,1,2,1.136670672406126,Z12I04,2023-01-25_10h41.04.049,t1_Paradigm,2021.1.4,59.98329731741151,
X,left,Distractor,0,5,5,5,883.786152225367,885.7872301178559,left,1,2,0.9157020705160903,Z12I04,2023-01-25_10h41.04.049,t1_Paradigm,2021.1.4,59.98329731741151,
G,left,Pretarget,0,6,6,6,887.2861689070364,889.2857874742476,left,1,2,0.9051037567760432,Z12I04,2023-01-25_10h41.04.049,t1_Paradigm,2021.1.4,59.98329731741151,
H,left,Pretarget,0,7,7,7,890.7864136784556,892.7869205445668,left,1,2,0.732320798769706,Z12I04,2023-01-25_10h41.04.049,t1_Paradigm,2021.1.4,59.98329731741151,
G,right,Target,0,8,8,8,894.2864585906427,896.2881331736171,right,1,2,0.5113133799181924,Z12I04,2023-01-25_10h41.04.049,t1_Paradigm,2021.1.4,59.98329731741151,
H,right,Target,0,9,9,9,897.7863549718113,899.787018388974,right,1,2,0.7079572205002478,Z12I04,2023-01-25_10h41.04.049,t1_Paradigm,2021.1.4,59.98329731741151,
T,left,Pretarget,0,10,10,10,901.2861644158174,903.2871595415622,left,1,2,0.791736735025097,Z12I04,2023-01-25_10h41.04.049,t1_Paradigm,2021.1.4,59.98329731741151,
K,left,Distractor,0,11,11,11,904.785999844732,906.7864034128129,left,1,2,0.9085578247618287,Z12I04,2023-01-25_10h41.04.049,t1_Paradigm,2021.1.4,59.98329731741151,
T,right,Target,0,12,12,12,908.2862722050663,910.2874001425639,right,1,2,0.9114771169201958,Z12I04,2023-01-25_10h41.04.049,t1_Paradigm,2021.1.4,59.98329731741151,
T,left,Lure,0,13,13,13,911.7861098795906,913.7863812775208,left,1,2,0.7884421053036021,Z12I04,2023-01-25_10h41.04.049,t1_Paradigm,2021.1.4,59.98329731741151,
J,left,Distractor,0,14,14,14,915.2861073131799,917.2888007611973,left,1,2,0.9179797600022539,Z12I04,2023-01-25_10h41.04.049,t1_Paradigm,2021.1.4,59.98329731741151,
Q,left,Pretarget,0,15,15,15,918.7860165264015,920.7873728744507,left,1,2,0.6354070359429898,Z12I04,2023-01-25_10h41.04.049,t1_Paradigm,2021.1.4,59.98329731741151,
M,left,Distractor,0,16,16,16,922.2863055684056,924.2889990164231,left,1,2,0.7817450566117259,Z12I04,2023-01-25_10h41.04.049,t1_Paradigm,2021.1.4,59.98329731741151,
Q,right,Target,0,17,17,17,925.7862882451332,927.7877764425311,right,1,2,0.5151963592898028,Z12I04,2023-01-25_10h41.04.049,t1_Paradigm,2021.1.4,59.98329731741151,
R,left,Distractor,0,18,18,18,929.286300435584,931.2870633011612,left,1,2,0.7277509837372236,Z12I04,2023-01-25_10h41.04.049,t1_Paradigm,2021.1.4,59.98329731741151,
W,left,Distractor,0,19,19,19,932.7862115736139,934.7990936720653,left,1,2,0.9597012569638537,Z12I04,2023-01-25_10h41.04.049,t1_Paradigm,2021.1.4,59.98329731741151,
C,left,Pretarget,0,20,20,20,936.2863671622617,938.2887382049371,left,1,2,0.7019752379865167,Z12I04,2023-01-25_10h41.04.049,t1_Paradigm,2021.1.4,59.98329731741151,
T,left,Distractor,0,21,21,21,939.7857464116769,941.7873780072719,left,1,2,0.7714072335570563,Z12I04,2023-01-25_10h41.04.049,t1_Paradigm,2021.1.4,59.98329731741151,
C,right,Target,0,22,22,22,943.2862455785557,945.2882377548526,right,1,2,0.7905998150899904,Z12I04,2023-01-25_10h41.04.049,t1_Paradigm,2021.1.4,59.98329731741151,
F,left,Pretarget,0,23,23,23,946.7860466817274,948.7875339167213,left,1,2,0.5712496559403917,Z12I04,2023-01-25_10h41.04.049,t1_Paradigm,2021.1.4,59.98329731741151,
C,right,Target,0,24,24,24,950.2863572174206,952.2880462364551,right,1,2,0.6705152133617958,Z12I04,2023-01-25_10h41.04.049,t1_Paradigm,2021.1.4,59.98329731741151,
F,right,Target,0,25,25,25,953.7859459501078,955.7870520731144,right,1,2,0.4995637101833381,Z12I04,2023-01-25_10h41.04.049,t1_Paradigm,2021.1.4,59.98329731741151,
H,left,Distractor,0,26,26,26,957.2861958543485,959.2886329820985,left,1,2,0.7418736209551753,Z12I04,2023-01-25_10h41.04.049,t1_Paradigm,2021.1.4,59.98329731741151,
H,left,Lure,0,27,27,27,960.7860008071361,962.7860444361177,left,1,2,0.6206184151515117,Z12I04,2023-01-25_10h41.04.049,t1_Paradigm,2021.1.4,59.98329731741151,
P,left,Distractor,0,28,28,28,964.2863296285054,966.2862013079712,left,1,2,0.8646786180133859,Z12I04,2023-01-25_10h41.04.049,t1_Paradigm,2021.1.4,59.98329731741151,
G,left,Pretarget,0,29,29,29,967.7859395340811,969.7872711804271,left,1,2,0.6596910554812894,Z12I04,2023-01-25_10h41.04.049,t1_Paradigm,2021.1.4,59.98329731741151,
K,left,Distractor,0,30,30,30,971.2862529569861,973.2865769663358,left,1,2,0.9041326911319629,Z12I04,2023-01-25_10h41.04.049,t1_Paradigm,2021.1.4,59.98329731741151,
G,right,Target,0,31,31,31,974.7861596037974,976.7862295384889,right,1,2,0.7328773890876619,Z12I04,2023-01-25_10h41.04.049,t1_Paradigm,2021.1.4,59.98329731741151,
M,left,Pretarget,0,32,32,32,978.2862147816272,980.2869843840326,left,1,2,0.7996550744032902,Z12I04,2023-01-25_10h41.04.049,t1_Paradigm,2021.1.4,59.98329731741151,
B,left,Distractor,0,33,33,33,981.7861349020945,983.786300435584,left,1,2,0.6764545292980984,Z12I04,2023-01-25_10h41.04.049,t1_Paradigm,2021.1.4,59.98329731741151,
M,right,Target,0,34,34,34,985.2859395340811,987.2871322734486,right,1,2,0.35975335510102013,Z12I04,2023-01-25_10h41.04.049,t1_Paradigm,2021.1.4,59.98329731741151,
M,left,Lure,0,35,35,35,988.7857114443309,990.7862410873367,left,1,2,0.7165909468581049,Z12I04,2023-01-25_10h41.04.049,t1_Paradigm,2021.1.4,59.98329731741151,
T,left,Distractor,0,36,36,36,992.2863235332802,994.2882775342182,left,1,2,0.6064874370986217,Z12I04,2023-01-25_10h41.04.049,t1_Paradigm,2021.1.4,59.98329731741151,
F,left,Distractor,0,37,37,37,995.7859501205253,997.78622985929,None,0,2,,Z12I04,2023-01-25_10h41.04.049,t1_Paradigm,2021.1.4,59.98329731741151,
X,left,Distractor,0,38,38,38,999.285886281059,1001.2872907493083,left,1,2,1.3512858038347986,Z12I04,2023-01-25_10h41.04.049,t1_Paradigm,2021.1.4,59.98329731741151,
C,left,Distractor,0,39,39,39,1002.7864390217615,1004.7861756438642,left,1,2,0.9884979888965972,Z12I04,2023-01-25_10h41.04.049,t1_Paradigm,2021.1.4,59.98329731741151,
R,left,Distractor,0,40,40,40,1006.2861175788225,1008.2873260374554,left,1,2,0.7352914191415039,Z12I04,2023-01-25_10h41.04.049,t1_Paradigm,2021.1.4,59.98329731741151,
B,left,Pretarget,0,41,41,41,1009.7858574089391,1011.78862849088,left,1,2,1.1380491557470123,Z12I04,2023-01-25_10h41.04.049,t1_Paradigm,2021.1.4,59.98329731741151,
H,left,Distractor,0,42,42,42,1013.2859100203582,1015.2879965122479,left,1,2,0.886497600085022,Z12I04,2023-01-25_10h41.04.049,t1_Paradigm,2021.1.4,59.98329731741151,
B,right,Target,0,43,43,43,1016.7861958543485,1018.7870058777221,right,1,2,0.8436128774787903,Z12I04,2023-01-25_10h41.04.049,t1_Paradigm,2021.1.4,59.98329731741151,
W,left,Pretarget,0,44,44,44,1020.2861759646657,1022.2877587984581,left,1,2,0.8150881850792757,Z12I04,2023-01-25_10h41.04.049,t1_Paradigm,2021.1.4,59.98329731741151,
L,left,Pretarget,0,45,45,45,1023.7860290376539,1025.7866597330803,left,1,2,1.0439112868816665,Z12I04,2023-01-25_10h41.04.049,t1_Paradigm,2021.1.4,59.98329731741151,
W,right,Target,0,46,46,46,1027.2858731282045,1029.2879724521476,right,1,2,0.9986189502483285,Z12I04,2023-01-25_10h41.04.049,t1_Paradigm,2021.1.4,59.98329731741151,
L,right,Target,0,47,47,47,1030.785782020625,1032.7878970638335,right,1,2,0.9227869680230469,Z12I04,2023-01-25_10h41.04.049,t1_Paradigm,2021.1.4,59.98329731741151,
W,right,Target,0,48,48,48,1034.2860370576873,1036.286904825301,right,1,2,0.7996335807138166,Z12I04,2023-01-25_10h41.04.049,t1_Paradigm,2021.1.4,59.98329731741151,
X,left,Distractor,0,49,49,49,1037.7861653782215,1039.7859626317772,left,1,2,0.6607506622945039,Z12I04,2023-01-25_10h41.04.049,t1_Paradigm,2021.1.4,59.98329731741151,
R,left,Distractor,0,50,50,50,1041.286090310709,1043.2884443509129,left,1,2,0.6785801589503535,Z12I04,2023-01-25_10h41.04.049,t1_Paradigm,2021.1.4,59.98329731741151,
V,left,Pretarget,0,51,51,51,1044.7858400856667,1046.7875396911454,left,1,2,0.8110691859405961,Z12I04,2023-01-25_10h41.04.049,t1_Paradigm,2021.1.4,59.98329731741151,
Z,left,Distractor,0,52,52,52,1048.2857290884044,1050.2867376878053,left,1,2,1.2322053102884638,Z12I04,2023-01-25_10h41.04.049,t1_Paradigm,2021.1.4,59.98329731741151,
V,right,Target,0,53,53,53,1051.7860964059341,1053.7881091135168,right,1,2,0.7704509247737406,Z12I04,2023-01-25_10h41.04.049,t1_Paradigm,2021.1.4,59.98329731741151,
V,left,Lure,0,54,54,54,1055.2859754638307,1057.2859898998909,left,1,2,1.1925908365024043,Z12I04,2023-01-25_10h41.04.049,t1_Paradigm,2021.1.4,59.98329731741151,
N,left,Distractor,0,55,55,55,1058.7856873842306,1060.7863629918447,left,1,2,0.7802953553741645,Z12I04,2023-01-25_10h41.04.049,t1_Paradigm,2021.1.4,59.98329731741151,
B,left,Distractor,0,56,56,56,1062.2860611177875,1064.2864980492072,left,1,2,0.9601654564971795,Z12I04,2023-01-25_10h41.04.049,t1_Paradigm,2021.1.4,59.98329731741151,
V,left,Lure,0,57,57,57,1065.7858217999906,1067.788010948308,left,1,2,0.8504433795264958,Z12I04,2023-01-25_10h41.04.049,t1_Paradigm,2021.1.4,59.98329731741151,
J,left,Distractor,0,58,58,58,1069.2860421905084,1071.286617066503,left,1,2,1.271894530786085,Z12I04,2023-01-25_10h41.04.049,t1_Paradigm,2021.1.4,59.98329731741151,
H,left,Distractor,0,59,59,59,1072.785765018154,1074.786943963064,left,1,2,0.8118788885135473,Z12I04,2023-01-25_10h41.04.049,t1_Paradigm,2021.1.4,59.98329731741151,
X,left,Pretarget,0,60,60,60,1076.2859539701412,1078.286596214416,left,1,2,0.9600262287171972,Z12I04,2023-01-25_10h41.04.049,t1_Paradigm,2021.1.4,59.98329731741151,
P,left,Distractor,0,61,61,61,1079.7858991131125,1081.7859610277706,left,1,2,0.8524499918835318,Z12I04,2023-01-25_10h41.04.049,t1_Paradigm,2021.1.4,59.98329731741151,
X,right,Target,0,62,62,62,1083.285938571677,1085.2866013472371,right,1,2,0.8878850658638839,Z12I04,2023-01-25_10h41.04.049,t1_Paradigm,2021.1.4,59.98329731741151,
Q,left,Distractor,0,63,63,63,1086.7857108027283,1088.7864929163857,left,1,2,0.6679164017382391,Z12I04,2023-01-25_10h41.04.049,t1_Paradigm,2021.1.4,59.98329731741151,
B,left,Pretarget,0,0,0,0,1108.0183806333516,1110.0198550362925,None,0,2,,Z12I04,2023-01-25_10h41.04.049,t1_Paradigm,2021.1.4,59.98329731741151,
F,left,Distractor,0,1,1,1,1111.5192711778604,1113.5211321464112,None,0,2,,Z12I04,2023-01-25_10h41.04.049,t1_Paradigm,2021.1.4,59.98329731741151,
B,right,Target,0,2,2,2,1115.0189885518835,1117.0191075691791,right,1,2,1.1233997627355166,Z12I04,2023-01-25_10h41.04.049,t1_Paradigm,2021.1.4,59.98329731741151,
V,left,Distractor,0,3,3,3,1118.5189577549554,1120.5193263556903,left,1,2,0.6472458884495609,Z12I04,2023-01-25_10h41.04.049,t1_Paradigm,2021.1.4,59.98329731741151,
G,left,Pretarget,0,4,4,4,1122.0192573834033,1124.0207516760265,left,1,2,0.7778572652200637,Z12I04,2023-01-25_10h41.04.049,t1_Paradigm,2021.1.4,59.98329731741151,
B,left,Lure,0,5,5,5,1125.5191528021678,1127.5212078555264,left,1,2,0.9091448912063242,Z12I04,2023-01-25_10h41.04.049,t1_Paradigm,2021.1.4,59.98329731741151,
G,right,Target,0,6,6,6,1129.018968020598,1131.019929462202,right,1,2,0.4986914513501688,Z12I04,2023-01-25_10h41.04.049,t1_Paradigm,2021.1.4,59.98329731741151,
Y,left,Pretarget,0,7,7,7,1132.5189381860737,1134.5200391762592,left,1,2,0.5662881424768784,Z12I04,2023-01-25_10h41.04.049,t1_Paradigm,2021.1.4,59.98329731741151,
P,left,Distractor,0,8,8,8,1136.0189359404644,1138.0192313984949,left,1,2,1.0349814608907764,Z12I04,2023-01-25_10h41.04.049,t1_Paradigm,2021.1.4,59.98329731741151,
Y,right,Target,0,9,9,9,1139.518683469813,1141.520777981736,right,1,2,0.5736373802851631,Z12I04,2023-01-25_10h41.04.049,t1_Paradigm,2021.1.4,59.98329731741151,
X,left,Distractor,0,10,10,10,1143.0188993691122,1145.0206223930882,left,1,2,0.6097230393743303,Z12I04,2023-01-25_10h41.04.049,t1_Paradigm,2021.1.4,59.98329731741151,
Y,right,Target,0,11,11,11,1146.519284972318,1148.5199618631373,right,1,2,0.6465160654101965,Z12I04,2023-01-25_10h41.04.049,t1_Paradigm,2021.1.4,59.98329731741151,
N,left,Distractor,0,12,12,12,1150.0189285620336,1152.0195624654739,left,1,2,0.794712809019984,Z12I04,2023-01-25_10h41.04.049,t1_Paradigm,2021.1.4,59.98329731741151,
Y,right,Target,0,13,13,13,1153.5190748474429,1155.5208662021037,right,1,2,0.5735311950429605,Z12I04,2023-01-25_10h41.04.049,t1_Paradigm,2021.1.4,59.98329731741151,
Y,left,Lure,0,14,14,14,1157.018887820264,1159.0188711385945,left,1,2,0.8834926539702792,Z12I04,2023-01-25_10h41.04.049,t1_Paradigm,2021.1.4,59.98329731741151,
K,left,Distractor,0,15,15,15,1160.5188737050053,1162.5209370991988,left,1,2,0.709350781503872,Z12I04,2023-01-25_10h41.04.049,t1_Paradigm,2021.1.4,59.98329731741151,
T,left,Pretarget,0,16,16,16,1164.018887820264,1166.0206916861766,left,1,2,1.03358854148928,Z12I04,2023-01-25_10h41.04.049,t1_Paradigm,2021.1.4,59.98329731741151,
J,left,Distractor,0,17,17,17,1167.5189760406315,1169.519710675691,left,1,2,0.7664457200930883,Z12I04,2023-01-25_10h41.04.049,t1_Paradigm,2021.1.4,59.98329731741151,
T,right,Target,0,18,18,18,1171.0187697653723,1173.02116550975,right,1,2,0.9133108173568871,Z12I04,2023-01-25_10h41.04.049,t1_Paradigm,2021.1.4,59.98329731741151,
S,left,Pretarget,0,19,19,19,1174.5191123811992,1176.5213326472463,left,1,2,0.7570658098275089,Z12I04,2023-01-25_10h41.04.049,t1_Paradigm,2021.1.4,59.98329731741151,
R,left,Distractor,0,20,20,20,1178.0188451536865,1180.0202971005333,left,1,2,1.0178968649365743,Z12I04,2023-01-25_10h41.04.049,t1_Paradigm,2021.1.4,59.98329731741151,
S,right,Target,0,21,21,21,1181.5187601413322,1183.5207029142234,right,1,2,0.8456874997195882,Z12I04,2023-01-25_10h41.04.049,t1_Paradigm,2021.1.4,59.98329731741151,
Q,left,Distractor,0,22,22,22,1185.0191341956902,1187.0215203160278,left,1,2,1.153319940946858,Z12I04,2023-01-25_10h41.04.049,t1_Paradigm,2021.1.4,59.98329731741151,
D,left,Distractor,0,23,23,23,1188.5187428180602,1190.5202319778623,left,1,2,0.8220640101321806,Z12I04,2023-01-25_10h41.04.049,t1_Paradigm,2021.1.4,59.98329731741151,
F,left,Distractor,0,24,24,24,1192.0186869986278,1194.019023519229,left,1,2,0.6671775962613538,Z12I04,2023-01-25_10h41.04.049,t1_Paradigm,2021.1.4,59.98329731741151,
Z,left,Distractor,0,25,25,25,1195.5190831882778,1197.52155688738,left,1,2,0.7165883804473197,Z12I04,2023-01-25_10h41.04.049,t1_Paradigm,2021.1.4,59.98329731741151,
P,left,Distractor,0,26,26,26,1199.0188214143873,1201.0211068031058,left,1,2,0.7212034284680158,Z12I04,2023-01-25_10h41.04.049,t1_Paradigm,2021.1.4,59.98329731741151,
H,left,Distractor,0,27,27,27,1202.5187585373255,1204.5198688307496,left,1,2,1.2863158340483096,Z12I04,2023-01-25_10h41.04.049,t1_Paradigm,2021.1.4,59.98329731741151,
Z,left,Pretarget,0,28,28,28,1206.0185997406643,1208.0205014509843,None,0,2,,Z12I04,2023-01-25_10h41.04.049,t1_Paradigm,2021.1.4,59.98329731741151,
J,left,Pretarget,0,29,29,29,1209.5187200411651,1211.5198476578616,left,1,2,1.4543794835994959,Z12I04,2023-01-25_10h41.04.049,t1_Paradigm,2021.1.4,59.98329731741151,
Z,right,Target,0,30,30,30,1213.019049183336,1215.018431319963,right,1,2,1.1717146895575752,Z12I04,2023-01-25_10h41.04.049,t1_Paradigm,2021.1.4,59.98329731741151,
J,right,Target,0,31,31,31,1216.5189128427683,1218.519011007977,right,1,2,1.3350843739594893,Z12I04,2023-01-25_10h41.04.049,t1_Paradigm,2021.1.4,59.98329731741151,
V,left,Pretarget,0,32,32,32,1220.0187473092788,1222.0195618238713,left,1,2,0.8747062261763858,Z12I04,2023-01-25_10h41.04.049,t1_Paradigm,2021.1.4,59.98329731741151,
Z,left,Lure,0,33,33,33,1223.518540071616,1225.5202008601327,left,1,2,0.9581238767946161,Z12I04,2023-01-25_10h41.04.049,t1_Paradigm,2021.1.4,59.98329731741151,
V,right,Target,0,34,34,34,1227.0187890134525,1229.0191479901478,right,1,2,1.2991966492941174,Z12I04,2023-01-25_10h41.04.049,t1_Paradigm,2021.1.4,59.98329731741151,
X,left,Distractor,0,35,35,35,1230.5189266372258,1232.5204911853416,left,1,2,1.1259603990001779,Z12I04,2023-01-25_10h41.04.049,t1_Paradigm,2021.1.4,59.98329731741151,
S,left,Distractor,0,36,36,36,1234.0186719209646,1236.019925291785,left,1,2,1.0822755978610985,Z12I04,2023-01-25_10h41.04.049,t1_Paradigm,2021.1.4,59.98329731741151,
Q,left,Distractor,0,37,37,37,1237.518992722301,1239.5196840491803,left,1,2,0.990527057347208,Z12I04,2023-01-25_10h41.04.049,t1_Paradigm,2021.1.4,59.98329731741151,
P,left,Distractor,0,38,38,38,1241.0189301660403,1243.0198319385959,left,1,2,1.0583370813624242,Z12I04,2023-01-25_10h41.04.049,t1_Paradigm,2021.1.4,59.98329731741151,
S,left,Lure,0,39,39,39,1244.5186975850715,1246.5211533192992,left,1,2,1.1730864360702071,Z12I04,2023-01-25_10h41.04.049,t1_Paradigm,2021.1.4,59.98329731741151,
K,left,Pretarget,0,40,40,40,1248.0186478608648,1250.021343875293,left,1,2,1.2729265486846089,Z12I04,2023-01-25_10h41.04.049,t1_Paradigm,2021.1.4,59.98329731741151,
L,left,Distractor,0,41,41,41,1251.5186520312818,1253.5204263834717,left,1,2,1.4377160998001273,Z12I04,2023-01-25_10h41.04.049,t1_Paradigm,2021.1.4,59.98329731741151,
K,right,Target,0,42,42,42,1255.0188727426012,1257.019297162769,right,1,2,0.9470026568765206,Z12I04,2023-01-25_10h41.04.049,t1_Paradigm,2021.1.4,59.98329731741151,
B,left,Distractor,0,43,43,43,1258.5185894750216,1260.518793504671,left,1,2,0.711205334027909,Z12I04,2023-01-25_10h41.04.049,t1_Paradigm,2021.1.4,59.98329731741151,
N,left,Distractor,0,44,44,44,1262.0188220559903,1264.0316679038906,left,1,2,0.6223347022996677,Z12I04,2023-01-25_10h41.04.049,t1_Paradigm,2021.1.4,59.98329731741151,
S,left,Pretarget,0,45,45,45,1265.5188390584608,1267.5198579235043,left,1,2,0.6541646108644272,Z12I04,2023-01-25_10h41.04.049,t1_Paradigm,2021.1.4,59.98329731741151,
Z,left,Distractor,0,46,46,46,1269.018474628143,1271.0211392040405,left,1,2,1.1209988855362099,Z12I04,2023-01-25_10h41.04.049,t1_Paradigm,2021.1.4,59.98329731741151,
S,right,Target,0,47,47,47,1272.518784843035,1274.5205614408342,right,1,2,0.5653610266153919,Z12I04,2023-01-25_10h41.04.049,t1_Paradigm,2021.1.4,59.98329731741151,
C,left,Distractor,0,48,48,48,1276.0186314999964,1278.0194652626687,left,1,2,0.6185251864335441,Z12I04,2023-01-25_10h41.04.049,t1_Paradigm,2021.1.4,59.98329731741151,
T,left,Pretarget,0,49,49,49,1279.5185371844036,1281.5205964081797,left,1,2,0.8456101865972414,Z12I04,2023-01-25_10h41.04.049,t1_Paradigm,2021.1.4,59.98329731741151,
S,left,Lure,0,50,50,50,1283.0186205927512,1285.0210439260436,left,1,2,0.6571663489662569,Z12I04,2023-01-25_10h41.04.049,t1_Paradigm,2021.1.4,59.98329731741151,
T,right,Target,0,51,51,51,1286.51839699422,1288.5207365983638,right,1,2,0.5652670318245328,Z12I04,2023-01-25_10h41.04.049,t1_Paradigm,2021.1.4,59.98329731741151,
N,left,Pretarget,0,52,52,52,1290.0185445628344,1292.0206323379298,left,1,2,0.8093538611969961,Z12I04,2023-01-25_10h41.04.049,t1_Paradigm,2021.1.4,59.98329731741151,
B,left,Distractor,0,53,53,53,1293.5185888334186,1295.5207417311854,left,1,2,0.7331779799396827,Z12I04,2023-01-25_10h41.04.049,t1_Paradigm,2021.1.4,59.98329731741151,
N,right,Target,0,54,54,54,1297.0191123811992,1299.0188076199302,right,1,2,0.6274896589688979,Z12I04,2023-01-25_10h41.04.049,t1_Paradigm,2021.1.4,59.98329731741151,
N,left,Lure,0,55,55,55,1300.5187902966577,1302.5185888334186,left,1,2,0.8553606224063515,Z12I04,2023-01-25_10h41.04.049,t1_Paradigm,2021.1.4,59.98329731741151,
X,left,Distractor,0,56,56,56,1304.01851954033,1306.0190084415663,left,1,2,1.418942164010332,Z12I04,2023-01-25_10h41.04.049,t1_Paradigm,2021.1.4,59.98329731741151,
W,left,Distractor,0,57,57,57,1307.5185788885774,1309.5188069783271,left,1,2,0.7351390385069863,Z12I04,2023-01-25_10h41.04.049,t1_Paradigm,2021.1.4,59.98329731741151,
S,left,Distractor,0,58,58,58,1311.0187344772253,1313.0208078162605,left,1,2,0.8651790680978593,Z12I04,2023-01-25_10h41.04.049,t1_Paradigm,2021.1.4,59.98329731741151,
L,left,Distractor,0,59,59,59,1314.5186193095456,1316.5203978321529,left,1,2,1.061777996492765,Z12I04,2023-01-25_10h41.04.049,t1_Paradigm,2021.1.4,59.98329731741151,
K,left,Pretarget,0,60,60,60,1318.0187347980268,1320.02051717025,left,1,2,0.745599728473735,Z12I04,2023-01-25_10h41.04.049,t1_Paradigm,2021.1.4,59.98329731741151,
V,left,Pretarget,0,61,61,61,1321.5188894242706,1323.5201668551908,left,1,2,0.9578977118526382,Z12I04,2023-01-25_10h41.04.049,t1_Paradigm,2021.1.4,59.98329731741151,
K,right,Target,0,62,62,62,1325.0183479116154,1327.019929462202,right,1,2,0.6421371271726457,Z12I04,2023-01-25_10h41.04.049,t1_Paradigm,2021.1.4,59.98329731741151,
V,right,Target,0,63,63,63,1328.5186940562571,1330.5199836776278,right,1,2,0.933935776855833,Z12I04,2023-01-25_10h41.04.049,t1_Paradigm,2021.1.4,59.98329731741151,
R,left,Distractor,0,0,0,0,1421.9634103620115,1423.9522570619602,None,0,3,,Z12I04,2023-01-25_10h41.04.049,t1_Paradigm,2021.1.4,59.98329731741151,
P,left,Lure,0,1,1,1,1425.4519352982202,1427.4519131629281,None,0,3,,Z12I04,2023-01-25_10h41.04.049,t1_Paradigm,2021.1.4,59.98329731741151,
V,left,Distractor,0,2,2,2,1428.952193864097,1430.9530279475707,None,0,3,,Z12I04,2023-01-25_10h41.04.049,t1_Paradigm,2021.1.4,59.98329731741151,
P,left,Pretarget,0,3,3,3,1432.4513925023593,1434.452025764197,left,1,3,0.7939178633091615,Z12I04,2023-01-25_10h41.04.049,t1_Paradigm,2021.1.4,59.98329731741151,
Z,left,Distractor,0,4,4,4,1435.951733834981,1437.9545463002946,left,1,3,0.9393294097194484,Z12I04,2023-01-25_10h41.04.049,t1_Paradigm,2021.1.4,59.98329731741151,
L,left,Pretarget,0,5,5,5,1439.4517992784536,1441.4540804967546,left,1,3,0.8476100621264777,Z12I04,2023-01-25_10h41.04.049,t1_Paradigm,2021.1.4,59.98329731741151,
P,right,Target,0,6,6,6,1442.9517534038628,1444.9517883712083,right,1,3,0.6141937267939284,Z12I04,2023-01-25_10h41.04.049,t1_Paradigm,2021.1.4,59.98329731741151,
S,left,Distractor,0,7,7,7,1446.4515567526437,1448.4520395586542,left,1,3,0.713811203280784,Z12I04,2023-01-25_10h41.04.049,t1_Paradigm,2021.1.4,59.98329731741151,
L,right,Target,0,8,8,8,1449.951981172811,1451.9545116537502,right,1,3,0.7793772219501989,Z12I04,2023-01-25_10h41.04.049,t1_Paradigm,2021.1.4,59.98329731741151,
D,left,Distractor,0,9,9,9,1453.4517274189543,1455.4516979052314,left,1,3,0.9779144320177693,Z12I04,2023-01-25_10h41.04.049,t1_Paradigm,2021.1.4,59.98329731741151,
G,left,Distractor,0,10,10,10,1456.951680261158,1458.953408097154,left,1,3,0.6762691061253463,Z12I04,2023-01-25_10h41.04.049,t1_Paradigm,2021.1.4,59.98329731741151,
M,left,Pretarget,0,11,11,11,1460.4518101856993,1462.452991055417,left,1,3,1.2408364702359904,Z12I04,2023-01-25_10h41.04.049,t1_Paradigm,2021.1.4,59.98329731741151,
Y,left,Distractor,0,12,12,12,1463.9518772331785,1465.9521758992223,left,1,3,0.7976744469542609,Z12I04,2023-01-25_10h41.04.049,t1_Paradigm,2021.1.4,59.98329731741151,
V,left,Distractor,0,13,13,13,1467.4516815443635,1469.4529942634304,left,1,3,0.8326321685467519,Z12I04,2023-01-25_10h41.04.049,t1_Paradigm,2021.1.4,59.98329731741151,
M,right,Target,0,14,14,14,1470.951924711776,1472.953804286804,right,1,3,0.7080823330211388,Z12I04,2023-01-25_10h41.04.049,t1_Paradigm,2021.1.4,59.98329731741151,
S,left,Pretarget,0,15,15,15,1474.4519093133117,1476.453357410543,left,1,3,0.6002898760871176,Z12I04,2023-01-25_10h41.04.049,t1_Paradigm,2021.1.4,59.98329731741151,
Q,left,Distractor,0,16,16,16,1477.951846115449,1479.953417400393,left,1,3,0.7321777213737732,Z12I04,2023-01-25_10h41.04.049,t1_Paradigm,2021.1.4,59.98329731741151,
R,left,Pretarget,0,17,17,17,1481.4515022164164,1483.4516950180196,left,1,3,0.5622139655088176,Z12I04,2023-01-25_10h41.04.049,t1_Paradigm,2021.1.4,59.98329731741151,
S,right,Target,0,18,18,18,1484.951859909906,1486.952804028238,right,1,3,1.0608216877103587,Z12I04,2023-01-25_10h41.04.049,t1_Paradigm,2021.1.4,59.98329731741151,
F,left,Distractor,0,19,19,19,1488.451541674981,1490.4533542025297,left,1,3,0.712420208687945,Z12I04,2023-01-25_10h41.04.049,t1_Paradigm,2021.1.4,59.98329731741151,
R,right,Target,0,20,20,20,1491.951646897819,1493.954166150711,right,1,3,0.5555939091373148,Z12I04,2023-01-25_10h41.04.049,t1_Paradigm,2021.1.4,59.98329731741151,
P,left,Distractor,0,21,21,21,1495.4517392886037,1497.4540330181567,left,1,3,0.8314840205644032,Z12I04,2023-01-25_10h41.04.049,t1_Paradigm,2021.1.4,59.98329731741151,
L,left,Distractor,0,22,22,22,1498.951608080857,1500.9535242272377,left,1,3,0.9320257257004414,Z12I04,2023-01-25_10h41.04.049,t1_Paradigm,2021.1.4,59.98329731741151,
R,right,Target,0,23,23,23,1502.4514563418252,1504.4531697417615,right,1,3,0.4403569363985298,Z12I04,2023-01-25_10h41.04.049,t1_Paradigm,2021.1.4,59.98329731741151,
H,left,Pretarget,0,24,24,24,1505.951667749906,1507.9543012080735,left,1,3,0.6832276079062467,Z12I04,2023-01-25_10h41.04.049,t1_Paradigm,2021.1.4,59.98329731741151,
G,left,Pretarget,0,25,25,25,1509.4517864464,1511.4535418713112,left,1,3,0.6720435109268692,Z12I04,2023-01-25_10h41.04.049,t1_Paradigm,2021.1.4,59.98329731741151,
T,left,Distractor,0,26,26,26,1512.9519689823605,1514.952676990909,left,1,3,0.5810190190277353,Z12I04,2023-01-25_10h41.04.049,t1_Paradigm,2021.1.4,59.98329731741151,
H,right,Target,0,27,27,27,1516.451428432109,1518.4541680755192,right,1,3,0.6476841030744254,Z12I04,2023-01-25_10h41.04.049,t1_Paradigm,2021.1.4,59.98329731741151,
G,right,Target,0,28,28,28,1519.951550336617,1521.9536169388239,right,1,3,0.7157963219483463,Z12I04,2023-01-25_10h41.04.049,t1_Paradigm,2021.1.4,59.98329731741151,
D,left,Distractor,0,29,29,29,1523.451407259221,1525.4532948542824,left,1,3,0.5604967159570151,Z12I04,2023-01-25_10h41.04.049,t1_Paradigm,2021.1.4,59.98329731741151,
N,left,Pretarget,0,30,30,30,1526.9516135344802,1528.9518271881698,left,1,3,0.7098566852109798,Z12I04,2023-01-25_10h41.04.049,t1_Paradigm,2021.1.4,59.98329731741151,
V,left,Distractor,0,31,31,31,1530.451582095949,1532.4515618854648,left,1,3,0.601873030680963,Z12I04,2023-01-25_10h41.04.049,t1_Paradigm,2021.1.4,59.98329731741151,
R,left,Distractor,0,32,32,32,1533.9515570734447,1535.953427345234,left,1,3,0.8602252538657922,Z12I04,2023-01-25_10h41.04.049,t1_Paradigm,2021.1.4,59.98329731741151,
N,right,Target,0,33,33,33,1537.4515776047306,1539.4531508144823,right,1,3,0.7203436808877086,Z12I04,2023-01-25_10h41.04.049,t1_Paradigm,2021.1.4,59.98329731741151,
Z,left,Distractor,0,34,34,34,1540.9696037526055,1542.9515625270678,left,1,3,0.6941573094263731,Z12I04,2023-01-25_10h41.04.049,t1_Paradigm,2021.1.4,59.98329731741151,
N,left,Lure,0,35,35,35,1544.4516738451312,1546.4531424736479,left,1,3,0.6803994233273443,Z12I04,2023-01-25_10h41.04.049,t1_Paradigm,2021.1.4,59.98329731741151,
Y,left,Pretarget,0,36,36,36,1547.951467249071,1549.9533522777215,left,1,3,0.8601537151685079,Z12I04,2023-01-25_10h41.04.049,t1_Paradigm,2021.1.4,59.98329731741151,
Y,left,Lure,0,37,37,37,1551.4517133036957,1553.4515092740457,left,1,3,1.106007839101494,Z12I04,2023-01-25_10h41.04.049,t1_Paradigm,2021.1.4,59.98329731741151,
B,left,Distractor,0,38,38,38,1554.9517713687374,1556.954231914985,left,1,3,0.707399346976672,Z12I04,2023-01-25_10h41.04.049,t1_Paradigm,2021.1.4,59.98329731741151,
Y,right,Target,0,39,39,39,1558.451645935415,1560.4527886297742,right,1,3,0.7767065508273845,Z12I04,2023-01-25_10h41.04.049,t1_Paradigm,2021.1.4,59.98329731741151,
J,left,Distractor,0,40,40,40,1561.9517097748808,1563.9537263320794,left,1,3,0.6357101932057958,Z12I04,2023-01-25_10h41.04.049,t1_Paradigm,2021.1.4,59.98329731741151,
X,left,Distractor,0,41,41,41,1565.4512930539454,1567.4534036059354,left,1,3,0.6400843194232948,Z12I04,2023-01-25_10h41.04.049,t1_Paradigm,2021.1.4,59.98329731741151,
W,left,Pretarget,0,42,42,42,1568.9517062460664,1570.9529236871367,left,1,3,1.1246319606671022,Z12I04,2023-01-25_10h41.04.049,t1_Paradigm,2021.1.4,59.98329731741151,
S,left,Pretarget,0,43,43,43,1572.4516478602231,1574.4531062230967,left,1,3,0.7284609170942531,Z12I04,2023-01-25_10h41.04.049,t1_Paradigm,2021.1.4,59.98329731741151,
R,left,Distractor,0,44,44,44,1575.9516093640627,1577.9528110858678,left,1,3,0.6365869432570435,Z12I04,2023-01-25_10h41.04.049,t1_Paradigm,2021.1.4,59.98329731741151,
W,right,Target,0,45,45,45,1579.4514762315084,1581.4533638265698,right,1,3,0.7200924934413706,Z12I04,2023-01-25_10h41.04.049,t1_Paradigm,2021.1.4,59.98329731741151,
S,right,Target,0,46,46,46,1582.951733834981,1584.9529458224288,right,1,3,0.5648839950290494,Z12I04,2023-01-25_10h41.04.049,t1_Paradigm,2021.1.4,59.98329731741151,
D,left,Distractor,0,47,47,47,1586.4512125328101,1588.4535450793246,left,1,3,0.5516477319024489,Z12I04,2023-01-25_10h41.04.049,t1_Paradigm,2021.1.4,59.98329731741151,
T,left,Distractor,0,48,48,48,1589.9513774246966,1591.9534546133477,left,1,3,0.7159050736013342,Z12I04,2023-01-25_10h41.04.049,t1_Paradigm,2021.1.4,59.98329731741151,
S,right,Target,0,49,49,49,1593.4514409433614,1595.452320580625,right,1,3,0.5453779905901683,Z12I04,2023-01-25_10h41.04.049,t1_Paradigm,2021.1.4,59.98329731741151,
K,left,Distractor,0,50,50,50,1596.9517235693384,1598.952925932746,left,1,3,0.6604994748486206,Z12I04,2023-01-25_10h41.04.049,t1_Paradigm,2021.1.4,59.98329731741151,
S,left,Lure,0,51,51,51,1600.451423620089,1602.4528999478375,left,1,3,0.8086272461709996,Z12I04,2023-01-25_10h41.04.049,t1_Paradigm,2021.1.4,59.98329731741151,
T,left,Pretarget,0,52,52,52,1603.9514021263994,1605.9515615646637,left,1,3,0.8939103565576261,Z12I04,2023-01-25_10h41.04.049,t1_Paradigm,2021.1.4,59.98329731741151,
V,left,Distractor,0,53,53,53,1607.451207079187,1609.4529105342817,left,1,3,0.7524526866145607,Z12I04,2023-01-25_10h41.04.049,t1_Paradigm,2021.1.4,59.98329731741151,
B,left,Distractor,0,54,54,54,1610.9512436505397,1612.9528630556842,left,1,3,0.7564643073224033,Z12I04,2023-01-25_10h41.04.049,t1_Paradigm,2021.1.4,59.98329731741151,
T,right,Target,0,55,55,55,1614.4511907183191,1616.4537471841663,right,1,3,0.5835896001340188,Z12I04,2023-01-25_10h41.04.049,t1_Paradigm,2021.1.4,59.98329731741151,
Y,left,Pretarget,0,56,56,56,1617.95158466236,1619.9526577428292,left,1,3,0.5887050982387336,Z12I04,2023-01-25_10h41.04.049,t1_Paradigm,2021.1.4,59.98329731741151,
T,left,Lure,0,57,57,57,1621.4513722918755,1623.4525797881042,left,1,3,0.6888355360620153,Z12I04,2023-01-25_10h41.04.049,t1_Paradigm,2021.1.4,59.98329731741151,
P,left,Pretarget,0,58,58,58,1624.9511990591536,1626.9538171188574,left,1,3,0.691749695398812,Z12I04,2023-01-25_10h41.04.049,t1_Paradigm,2021.1.4,59.98329731741151,
Y,right,Target,0,59,59,59,1628.4510376960816,1630.452517552645,right,1,3,0.8569286993370042,Z12I04,2023-01-25_10h41.04.049,t1_Paradigm,2021.1.4,59.98329731741151,
R,left,Distractor,0,60,60,60,1631.9513183972508,1633.952286254882,left,1,3,0.7491894954246163,Z12I04,2023-01-25_10h41.04.049,t1_Paradigm,2021.1.4,59.98329731741151,
P,right,Target,0,61,61,61,1635.4513645926431,1637.453182894616,left,0,3,0.8320171923851376,Z12I04,2023-01-25_10h41.04.049,t1_Paradigm,2021.1.4,59.98329731741151,
L,left,Distractor,0,62,62,62,1638.9512013047633,1640.952838995584,left,1,3,0.7884799598614336,Z12I04,2023-01-25_10h41.04.049,t1_Paradigm,2021.1.4,59.98329731741151,
V,left,Distractor,0,63,63,63,1642.451354647802,1644.451359459822,left,1,3,0.6502906139303377,Z12I04,2023-01-25_10h41.04.049,t1_Paradigm,2021.1.4,59.98329731741151,
H,left,Lure,0,0,0,0,1653.8628609576435,1655.8531233538883,None,0,3,,Z12I04,2023-01-25_10h41.04.049,t1_Paradigm,2021.1.4,59.98329731741151,
B,left,Distractor,0,1,1,1,1657.3509082206624,1659.3533479148232,left,1,3,1.0603886059061551,Z12I04,2023-01-25_10h41.04.049,t1_Paradigm,2021.1.4,59.98329731741151,
T,left,Distractor,0,2,2,2,1660.8507545568227,1662.8531740404992,left,1,3,0.6160476377153827,Z12I04,2023-01-25_10h41.04.049,t1_Paradigm,2021.1.4,59.98329731741151,
R,left,Distractor,0,3,3,3,1664.351423427608,1666.3530572688128,left,1,3,0.8924032318809623,Z12I04,2023-01-25_10h41.04.049,t1_Paradigm,2021.1.4,59.98329731741151,
H,left,Pretarget,0,4,4,4,1667.851135027207,1669.8530758752904,left,1,3,0.7521713438432016,Z12I04,2023-01-25_10h41.04.049,t1_Paradigm,2021.1.4,59.98329731741151,
K,left,Distractor,0,5,5,5,1671.3513117887433,1673.3520181932854,left,1,3,0.7732364427747598,Z12I04,2023-01-25_10h41.04.049,t1_Paradigm,2021.1.4,59.98329731741151,
G,left,Distractor,0,6,6,6,1674.851361833752,1676.8533758245399,left,1,3,0.8239605876306086,Z12I04,2023-01-25_10h41.04.049,t1_Paradigm,2021.1.4,59.98329731741151,
H,right,Target,0,7,7,7,1678.3510410324157,1680.3527614899813,right,1,3,0.4763550167235735,Z12I04,2023-01-25_10h41.04.049,t1_Paradigm,2021.1.4,59.98329731741151,
Y,left,Pretarget,0,8,8,8,1681.851195979461,1683.8513929514816,left,1,3,0.5778129304753747,Z12I04,2023-01-25_10h41.04.049,t1_Paradigm,2021.1.4,59.98329731741151,
S,left,Distractor,0,9,9,9,1685.351200791481,1687.3508293035338,left,1,3,0.5342545250632611,Z12I04,2023-01-25_10h41.04.049,t1_Paradigm,2021.1.4,59.98329731741151,
P,left,Distractor,0,10,10,10,1688.8512354380255,1690.853498049849,left,1,3,0.5356974894725681,Z12I04,2023-01-25_10h41.04.049,t1_Paradigm,2021.1.4,59.98329731741151,
Y,right,Target,0,11,11,11,1692.3509457544187,1694.351252119695,right,1,3,0.33382843672870877,Z12I04,2023-01-25_10h41.04.049,t1_Paradigm,2021.1.4,59.98329731741151,
H,left,Lure,0,12,12,12,1695.8509030878413,1697.8507635392598,left,1,3,0.6585085817569052,Z12I04,2023-01-25_10h41.04.049,t1_Paradigm,2021.1.4,59.98329731741151,
Q,left,Distractor,0,13,13,13,1699.3510201803288,1701.3640681330708,left,1,3,0.664982031917134,Z12I04,2023-01-25_10h41.04.049,t1_Paradigm,2021.1.4,59.98329731741151,
V,left,Pretarget,0,14,14,14,1702.851047769244,1704.8513473976918,left,1,3,0.5697704409799371,Z12I04,2023-01-25_10h41.04.049,t1_Paradigm,2021.1.4,59.98329731741151,
G,left,Distractor,0,15,15,15,1706.3509922706126,1708.3536882850408,left,1,3,0.8594999220454156,Z12I04,2023-01-25_10h41.04.049,t1_Paradigm,2021.1.4,59.98329731741151,
Z,left,Pretarget,0,16,16,16,1709.8510532228665,1711.8519209904807,left,1,3,0.6413158757527526,Z12I04,2023-01-25_10h41.04.049,t1_Paradigm,2021.1.4,59.98329731741151,
V,right,Target,0,17,17,17,1713.3509768721483,1715.3528221214337,right,1,3,0.5482571825818923,Z12I04,2023-01-25_10h41.04.049,t1_Paradigm,2021.1.4,59.98329731741151,
N,left,Distractor,0,18,18,18,1716.8512402500455,1718.851362154553,left,1,3,0.6819636506420466,Z12I04,2023-01-25_10h41.04.049,t1_Paradigm,2021.1.4,59.98329731741151,
Z,right,Target,0,19,19,19,1720.3511590873072,1722.3511154583257,right,1,3,0.7178391848569845,Z12I04,2023-01-25_10h41.04.049,t1_Paradigm,2021.1.4,59.98329731741151,
R,left,Distractor,0,20,20,20,1723.8511533128835,1725.8517933115486,left,1,3,0.5294617531026233,Z12I04,2023-01-25_10h41.04.049,t1_Paradigm,2021.1.4,59.98329731741151,
P,left,Distractor,0,21,21,21,1727.3508687620983,1729.3534791225698,left,1,3,0.691631961308758,Z12I04,2023-01-25_10h41.04.049,t1_Paradigm,2021.1.4,59.98329731741151,
Z,right,Target,0,22,22,22,1730.8511427264393,1732.8535955734546,right,1,3,0.5514963136720326,Z12I04,2023-01-25_10h41.04.049,t1_Paradigm,2021.1.4,59.98329731741151,
D,left,Pretarget,0,23,23,23,1734.3511071174908,1736.3530380207326,left,1,3,0.492294351907276,Z12I04,2023-01-25_10h41.04.049,t1_Paradigm,2021.1.4,59.98329731741151,
K,left,Distractor,0,24,24,24,1737.851096851848,1739.8536132175282,left,1,3,0.8639019579786691,Z12I04,2023-01-25_10h41.04.049,t1_Paradigm,2021.1.4,59.98329731741151,
W,left,Distractor,0,25,25,25,1741.3512777838018,1743.3529177202317,left,1,3,0.4841001233803581,Z12I04,2023-01-25_10h41.04.049,t1_Paradigm,2021.1.4,59.98329731741151,
D,right,Target,0,26,26,26,1744.851100701464,1746.8530033741886,right,1,3,0.37604557175427544,Z12I04,2023-01-25_10h41.04.049,t1_Paradigm,2021.1.4,59.98329731741151,
G,left,Pretarget,0,27,27,27,1748.3509216943185,1750.351548219328,left,1,3,0.6852948517162076,Z12I04,2023-01-25_10h41.04.049,t1_Paradigm,2021.1.4,59.98329731741151,
V,left,Distractor,0,28,28,28,1751.8510551476743,1753.8516842390945,left,1,3,0.5935491984137116,Z12I04,2023-01-25_10h41.04.049,t1_Paradigm,2021.1.4,59.98329731741151,
D,right,Target,0,29,29,29,1755.3509014838346,1757.352122774521,right,1,3,0.38904219628329884,Z12I04,2023-01-25_10h41.04.049,t1_Paradigm,2021.1.4,59.98329731741151,
G,right,Target,0,30,30,30,1758.850836040362,1760.8523245585611,None,0,3,,Z12I04,2023-01-25_10h41.04.049,t1_Paradigm,2021.1.4,59.98329731741151,
B,left,Pretarget,0,31,31,31,1762.3512242099787,1764.3534903506165,left,1,3,0.6194099565186661,Z12I04,2023-01-25_10h41.04.049,t1_Paradigm,2021.1.4,59.98329731741151,
N,left,Distractor,0,32,32,32,1765.8508822357544,1767.8508536844356,left,1,3,0.8181377225796496,Z12I04,2023-01-25_10h41.04.049,t1_Paradigm,2021.1.4,59.98329731741151,
F,left,Distractor,0,33,33,33,1769.3510634885092,1771.3525404578604,left,1,3,0.8364978246459032,Z12I04,2023-01-25_10h41.04.049,t1_Paradigm,2021.1.4,59.98329731741151,
B,right,Target,0,34,34,34,1772.8511077590938,1774.8510634885092,right,1,3,0.7460539831658934,Z12I04,2023-01-25_10h41.04.049,t1_Paradigm,2021.1.4,59.98329731741151,
Q,left,Pretarget,0,35,35,35,1776.3511584457046,1778.3513425856718,left,1,3,0.621696307640832,Z12I04,2023-01-25_10h41.04.049,t1_Paradigm,2021.1.4,59.98329731741151,
S,left,Pretarget,0,36,36,36,1779.8511523504794,1781.8514718686101,left,1,3,0.5298152761747588,Z12I04,2023-01-25_10h41.04.049,t1_Paradigm,2021.1.4,59.98329731741151,
W,left,Distractor,0,37,37,37,1783.3511154583257,1785.3518626046375,left,1,3,0.5490893412470541,Z12I04,2023-01-25_10h41.04.049,t1_Paradigm,2021.1.4,59.98329731741151,
Q,right,Target,0,38,38,38,1786.8508931429997,1788.8517727802632,right,1,3,0.34528008202278215,Z12I04,2023-01-25_10h41.04.049,t1_Paradigm,2021.1.4,59.98329731741151,
S,right,Target,0,39,39,39,1790.3507016246022,1792.3525266634028,right,1,3,0.9725711649643927,Z12I04,2023-01-25_10h41.04.049,t1_Paradigm,2021.1.4,59.98329731741151,
T,left,Distractor,0,40,40,40,1793.8509528120485,1795.8638515921689,left,1,3,0.6292672191721067,Z12I04,2023-01-25_10h41.04.049,t1_Paradigm,2021.1.4,59.98329731741151,
G,left,Distractor,0,41,41,41,1797.3507933737842,1799.3522417918166,left,1,3,0.7085224724546606,Z12I04,2023-01-25_10h41.04.049,t1_Paradigm,2021.1.4,59.98329731741151,
D,left,Distractor,0,42,42,42,1800.8508507972233,1802.851578695455,left,1,3,1.3534095086802154,Z12I04,2023-01-25_10h41.04.049,t1_Paradigm,2021.1.4,59.98329731741151,
S,left,Lure,0,43,43,43,1804.3507458951867,1806.3517987651717,left,1,3,0.7972756908939118,Z12I04,2023-01-25_10h41.04.049,t1_Paradigm,2021.1.4,59.98329731741151,
Z,left,Pretarget,0,44,44,44,1807.8509492832336,1809.851157804102,left,1,3,0.7538029394381738,Z12I04,2023-01-25_10h41.04.049,t1_Paradigm,2021.1.4,59.98329731741151,
J,left,Distractor,0,45,45,45,1811.3506929629661,1813.3533851277784,left,1,3,0.9316269696400923,Z12I04,2023-01-25_10h41.04.049,t1_Paradigm,2021.1.4,59.98329731741151,
M,left,Pretarget,0,46,46,46,1814.850956340863,1816.8531849477445,left,1,3,0.8238463823554412,Z12I04,2023-01-25_10h41.04.049,t1_Paradigm,2021.1.4,59.98329731741151,
Z,right,Target,0,47,47,47,1818.3507526320145,1820.3517682890447,right,1,3,0.7651718179877207,Z12I04,2023-01-25_10h41.04.049,t1_Paradigm,2021.1.4,59.98329731741151,
P,left,Distractor,0,48,48,48,1821.8506849429327,1823.8533007570268,left,1,3,0.687766305209152,Z12I04,2023-01-25_10h41.04.049,t1_Paradigm,2021.1.4,59.98329731741151,
M,right,Target,0,49,49,49,1825.3509419048028,1827.3516556877757,right,1,3,0.4852033591751024,Z12I04,2023-01-25_10h41.04.049,t1_Paradigm,2021.1.4,59.98329731741151,
K,left,Distractor,0,50,50,50,1828.8507298551199,1830.85336395489,left,1,3,0.5195579742553491,Z12I04,2023-01-25_10h41.04.049,t1_Paradigm,2021.1.4,59.98329731741151,
Y,left,Distractor,0,51,51,51,1832.3510634885092,1834.3516245700462,left,1,3,0.7491092950904203,Z12I04,2023-01-25_10h41.04.049,t1_Paradigm,2021.1.4,59.98329731741151,
X,left,Distractor,0,52,52,52,1835.8506573540176,1837.852901680165,left,1,3,0.7679528447702069,Z12I04,2023-01-25_10h41.04.049,t1_Paradigm,2021.1.4,59.98329731741151,
F,left,Pretarget,0,53,53,53,1839.3510759997612,1841.3523829444043,left,1,3,0.980679418733871,Z12I04,2023-01-25_10h41.04.049,t1_Paradigm,2021.1.4,59.98329731741151,
M,left,Lure,0,54,54,54,1842.8508578548526,1844.8522780423677,left,1,3,0.6968032788463461,Z12I04,2023-01-25_10h41.04.049,t1_Paradigm,2021.1.4,59.98329731741151,
V,left,Distractor,0,55,55,55,1846.3510400700115,1848.3523139721174,left,1,3,0.6843122372233665,Z12I04,2023-01-25_10h41.04.049,t1_Paradigm,2021.1.4,59.98329731741151,
F,right,Target,0,56,56,56,1849.8506878301446,1851.852367225139,right,1,3,0.46461753743915324,Z12I04,2023-01-25_10h41.04.049,t1_Paradigm,2021.1.4,59.98329731741151,
S,left,Distractor,0,57,57,57,1853.3509348471734,1855.3522786839703,left,1,3,0.5967629861984278,Z12I04,2023-01-25_10h41.04.049,t1_Paradigm,2021.1.4,59.98329731741151,
D,left,Distractor,0,58,58,58,1856.8508241707127,1858.8531005769933,left,1,3,0.7597579746397969,Z12I04,2023-01-25_10h41.04.049,t1_Paradigm,2021.1.4,59.98329731741151,
F,right,Target,0,59,59,59,1860.3509492832336,1862.3525119065416,right,1,3,0.7001986401874092,Z12I04,2023-01-25_10h41.04.049,t1_Paradigm,2021.1.4,59.98329731741151,
V,left,Pretarget,0,60,60,60,1863.8507869577575,1865.8528792240713,left,1,3,0.5440450610385597,Z12I04,2023-01-25_10h41.04.049,t1_Paradigm,2021.1.4,59.98329731741151,
J,left,Distractor,0,61,61,61,1867.3507503864053,1869.3519745643039,left,1,3,0.6289971044470803,Z12I04,2023-01-25_10h41.04.049,t1_Paradigm,2021.1.4,59.98329731741151,
V,left,Lure,0,62,62,62,1870.8508716493102,1872.8514038587268,right,0,3,1.097761961559172,Z12I04,2023-01-25_10h41.04.049,t1_Paradigm,2021.1.4,59.98329731741151,
V,right,Target,0,63,63,63,1874.3508293035338,1876.3505752288756,right,1,3,1.1341985773101442,Z12I04,2023-01-25_10h41.04.049,t1_Paradigm,2021.1.4,59.98329731741151,
R,left,Distractor,0,0,0,0,1963.107932647118,1965.1032595340553,left,1,4,0.6693324188354381,Z12I04,2023-01-25_10h41.04.049,t1_Paradigm,2021.1.4,59.98329731741151,
F,left,Distractor,0,1,1,1,1966.6003723220306,1968.613436635641,left,1,4,0.695293908559961,Z12I04,2023-01-25_10h41.04.049,t1_Paradigm,2021.1.4,59.98329731741151,
P,left,Pretarget,0,2,2,2,1970.1006867073402,1972.1021255013325,left,1,4,0.502448034995723,Z12I04,2023-01-25_10h41.04.049,t1_Paradigm,2021.1.4,59.98329731741151,
H,left,Distractor,0,3,3,3,1973.6005019257705,1975.6022939220338,left,1,4,0.7147280534995843,Z12I04,2023-01-25_10h41.04.049,t1_Paradigm,2021.1.4,59.98329731741151,
Z,left,Distractor,0,4,4,4,1977.1007961005957,1979.1012927010638,left,1,4,0.6872969728542557,Z12I04,2023-01-25_10h41.04.049,t1_Paradigm,2021.1.4,59.98329731741151,
T,left,Distractor,0,5,5,5,1980.600553895587,1982.6014454024998,left,1,4,0.675254732301255,Z12I04,2023-01-25_10h41.04.049,t1_Paradigm,2021.1.4,59.98329731741151,
P,right,Target,0,6,6,6,1984.1006876697438,1986.1007303363217,right,1,4,0.98370650014067,Z12I04,2023-01-25_10h41.04.049,t1_Paradigm,2021.1.4,59.98329731741151,
G,left,Distractor,0,7,7,7,1987.600346016321,1989.6000216861703,left,1,4,0.7806645977120752,Z12I04,2023-01-25_10h41.04.049,t1_Paradigm,2021.1.4,59.98329731741151,
L,left,Distractor,0,8,8,8,1991.1004794696769,1993.1011085610971,left,1,4,0.7354495742001745,Z12I04,2023-01-25_10h41.04.049,t1_Paradigm,2021.1.4,59.98329731741151,
P,left,Lure,0,9,9,9,1994.600584371714,1996.6016754170578,left,1,4,0.963026362812343,Z12I04,2023-01-25_10h41.04.049,t1_Paradigm,2021.1.4,59.98329731741151,
Q,left,Pretarget,0,10,10,10,1998.1003979861375,2000.1019346245375,left,1,4,0.8386609880549258,Z12I04,2023-01-25_10h41.04.049,t1_Paradigm,2021.1.4,59.98329731741151,
D,left,Distractor,0,11,11,11,2001.600545233951,2003.6013058539188,left,1,4,0.7473962159556322,Z12I04,2023-01-25_10h41.04.049,t1_Paradigm,2021.1.4,59.98329731741151,
M,left,Pretarget,0,12,12,12,2005.1003264474398,2007.1010383056046,left,1,4,0.863647562519418,Z12I04,2023-01-25_10h41.04.049,t1_Paradigm,2021.1.4,59.98329731741151,
C,left,Distractor,0,13,13,13,2008.6005307978908,2010.6021441078096,left,1,4,0.7543864770691471,Z12I04,2023-01-25_10h41.04.049,t1_Paradigm,2021.1.4,59.98329731741151,
Q,right,Target,0,14,14,14,2012.1002597207616,2014.1022297617665,right,1,4,0.5823298132872878,Z12I04,2023-01-25_10h41.04.049,t1_Paradigm,2021.1.4,59.98329731741151,
R,left,Distractor,0,15,15,15,2015.6003530739504,2017.6019266045041,left,1,4,0.7467709741517865,Z12I04,2023-01-25_10h41.04.049,t1_Paradigm,2021.1.4,59.98329731741151,
M,right,Target,0,16,16,16,2019.1004887729155,2021.101259658526,right,1,4,1.1831271970881971,Z12I04,2023-01-25_10h41.04.049,t1_Paradigm,2021.1.4,59.98329731741151,
S,left,Distractor,0,17,17,17,2022.600207430144,2024.617337259086,left,1,4,0.6592701641284293,Z12I04,2023-01-25_10h41.04.049,t1_Paradigm,2021.1.4,59.98329731741151,
Z,left,Distractor,0,18,18,18,2026.1002866680737,2028.102866231617,left,1,4,0.8377155865177883,Z12I04,2023-01-25_10h41.04.049,t1_Paradigm,2021.1.4,59.98329731741151,
L,left,Pretarget,0,19,19,19,2029.6005099458039,2031.601060120095,left,1,4,0.6673533953930928,Z12I04,2023-01-25_10h41.04.049,t1_Paradigm,2021.1.4,59.98329731741151,
M,right,Target,0,20,20,20,2033.1002215454027,2035.1023414006313,right,1,4,0.702121844197336,Z12I04,2023-01-25_10h41.04.049,t1_Paradigm,2021.1.4,59.98329731741151,
P,left,Distractor,0,21,21,21,2036.6003906077067,2038.60198563195,left,1,4,0.6745630846203312,Z12I04,2023-01-25_10h41.04.049,t1_Paradigm,2021.1.4,59.98329731741151,
F,left,Distractor,0,22,22,22,2040.1004541263715,2042.1023141325177,left,1,4,0.6463139605684773,Z12I04,2023-01-25_10h41.04.049,t1_Paradigm,2021.1.4,59.98329731741151,
L,right,Target,0,23,23,23,2043.6002921216968,2045.6027677456073,right,1,4,0.745850915920073,Z12I04,2023-01-25_10h41.04.049,t1_Paradigm,2021.1.4,59.98329731741151,
L,left,Lure,0,24,24,24,2047.1004121013962,2049.10044418153,left,1,4,0.7199410752104995,Z12I04,2023-01-25_10h41.04.049,t1_Paradigm,2021.1.4,59.98329731741151,
V,left,Pretarget,0,25,25,25,2050.6004149886085,2052.6009728621316,left,1,4,0.7714707522213757,Z12I04,2023-01-25_10h41.04.049,t1_Paradigm,2021.1.4,59.98329731741151,
Z,left,Distractor,0,26,26,26,2054.1000104581235,2056.1023558366915,left,1,4,1.1581573042935815,Z12I04,2023-01-25_10h41.04.049,t1_Paradigm,2021.1.4,59.98329731741151,
H,left,Distractor,0,27,27,27,2057.5998051452684,2059.602199606441,None,0,4,,Z12I04,2023-01-25_10h41.04.049,t1_Paradigm,2021.1.4,59.98329731741151,
X,left,Distractor,0,28,28,28,2061.100380342064,2063.1133885154404,left,1,4,0.8992250722926656,Z12I04,2023-01-25_10h41.04.049,t1_Paradigm,2021.1.4,59.98329731741151,
V,right,Target,0,29,29,29,2064.5999863980232,2066.6010463256375,right,1,4,0.4512298560821364,Z12I04,2023-01-25_10h41.04.049,t1_Paradigm,2021.1.4,59.98329731741151,
C,left,Distractor,0,30,30,30,2068.1003816252696,2070.1018191360563,left,1,4,0.6627479714125002,Z12I04,2023-01-25_10h41.04.049,t1_Paradigm,2021.1.4,59.98329731741151,
S,left,Pretarget,0,31,31,31,2071.6000906584577,2073.600974145337,left,1,4,1.1155943454273256,Z12I04,2023-01-25_10h41.04.049,t1_Paradigm,2021.1.4,59.98329731741151,
D,left,Distractor,0,32,32,32,2075.100260041563,2077.1005192490425,left,1,4,0.7358525006784475,Z12I04,2023-01-25_10h41.04.049,t1_Paradigm,2021.1.4,59.98329731741151,
V,left,Distractor,0,33,33,33,2078.600435519894,2080.6016404497122,right,0,4,0.4505189603214603,Z12I04,2023-01-25_10h41.04.049,t1_Paradigm,2021.1.4,59.98329731741151,
R,left,Distractor,0,34,34,34,2082.1005397803283,2084.1028886877107,left,1,4,0.5975511950814507,Z12I04,2023-01-25_10h41.04.049,t1_Paradigm,2021.1.4,59.98329731741151,
S,right,Target,0,35,35,35,2085.600393494919,2087.6021367293793,right,1,4,0.7464026942179771,Z12I04,2023-01-25_10h41.04.049,t1_Paradigm,2021.1.4,59.98329731741151,
Y,left,Distractor,0,36,36,36,2089.100236943867,2091.1016571313817,left,1,4,0.6387331041955804,Z12I04,2023-01-25_10h41.04.049,t1_Paradigm,2021.1.4,59.98329731741151,
N,left,Pretarget,0,37,37,37,2092.6002558711457,2094.600970937324,left,1,4,0.7554560287230743,Z12I04,2023-01-25_10h41.04.049,t1_Paradigm,2021.1.4,59.98329731741151,
Z,left,Pretarget,0,38,38,38,2096.100290838491,2098.1021838871757,left,1,4,1.0942684350088712,Z12I04,2023-01-25_10h41.04.049,t1_Paradigm,2021.1.4,59.98329731741151,
P,left,Pretarget,0,39,39,39,2099.6003110489755,2101.6022663331187,left,1,4,1.1781807612874218,Z12I04,2023-01-25_10h41.04.049,t1_Paradigm,2021.1.4,59.98329731741151,
M,left,Distractor,0,40,40,40,2103.1003065577565,2105.101959967843,left,1,4,1.1183298184200794,Z12I04,2023-01-25_10h41.04.049,t1_Paradigm,2021.1.4,59.98329731741151,
N,right,Target,0,41,41,41,2106.6002699864043,2108.601485502667,right,1,4,0.9152686679108228,Z12I04,2023-01-25_10h41.04.049,t1_Paradigm,2021.1.4,59.98329731741151,
Z,right,Target,0,42,42,42,2110.1001868988583,2112.1003027081406,right,1,4,1.032600794175778,Z12I04,2023-01-25_10h41.04.049,t1_Paradigm,2021.1.4,59.98329731741151,
P,right,Target,0,43,43,43,2113.600135570645,2115.602949319163,right,1,4,0.6971965812845156,Z12I04,2023-01-25_10h41.04.049,t1_Paradigm,2021.1.4,59.98329731741151,
X,left,Pretarget,0,44,44,44,2117.1000486334824,2119.102768708011,left,1,4,0.749405715524972,Z12I04,2023-01-25_10h41.04.049,t1_Paradigm,2021.1.4,59.98329731741151,
Z,left,Lure,0,45,45,45,2120.5996838823635,2122.601132300396,left,1,4,1.3155604046460212,Z12I04,2023-01-25_10h41.04.049,t1_Paradigm,2021.1.4,59.98329731741151,
R,left,Pretarget,0,46,46,46,2124.1002635703776,2126.1018412713483,left,1,4,1.0625909070786292,Z12I04,2023-01-25_10h41.04.049,t1_Paradigm,2021.1.4,59.98329731741151,
K,left,Distractor,0,47,47,47,2127.600020723766,2129.5993367753176,left,1,4,0.9409889150306299,Z12I04,2023-01-25_10h41.04.049,t1_Paradigm,2021.1.4,59.98329731741151,
X,right,Target,0,48,48,48,2131.1002292446346,2133.100329655453,right,1,4,1.1358933707688266,Z12I04,2023-01-25_10h41.04.049,t1_Paradigm,2021.1.4,59.98329731741151,
B,left,Distractor,0,49,49,49,2134.600298216922,2136.602725399831,left,1,4,0.7695228465081527,Z12I04,2023-01-25_10h41.04.049,t1_Paradigm,2021.1.4,59.98329731741151,
R,right,Target,0,50,50,50,2138.100251379927,2140.1022008896466,right,1,4,0.6622532957517251,Z12I04,2023-01-25_10h41.04.049,t1_Paradigm,2021.1.4,59.98329731741151,
Y,left,Pretarget,0,51,51,51,2141.6000807136165,2143.6020908547875,left,1,4,0.7145705400434963,Z12I04,2023-01-25_10h41.04.049,t1_Paradigm,2021.1.4,59.98329731741151,
W,left,Pretarget,0,52,52,52,2145.100220262197,2147.1014967307133,left,1,4,0.7986577030496846,Z12I04,2023-01-25_10h41.04.049,t1_Paradigm,2021.1.4,59.98329731741151,
Z,left,Distractor,0,53,53,53,2148.6001965228984,2150.600635379126,left,1,4,0.7556398478882329,Z12I04,2023-01-25_10h41.04.049,t1_Paradigm,2021.1.4,59.98329731741151,
Q,left,Distractor,0,54,54,54,2152.099984152414,2154.1010546664725,left,1,4,0.7432989412918687,Z12I04,2023-01-25_10h41.04.049,t1_Paradigm,2021.1.4,59.98329731741151,
Y,right,Target,0,55,55,55,2155.600297896121,2157.6012400896448,right,1,4,0.44282742748691817,Z12I04,2023-01-25_10h41.04.049,t1_Paradigm,2021.1.4,59.98329731741151,
W,right,Target,0,56,56,56,2159.09980546607,2161.1022384234025,right,1,4,0.830011221631139,Z12I04,2023-01-25_10h41.04.049,t1_Paradigm,2021.1.4,59.98329731741151,
H,left,Pretarget,0,57,57,57,2162.600293725703,2164.6023234357567,left,1,4,0.5620372039729773,Z12I04,2023-01-25_10h41.04.049,t1_Paradigm,2021.1.4,59.98329731741151,
M,left,Distractor,0,58,58,58,2166.1000682023637,2168.100676762499,left,1,4,0.9834062300906226,Z12I04,2023-01-25_10h41.04.049,t1_Paradigm,2021.1.4,59.98329731741151,
R,left,Pretarget,0,59,59,59,2169.6002969337164,2171.600425895854,left,1,4,1.3877737478005656,Z12I04,2023-01-25_10h41.04.049,t1_Paradigm,2021.1.4,59.98329731741151,
J,left,Distractor,0,60,60,60,2173.1001278714125,2175.1018021335854,left,1,4,1.0543998865650792,Z12I04,2023-01-25_10h41.04.049,t1_Paradigm,2021.1.4,59.98329731741151,
H,right,Target,0,61,61,61,2176.5999575259034,2178.600510587407,right,1,4,0.5155357671037564,Z12I04,2023-01-25_10h41.04.049,t1_Paradigm,2021.1.4,59.98329731741151,
Z,left,Distractor,0,62,62,62,2180.1001554603276,2182.1015374724834,left,1,4,0.7747358682199774,Z12I04,2023-01-25_10h41.04.049,t1_Paradigm,2021.1.4,59.98329731741151,
R,right,Target,0,63,63,63,2183.6001041321138,2185.60097254133,right,1,4,0.6511333590397044,Z12I04,2023-01-25_10h41.04.049,t1_Paradigm,2021.1.4,59.98329731741151,
J,left,Pretarget,0,0,0,0,2198.9074096767795,2200.902216544752,left,1,4,1.3498636915128372,Z12I04,2023-01-25_10h41.04.049,t1_Paradigm,2021.1.4,59.98329731741151,
G,left,Pretarget,0,1,1,1,2202.3999026047145,2204.401375403648,left,1,4,0.6505591246486802,Z12I04,2023-01-25_10h41.04.049,t1_Paradigm,2021.1.4,59.98329731741151,
Z,left,Distractor,0,2,2,2,2205.899712369522,2207.9000437573027,left,1,4,0.3839590991128716,Z12I04,2023-01-25_10h41.04.049,t1_Paradigm,2021.1.4,59.98329731741151,
F,left,Distractor,0,3,3,3,2209.3999199279865,2211.4007588234804,left,1,4,0.8832902283274962,Z12I04,2023-01-25_10h41.04.049,t1_Paradigm,2021.1.4,59.98329731741151,
J,right,Target,0,4,4,4,2212.899837802844,2214.9023795118305,right,1,4,0.7418886986188227,Z12I04,2023-01-25_10h41.04.049,t1_Paradigm,2021.1.4,59.98329731741151,
G,right,Target,0,5,5,5,2216.399852559706,2218.4006728487225,right,1,4,0.6992740907371626,Z12I04,2023-01-25_10h41.04.049,t1_Paradigm,2021.1.4,59.98329731741151,
H,left,Distractor,0,6,6,6,2219.8999378928615,2221.9018177886906,left,1,4,0.6223247574580455,Z12I04,2023-01-25_10h41.04.049,t1_Paradigm,2021.1.4,59.98329731741151,
P,left,Distractor,0,7,7,7,2223.399747657669,2225.401667012063,left,1,4,0.7384371970429129,Z12I04,2023-01-25_10h41.04.049,t1_Paradigm,2021.1.4,59.98329731741151,
G,left,Lure,0,8,8,8,2226.9000848198734,2228.8999343640467,left,1,4,0.6642765897795471,Z12I04,2023-01-25_10h41.04.049,t1_Paradigm,2021.1.4,59.98329731741151,
S,left,Distractor,0,9,9,9,2230.3998721285875,2232.4022078831154,left,1,4,0.6336054156399769,Z12I04,2023-01-25_10h41.04.049,t1_Paradigm,2021.1.4,59.98329731741151,
R,left,Pretarget,0,10,10,10,2233.900080328655,2235.9000341332626,left,1,4,0.7039847375554018,Z12I04,2023-01-25_10h41.04.049,t1_Paradigm,2021.1.4,59.98329731741151,
T,left,Pretarget,0,11,11,11,2237.3999921082873,2239.4000877070853,left,1,4,0.6597103035619512,Z12I04,2023-01-25_10h41.04.049,t1_Paradigm,2021.1.4,59.98329731741151,
X,left,Distractor,0,12,12,12,2240.899727126384,2242.901023805384,left,1,4,0.6951222798452363,Z12I04,2023-01-25_10h41.04.049,t1_Paradigm,2021.1.4,59.98329731741151,
F,left,Pretarget,0,13,13,13,2244.400083857469,2246.4017622900597,left,1,4,0.6180603452976356,Z12I04,2023-01-25_10h41.04.049,t1_Paradigm,2021.1.4,59.98329731741151,
R,right,Target,0,14,14,14,2247.899822725182,2249.90246099537,right,1,4,0.5576957994917393,Z12I04,2023-01-25_10h41.04.049,t1_Paradigm,2021.1.4,59.98329731741151,
T,right,Target,0,15,15,15,2251.399693763045,2253.4022181487585,right,1,4,0.6100002117282202,Z12I04,2023-01-25_10h41.04.049,t1_Paradigm,2021.1.4,59.98329731741151,
C,left,Distractor,0,16,16,16,2254.8998249707906,2256.900590081978,left,1,4,0.6635307266733435,Z12I04,2023-01-25_10h41.04.049,t1_Paradigm,2021.1.4,59.98329731741151,
F,right,Target,0,17,17,17,2258.3997011414754,2260.4016461599763,right,1,4,0.698491656277838,Z12I04,2023-01-25_10h41.04.049,t1_Paradigm,2021.1.4,59.98329731741151,
M,left,Distractor,0,18,18,18,2261.899520530323,2263.90243244405,left,1,4,0.6375965050619925,Z12I04,2023-01-25_10h41.04.049,t1_Paradigm,2021.1.4,59.98329731741151,
N,left,Distractor,0,19,19,19,2265.4000036571356,2267.412554367806,left,1,4,0.8713888195607069,Z12I04,2023-01-25_10h41.04.049,t1_Paradigm,2021.1.4,59.98329731741151,
R,left,Lure,0,20,20,20,2268.8997585649145,2270.900577570725,left,1,4,0.8874317735753721,Z12I04,2023-01-25_10h41.04.049,t1_Paradigm,2021.1.4,59.98329731741151,
F,right,Target,0,21,21,21,2272.4000328500565,2274.3997579233114,right,1,4,0.71634296742468,Z12I04,2023-01-25_10h41.04.049,t1_Paradigm,2021.1.4,59.98329731741151,
P,left,Distractor,0,22,22,22,2275.8999228151984,2277.899650134063,left,1,4,0.7523086468145266,Z12I04,2023-01-25_10h41.04.049,t1_Paradigm,2021.1.4,59.98329731741151,
L,left,Pretarget,0,23,23,23,2279.3999783138293,2281.4018675128978,left,1,4,0.9622291714913445,Z12I04,2023-01-25_10h41.04.049,t1_Paradigm,2021.1.4,59.98329731741151,
T,left,Distractor,0,24,24,24,2282.8996546252815,2284.8999844090554,left,1,4,0.8240776801185348,Z12I04,2023-01-25_10h41.04.049,t1_Paradigm,2021.1.4,59.98329731741151,
F,left,Distractor,0,25,25,25,2286.4000059027444,2288.39927960852,right,0,4,1.1488463663154107,Z12I04,2023-01-25_10h41.04.049,t1_Paradigm,2021.1.4,59.98329731741151,
V,left,Distractor,0,26,26,26,2289.899730655198,2291.9021937678567,left,1,4,0.9418772139306384,Z12I04,2023-01-25_10h41.04.049,t1_Paradigm,2021.1.4,59.98329731741151,
L,right,Target,0,27,27,27,2293.3996857430116,2295.3999234568014,right,1,4,0.612188076840539,Z12I04,2023-01-25_10h41.04.049,t1_Paradigm,2021.1.4,59.98329731741151,
S,left,Pretarget,0,28,28,28,2296.900000769923,2298.9005528690227,left,1,4,1.111332499677701,Z12I04,2023-01-25_10h41.04.049,t1_Paradigm,2021.1.4,59.98329731741151,
W,left,Distractor,0,29,29,29,2300.399892659873,2302.400797319641,left,1,4,0.9072354816544248,Z12I04,2023-01-25_10h41.04.049,t1_Paradigm,2021.1.4,59.98329731741151,
Q,left,Distractor,0,30,30,30,2303.8997598481196,2305.900548377804,left,1,4,0.639437583929066,Z12I04,2023-01-25_10h41.04.049,t1_Paradigm,2021.1.4,59.98329731741151,
L,right,Target,0,31,31,31,2307.3995307959663,2309.400376749089,right,1,4,0.49965000574229634,Z12I04,2023-01-25_10h41.04.049,t1_Paradigm,2021.1.4,59.98329731741151,
S,right,Target,0,32,32,32,2310.8996379436126,2312.9008563470866,right,1,4,0.7112107876500886,Z12I04,2023-01-25_10h41.04.049,t1_Paradigm,2021.1.4,59.98329731741151,
Z,left,Pretarget,0,33,33,33,2314.3996456428445,2316.4023596221473,left,1,4,0.7299388488490877,Z12I04,2023-01-25_10h41.04.049,t1_Paradigm,2021.1.4,59.98329731741151,
F,left,Distractor,0,34,34,34,2317.899951366517,2319.9019846053857,left,1,4,0.669949640606319,Z12I04,2023-01-25_10h41.04.049,t1_Paradigm,2021.1.4,59.98329731741151,
V,left,Distractor,0,35,35,35,2321.3996000890543,2323.401574942079,left,1,4,0.8502358210616876,Z12I04,2023-01-25_10h41.04.049,t1_Paradigm,2021.1.4,59.98329731741151,
M,left,Distractor,0,36,36,36,2324.8996697029447,2326.9004572702247,left,1,4,0.6955845545708144,Z12I04,2023-01-25_10h41.04.049,t1_Paradigm,2021.1.4,59.98329731741151,
Z,right,Target,0,37,37,37,2328.399905171125,2330.4000729502236,right,1,4,0.635572248630524,Z12I04,2023-01-25_10h41.04.049,t1_Paradigm,2021.1.4,59.98329731741151,
H,left,Pretarget,0,38,38,38,2331.8997065950985,2333.9017597236493,left,1,4,0.6381675314396489,Z12I04,2023-01-25_10h41.04.049,t1_Paradigm,2021.1.4,59.98329731741151,
L,left,Distractor,0,39,39,39,2335.3996296027776,2337.4016564256185,left,1,4,1.2022148765845486,Z12I04,2023-01-25_10h41.04.049,t1_Paradigm,2021.1.4,59.98329731741151,
G,left,Distractor,0,40,40,40,2338.899951366517,2340.8997126903237,left,1,4,1.0482950371397237,Z12I04,2023-01-25_10h41.04.049,t1_Paradigm,2021.1.4,59.98329731741151,
K,left,Distractor,0,41,41,41,2342.3998785446142,2344.4003902227455,left,1,4,1.0513798627862343,Z12I04,2023-01-25_10h41.04.049,t1_Paradigm,2021.1.4,59.98329731741151,
H,right,Target,0,42,42,42,2345.8995619136954,2347.901611834233,right,1,4,0.6222965269398628,Z12I04,2023-01-25_10h41.04.049,t1_Paradigm,2021.1.4,59.98329731741151,
B,left,Distractor,0,43,43,43,2349.399812138737,2351.4013718748333,left,1,4,0.7062595398292615,Z12I04,2023-01-25_10h41.04.049,t1_Paradigm,2021.1.4,59.98329731741151,
Z,left,Distractor,0,44,44,44,2352.899705632694,2354.899592710624,left,1,4,0.6966021364087283,Z12I04,2023-01-25_10h41.04.049,t1_Paradigm,2021.1.4,59.98329731741151,
T,left,Pretarget,0,45,45,45,2356.4000861030786,2358.40202887597,left,1,4,0.6976415327371797,Z12I04,2023-01-25_10h41.04.049,t1_Paradigm,2021.1.4,59.98329731741151,
H,right,Target,0,46,46,46,2359.8998339532286,2361.899728409589,right,1,4,0.7360648711628528,Z12I04,2023-01-25_10h41.04.049,t1_Paradigm,2021.1.4,59.98329731741151,
F,left,Distractor,0,47,47,47,2363.3998345948307,2365.4004393053497,left,1,4,0.803334665728471,Z12I04,2023-01-25_10h41.04.049,t1_Paradigm,2021.1.4,59.98329731741151,
R,left,Distractor,0,48,48,48,2366.899845502077,2368.900328308087,left,1,4,0.9354281446712776,Z12I04,2023-01-25_10h41.04.049,t1_Paradigm,2021.1.4,59.98329731741151,
T,right,Target,0,49,49,49,2370.3997489408744,2372.40136866682,right,1,4,1.0024297493191625,Z12I04,2023-01-25_10h41.04.049,t1_Paradigm,2021.1.4,59.98329731741151,
H,right,Target,0,50,50,50,2373.899623186751,2375.901533558707,right,1,4,0.8946029666421964,Z12I04,2023-01-25_10h41.04.049,t1_Paradigm,2021.1.4,59.98329731741151,
Y,left,Pretarget,0,51,51,51,2377.3996607205067,2379.4010905320615,left,1,4,1.0747900194855902,Z12I04,2023-01-25_10h41.04.049,t1_Paradigm,2021.1.4,59.98329731741151,
H,left,Distractor,0,52,52,52,2380.8996116379026,2382.9006160668855,left,1,4,1.3031091423881662,Z12I04,2023-01-25_10h41.04.049,t1_Paradigm,2021.1.4,59.98329731741151,
S,left,Distractor,0,53,53,53,2384.3994890917925,2386.4016134382396,left,1,4,0.9381549560284839,Z12I04,2023-01-25_10h41.04.049,t1_Paradigm,2021.1.4,59.98329731741151,
Q,left,Distractor,0,54,54,54,2387.8997633769345,2389.9004081876196,left,1,4,0.847504197685339,Z12I04,2023-01-25_10h41.04.049,t1_Paradigm,2021.1.4,59.98329731741151,
Y,right,Target,0,55,55,55,2391.399642434831,2393.4017366259527,right,1,4,0.530180668896719,Z12I04,2023-01-25_10h41.04.049,t1_Paradigm,2021.1.4,59.98329731741151,
R,left,Distractor,0,56,56,56,2394.8994903749976,2396.8999385344637,left,1,4,0.807929824065468,Z12I04,2023-01-25_10h41.04.049,t1_Paradigm,2021.1.4,59.98329731741151,
H,left,Pretarget,0,57,57,57,2398.3997389960327,2400.400213140408,left,1,4,0.7157222168398221,Z12I04,2023-01-25_10h41.04.049,t1_Paradigm,2021.1.4,59.98329731741151,
J,left,Distractor,0,58,58,58,2401.899415307485,2403.9002737718606,left,1,4,0.6395687916765382,Z12I04,2023-01-25_10h41.04.049,t1_Paradigm,2021.1.4,59.98329731741151,
V,left,Distractor,0,59,59,59,2405.399436159572,2407.4010039157015,left,1,4,0.5949395514035132,Z12I04,2023-01-25_10h41.04.049,t1_Paradigm,2021.1.4,59.98329731741151,
Y,left,Lure,0,60,60,60,2408.899718143946,2410.912636172147,left,1,4,0.7150716317300976,Z12I04,2023-01-25_10h41.04.049,t1_Paradigm,2021.1.4,59.98329731741151,
H,right,Target,0,61,61,61,2412.3996767605736,2414.400419736468,right,1,4,0.5552891478682795,Z12I04,2023-01-25_10h41.04.049,t1_Paradigm,2021.1.4,59.98329731741151,
L,left,Distractor,0,62,62,62,2415.8994675981025,2417.9008127181046,left,1,4,0.654941270899144,Z12I04,2023-01-25_10h41.04.049,t1_Paradigm,2021.1.4,59.98329731741151,
P,left,Distractor,0,63,63,63,2419.399569933729,2421.400577570725,left,1,4,0.6908771157650335,Z12I04,2023-01-25_10h41.04.049,t1_Paradigm,2021.1.4,59.98329731741151,
