Letter,CorrAnswer,Stimulus,finaln_nback_run.thisRepN,finaln_nback_run.thisTrialN,finaln_nback_run.thisN,finaln_nback_run.thisIndex,finaln_fixcross.started,finaln_nback_trial.started,finaln_trial_resp.keys,finaln_trial_resp.corr,finaln_trial_resp.rt,finaln_level,finaln_money,Participant,date,expName,psychopyVersion,frameRate,
F,left,Distractor,0,0,0,0,2680.432182276753,2682.434282242299,left,1,0.8089522179243431,3,2.9699999999999998,Z12I04,2023-01-25_10h41.04.049,t1_Paradigm,2021.1.4,59.98329731741151,
P,left,Pretarget,0,1,1,1,2683.932060372245,2685.9334709357195,left,1,0.5897801035162047,3,2.9699999999999998,Z12I04,2023-01-25_10h41.04.049,t1_Paradigm,2021.1.4,59.98329731741151,
B,left,Distractor,0,2,2,2,2687.4322939156177,2689.4341426937176,left,1,0.48126167315876955,3,2.9699999999999998,Z12I04,2023-01-25_10h41.04.049,t1_Paradigm,2021.1.4,59.98329731741151,
K,left,Pretarget,0,3,3,3,2690.932095660392,2692.9334475172222,left,1,0.5657735771337684,3,2.9699999999999998,Z12I04,2023-01-25_10h41.04.049,t1_Paradigm,2021.1.4,59.98329731741151,
H,left,Distractor,0,4,4,4,2694.4321203620952,2696.4323243917447,left,1,0.6505665030790624,3,2.9699999999999998,Z12I04,2023-01-25_10h41.04.049,t1_Paradigm,2021.1.4,59.98329731741151,
P,right,Target,0,5,5,5,2697.9318293952833,2699.9338222131823,right,1,0.589397708323304,3,2.9699999999999998,Z12I04,2023-01-25_10h41.04.049,t1_Paradigm,2021.1.4,59.98329731741151,
L,left,Distractor,0,6,6,6,2701.4323683415273,2703.4324437298415,left,1,0.8667147440937697,3,2.9699999999999998,Z12I04,2023-01-25_10h41.04.049,t1_Paradigm,2021.1.4,59.98329731741151,
K,right,Target,0,7,7,7,2704.932348451845,2706.9317601021944,right,1,0.40744849374095793,3,2.9699999999999998,Z12I04,2023-01-25_10h41.04.049,t1_Paradigm,2021.1.4,59.98329731741151,
Z,left,Pretarget,0,8,8,8,2708.4319865879374,2710.4330927109445,left,1,0.6338456958401366,3,2.9699999999999998,Z12I04,2023-01-25_10h41.04.049,t1_Paradigm,2021.1.4,59.98329731741151,
S,left,Pretarget,0,9,9,9,2711.9320196304757,2713.933622353951,left,1,0.669421922408219,3,2.9699999999999998,Z12I04,2023-01-25_10h41.04.049,t1_Paradigm,2021.1.4,59.98329731741151,
N,left,Distractor,0,10,10,10,2715.4322316801586,2717.4335306047683,left,1,0.561645184739973,3,2.9699999999999998,Z12I04,2023-01-25_10h41.04.049,t1_Paradigm,2021.1.4,59.98329731741151,
M,left,Distractor,0,11,11,11,2718.932237775384,2720.933037533115,left,1,0.5662076213420733,3,2.9699999999999998,Z12I04,2023-01-25_10h41.04.049,t1_Paradigm,2021.1.4,59.98329731741151,
Z,right,Target,0,12,12,12,2722.4324013840655,2724.434472798292,right,1,0.6323485160046403,3,2.9699999999999998,Z12I04,2023-01-25_10h41.04.049,t1_Paradigm,2021.1.4,59.98329731741151,
S,right,Target,0,13,13,13,2725.9322422666023,2727.933974914619,right,1,0.8611597481585704,3,2.9699999999999998,Z12I04,2023-01-25_10h41.04.049,t1_Paradigm,2021.1.4,59.98329731741151,
Q,left,Distractor,0,14,14,14,2729.4320238008927,2731.43489240644,left,1,0.5923157172765059,3,2.9699999999999998,Z12I04,2023-01-25_10h41.04.049,t1_Paradigm,2021.1.4,59.98329731741151,
V,left,Lure,0,15,15,15,2732.9320151392562,2734.933157512814,left,1,0.6621721330138826,3,2.9699999999999998,Z12I04,2023-01-25_10h41.04.049,t1_Paradigm,2021.1.4,59.98329731741151,
Z,right,Target,0,16,16,16,2736.4321354397575,2738.4328578843665,right,1,0.6820630990559948,3,2.9699999999999998,Z12I04,2023-01-25_10h41.04.049,t1_Paradigm,2021.1.4,59.98329731741151,
X,left,Distractor,0,17,17,17,2739.9320164224623,2741.948387556244,left,1,0.5906241318307366,3,2.9699999999999998,Z12I04,2023-01-25_10h41.04.049,t1_Paradigm,2021.1.4,59.98329731741151,
V,left,Pretarget,0,18,18,18,2743.4321139460685,2745.432191900793,left,1,0.9628816814092716,3,2.9699999999999998,Z12I04,2023-01-25_10h41.04.049,t1_Paradigm,2021.1.4,59.98329731741151,
E,left,Distractor,0,19,19,19,2746.9322249433303,2748.9336143339174,left,1,0.6774454846245135,3,2.9699999999999998,Z12I04,2023-01-25_10h41.04.049,t1_Paradigm,2021.1.4,59.98329731741151,
R,left,Distractor,0,20,20,20,2750.4321790687395,2752.4339662529824,left,1,0.7774905892929382,3,2.9699999999999998,Z12I04,2023-01-25_10h41.04.049,t1_Paradigm,2021.1.4,59.98329731741151,
G,left,Distractor,0,21,21,21,2753.9323237501417,2755.9331302447013,left,1,0.7177791950070969,3,2.9699999999999998,Z12I04,2023-01-25_10h41.04.049,t1_Paradigm,2021.1.4,59.98329731741151,
V,right,Target,0,22,22,22,2757.4319477709764,2759.434450021398,right,1,0.49657512493649847,3,2.9699999999999998,Z12I04,2023-01-25_10h41.04.049,t1_Paradigm,2021.1.4,59.98329731741151,
T,left,Pretarget,0,23,23,23,2760.9318438313435,2762.932455920293,left,1,0.6147763020198909,3,2.9699999999999998,Z12I04,2023-01-25_10h41.04.049,t1_Paradigm,2021.1.4,59.98329731741151,
B,left,Distractor,0,24,24,24,2764.432030537721,2766.433572308942,left,1,1.3213656256230024,3,2.9699999999999998,Z12I04,2023-01-25_10h41.04.049,t1_Paradigm,2021.1.4,59.98329731741151,
S,left,Pretarget,0,25,25,25,2767.9322249433303,2769.932829012246,left,1,0.6541444003805736,3,2.9699999999999998,Z12I04,2023-01-25_10h41.04.049,t1_Paradigm,2021.1.4,59.98329731741151,
G,left,Lure,0,26,26,26,2771.4322525322455,2773.4321347981554,left,1,0.7388568051910624,3,2.9699999999999998,Z12I04,2023-01-25_10h41.04.049,t1_Paradigm,2021.1.4,59.98329731741151,
T,right,Target,0,27,27,27,2774.9319830591235,2776.933352880828,right,1,1.2535876817419194,3,2.9699999999999998,Z12I04,2023-01-25_10h41.04.049,t1_Paradigm,2021.1.4,59.98329731741151,
H,left,Distractor,0,28,28,28,2778.431848964164,2780.432169123898,left,1,0.6988461417549843,3,2.9699999999999998,Z12I04,2023-01-25_10h41.04.049,t1_Paradigm,2021.1.4,59.98329731741151,
S,right,Target,0,29,29,29,2781.931913445233,2783.9338863734497,right,1,0.6210877475068628,3,2.9699999999999998,Z12I04,2023-01-25_10h41.04.049,t1_Paradigm,2021.1.4,59.98329731741151,
D,left,Distractor,0,30,30,30,2785.4319859463353,2787.4342273852703,left,1,0.720645234143376,3,2.9699999999999998,Z12I04,2023-01-25_10h41.04.049,t1_Paradigm,2021.1.4,59.98329731741151,
Z,left,Distractor,0,31,31,31,2788.9319811343153,2790.933637431613,left,1,0.8052976491035224,3,2.9699999999999998,Z12I04,2023-01-25_10h41.04.049,t1_Paradigm,2021.1.4,59.98329731741151,
J,left,Pretarget,0,32,32,32,2792.432085394749,2794.432539649441,left,1,0.8583751925616525,3,2.9699999999999998,Z12I04,2023-01-25_10h41.04.049,t1_Paradigm,2021.1.4,59.98329731741151,
C,left,Pretarget,0,33,33,33,2795.9315371452662,2797.933502374251,left,1,0.9735310025616855,3,2.9699999999999998,Z12I04,2023-01-25_10h41.04.049,t1_Paradigm,2021.1.4,59.98329731741151,
H,left,Distractor,0,34,34,34,2799.431796352745,2801.433816117957,left,1,0.6248334239062387,3,2.9699999999999998,Z12I04,2023-01-25_10h41.04.049,t1_Paradigm,2021.1.4,59.98329731741151,
B,left,Pretarget,0,35,35,35,2802.9318893851328,2804.9333047606274,left,1,0.7735428080513884,3,2.9699999999999998,Z12I04,2023-01-25_10h41.04.049,t1_Paradigm,2021.1.4,59.98329731741151,
J,right,Target,0,36,36,36,2806.431993003964,2808.434441680563,right,1,0.600330617857253,3,2.9699999999999998,Z12I04,2023-01-25_10h41.04.049,t1_Paradigm,2021.1.4,59.98329731741151,
C,right,Target,0,37,37,37,2809.932145384599,2811.9340195060045,None,0,,3,2.9699999999999998,Z12I04,2023-01-25_10h41.04.049,t1_Paradigm,2021.1.4,59.98329731741151,
H,left,Distractor,0,38,38,38,2813.4318515305754,2815.432458486703,right,0,0.83434653088716,3,2.9699999999999998,Z12I04,2023-01-25_10h41.04.049,t1_Paradigm,2021.1.4,59.98329731741151,
B,right,Target,0,39,39,39,2816.9321270989226,2818.9321639910763,right,1,0.5830641275451853,3,2.9699999999999998,Z12I04,2023-01-25_10h41.04.049,t1_Paradigm,2021.1.4,59.98329731741151,
F,left,Pretarget,0,40,40,40,2820.4318938763513,2822.4326965212945,left,1,0.7464049398276984,3,2.9699999999999998,Z12I04,2023-01-25_10h41.04.049,t1_Paradigm,2021.1.4,59.98329731741151,
M,left,Distractor,0,41,41,41,2823.932018668071,2825.933872899794,left,1,0.6849095693114577,3,2.9699999999999998,Z12I04,2023-01-25_10h41.04.049,t1_Paradigm,2021.1.4,59.98329731741151,
W,left,Pretarget,0,42,42,42,2827.4317758214597,2829.4314322432288,left,1,0.6592627856980471,3,2.9699999999999998,Z12I04,2023-01-25_10h41.04.049,t1_Paradigm,2021.1.4,59.98329731741151,
Z,left,Distractor,0,43,43,43,2830.931647500926,2832.9322268681385,left,1,0.5665945077525976,3,2.9699999999999998,Z12I04,2023-01-25_10h41.04.049,t1_Paradigm,2021.1.4,59.98329731741151,
F,right,Target,0,44,44,44,2834.4317870495065,2836.433566855319,right,1,0.8733501989290744,3,2.9699999999999998,Z12I04,2023-01-25_10h41.04.049,t1_Paradigm,2021.1.4,59.98329731741151,
B,left,Lure,0,45,45,45,2837.93196316944,2839.933364429676,left,1,0.5575896142490819,3,2.9699999999999998,Z12I04,2023-01-25_10h41.04.049,t1_Paradigm,2021.1.4,59.98329731741151,
W,right,Target,0,46,46,46,2841.4318598714103,2843.431846397754,right,1,0.46682946265082137,3,2.9699999999999998,Z12I04,2023-01-25_10h41.04.049,t1_Paradigm,2021.1.4,59.98329731741151,
X,left,Distractor,0,47,47,47,2844.9317379669023,2846.9333455023975,left,1,0.7414665240594331,3,2.9699999999999998,Z12I04,2023-01-25_10h41.04.049,t1_Paradigm,2021.1.4,59.98329731741151,
T,left,Distractor,0,48,48,48,2848.4318929139476,2850.4326541755186,left,1,0.7622287865306134,3,2.9699999999999998,Z12I04,2023-01-25_10h41.04.049,t1_Paradigm,2021.1.4,59.98329731741151,
L,left,Pretarget,0,49,49,49,2851.9320128936474,2853.9335270759534,left,1,0.6213597870391823,3,2.9699999999999998,Z12I04,2023-01-25_10h41.04.049,t1_Paradigm,2021.1.4,59.98329731741151,
J,left,Distractor,0,50,50,50,2855.4317504781543,2857.432493133247,left,1,0.6261076468126703,3,2.9699999999999998,Z12I04,2023-01-25_10h41.04.049,t1_Paradigm,2021.1.4,59.98329731741151,
Z,left,Distractor,0,51,51,51,2858.9321068884387,2860.934016939594,left,1,0.6766816566441776,3,2.9699999999999998,Z12I04,2023-01-25_10h41.04.049,t1_Paradigm,2021.1.4,59.98329731741151,
P,left,Pretarget,0,52,52,52,2862.4319907583554,2864.4338478772893,left,1,0.5688866332984617,3,2.9699999999999998,Z12I04,2023-01-25_10h41.04.049,t1_Paradigm,2021.1.4,59.98329731741151,
L,right,Target,0,53,53,53,2865.9317774254664,2867.9322987276378,right,1,0.49443666322986246,3,2.9699999999999998,Z12I04,2023-01-25_10h41.04.049,t1_Paradigm,2021.1.4,59.98329731741151,
V,left,Distractor,0,54,54,54,2869.4316872802915,2871.434241500529,left,1,0.6084260395728052,3,2.9699999999999998,Z12I04,2023-01-25_10h41.04.049,t1_Paradigm,2021.1.4,59.98329731741151,
F,left,Distractor,0,55,55,55,2872.9318874603246,2874.933853651714,left,1,1.013073937650006,3,2.9699999999999998,Z12I04,2023-01-25_10h41.04.049,t1_Paradigm,2021.1.4,59.98329731741151,
P,right,Target,0,56,56,56,2876.4318977259677,2878.432972410443,right,1,0.9377767312525975,3,2.9699999999999998,Z12I04,2023-01-25_10h41.04.049,t1_Paradigm,2021.1.4,59.98329731741151,
T,left,Pretarget,0,57,57,57,2879.931946808572,2881.9334597076727,left,1,0.5573974542485303,3,2.9699999999999998,Z12I04,2023-01-25_10h41.04.049,t1_Paradigm,2021.1.4,59.98329731741151,
D,left,Distractor,0,58,58,58,2883.43196060303,2885.432836711478,left,1,0.6256575625384357,3,2.9699999999999998,Z12I04,2023-01-25_10h41.04.049,t1_Paradigm,2021.1.4,59.98329731741151,
V,left,Distractor,0,59,59,59,2886.9319298061014,2888.934163866606,left,1,1.4127247133155834,3,2.9699999999999998,Z12I04,2023-01-25_10h41.04.049,t1_Paradigm,2021.1.4,59.98329731741151,
Z,left,Distractor,0,60,60,60,2890.431999419991,2892.4339489297104,left,1,0.6166411201875235,3,2.9699999999999998,Z12I04,2023-01-25_10h41.04.049,t1_Paradigm,2021.1.4,59.98329731741151,
T,right,Target,0,61,61,61,2893.9318306784885,2895.9326236993916,right,1,0.6381017671656082,3,2.9699999999999998,Z12I04,2023-01-25_10h41.04.049,t1_Paradigm,2021.1.4,59.98329731741151,
B,left,Distractor,0,62,62,62,2897.4316789394566,2899.4319416757503,None,0,,3,2.9699999999999998,Z12I04,2023-01-25_10h41.04.049,t1_Paradigm,2021.1.4,59.98329731741151,
J,left,Distractor,0,63,63,63,2900.931747911744,2902.9335601184907,left,1,0.6132958038542711,3,2.9699999999999998,Z12I04,2023-01-25_10h41.04.049,t1_Paradigm,2021.1.4,59.98329731741151,
