Currentstep,EDround.thisRepN,EDround.thisTrialN,EDround.thisN,EDround.thisIndex,question.started,EDclick.clicked_name,EDleftbutton.wasclicked,EDrightbutton.wasclicked,EDleftbutton.value,EDrightbutton.value,EDleftbutton.nback,EDrightbutton.nback,Participant,date,expName,psychopyVersion,frameRate,
,,,,,,,,,,,,,Z12I04,2023-01-25_10h41.04.049,t1_Paradigm,2021.1.4,59.98329731741151,
0,0,0,0,0,2587.8561276584,EDleftbutton,1,0,2.00,1.00,1,2,Z12I04,2023-01-25_10h41.04.049,t1_Paradigm,2021.1.4,59.98329731741151,
1,0,1,1,1,2594.432255098656,EDleftbutton,1,0,2.00,1.50,1,2,Z12I04,2023-01-25_10h41.04.049,t1_Paradigm,2021.1.4,59.98329731741151,
2,0,2,2,2,2597.8260117913737,EDleftbutton,1,0,2.00,1.75,1,2,Z12I04,2023-01-25_10h41.04.049,t1_Paradigm,2021.1.4,59.98329731741151,
3,0,3,3,3,2600.3977686342264,EDleftbutton,1,0,2.00,1.88,1,2,Z12I04,2023-01-25_10h41.04.049,t1_Paradigm,2021.1.4,59.98329731741151,
4,0,4,4,4,2601.968311244023,EDleftbutton,1,0,2.00,1.94,1,2,Z12I04,2023-01-25_10h41.04.049,t1_Paradigm,2021.1.4,59.98329731741151,
5,0,5,5,5,2604.274361493061,EDleftbutton,1,0,2.00,1.97,1,2,Z12I04,2023-01-25_10h41.04.049,t1_Paradigm,2021.1.4,59.98329731741151,
0,0,0,0,0,2608.0165408376893,EDrightbutton,0,1,1.00,2.00,2,3,Z12I04,2023-01-25_10h41.04.049,t1_Paradigm,2021.1.4,59.98329731741151,
1,0,1,1,1,2611.102792126509,EDrightbutton,0,1,1.50,2.00,2,3,Z12I04,2023-01-25_10h41.04.049,t1_Paradigm,2021.1.4,59.98329731741151,
2,0,2,2,2,2613.051504333705,EDrightbutton,0,1,1.75,2.00,2,3,Z12I04,2023-01-25_10h41.04.049,t1_Paradigm,2021.1.4,59.98329731741151,
3,0,3,3,3,2614.7590076203146,EDrightbutton,0,1,1.88,2.00,2,3,Z12I04,2023-01-25_10h41.04.049,t1_Paradigm,2021.1.4,59.98329731741151,
4,0,4,4,4,2615.805277438619,EDrightbutton,0,1,1.94,2.00,2,3,Z12I04,2023-01-25_10h41.04.049,t1_Paradigm,2021.1.4,59.98329731741151,
5,0,5,5,5,2616.844418409634,EDrightbutton,0,1,1.97,2.00,2,3,Z12I04,2023-01-25_10h41.04.049,t1_Paradigm,2021.1.4,59.98329731741151,
0,0,0,0,0,2618.0508839039217,EDleftbutton,1,0,2.00,1.00,1,3,Z12I04,2023-01-25_10h41.04.049,t1_Paradigm,2021.1.4,59.98329731741151,
1,0,1,1,1,2620.4574145850406,EDleftbutton,1,0,2.00,1.50,1,3,Z12I04,2023-01-25_10h41.04.049,t1_Paradigm,2021.1.4,59.98329731741151,
2,0,2,2,2,2621.561304814522,EDleftbutton,1,0,2.00,1.75,1,3,Z12I04,2023-01-25_10h41.04.049,t1_Paradigm,2021.1.4,59.98329731741151,
3,0,3,3,3,2622.6282191612067,EDleftbutton,1,0,2.00,1.88,1,3,Z12I04,2023-01-25_10h41.04.049,t1_Paradigm,2021.1.4,59.98329731741151,
4,0,4,4,4,2623.554807625063,EDleftbutton,1,0,2.00,1.94,1,3,Z12I04,2023-01-25_10h41.04.049,t1_Paradigm,2021.1.4,59.98329731741151,
5,0,5,5,5,2624.5396520075424,EDleftbutton,1,0,2.00,1.97,1,3,Z12I04,2023-01-25_10h41.04.049,t1_Paradigm,2021.1.4,59.98329731741151,
0,0,0,0,0,2625.591838364888,EDleftbutton,1,0,2.00,1.00,1,4,Z12I04,2023-01-25_10h41.04.049,t1_Paradigm,2021.1.4,59.98329731741151,
1,0,1,1,1,2630.622535523936,EDleftbutton,1,0,2.00,1.50,1,4,Z12I04,2023-01-25_10h41.04.049,t1_Paradigm,2021.1.4,59.98329731741151,
2,0,2,2,2,2632.9085773936436,EDleftbutton,1,0,2.00,1.75,1,4,Z12I04,2023-01-25_10h41.04.049,t1_Paradigm,2021.1.4,59.98329731741151,
3,0,3,3,3,2634.0275671004115,EDleftbutton,1,0,2.00,1.88,1,4,Z12I04,2023-01-25_10h41.04.049,t1_Paradigm,2021.1.4,59.98329731741151,
4,0,4,4,4,2635.8404574755373,EDleftbutton,1,0,2.00,1.94,1,4,Z12I04,2023-01-25_10h41.04.049,t1_Paradigm,2021.1.4,59.98329731741151,
5,0,5,5,5,2637.3067685232295,EDrightbutton,0,1,2.00,1.97,1,4,Z12I04,2023-01-25_10h41.04.049,t1_Paradigm,2021.1.4,59.98329731741151,
0,0,0,0,0,2638.173562505253,EDleftbutton,1,0,2.00,1.00,2,4,Z12I04,2023-01-25_10h41.04.049,t1_Paradigm,2021.1.4,59.98329731741151,
1,0,1,1,1,2641.404259728461,EDleftbutton,1,0,2.00,1.50,2,4,Z12I04,2023-01-25_10h41.04.049,t1_Paradigm,2021.1.4,59.98329731741151,
2,0,2,2,2,2644.0114792342088,EDleftbutton,1,0,2.00,1.75,2,4,Z12I04,2023-01-25_10h41.04.049,t1_Paradigm,2021.1.4,59.98329731741151,
3,0,3,3,3,2645.017774639628,EDleftbutton,1,0,2.00,1.88,2,4,Z12I04,2023-01-25_10h41.04.049,t1_Paradigm,2021.1.4,59.98329731741151,
4,0,4,4,4,2646.102699414923,EDleftbutton,1,0,2.00,1.94,2,4,Z12I04,2023-01-25_10h41.04.049,t1_Paradigm,2021.1.4,59.98329731741151,
5,0,5,5,5,2647.218568045492,EDrightbutton,0,1,2.00,1.97,2,4,Z12I04,2023-01-25_10h41.04.049,t1_Paradigm,2021.1.4,59.98329731741151,
0,0,0,0,0,2648.857824055866,EDleftbutton,1,0,2.00,1.00,3,4,Z12I04,2023-01-25_10h41.04.049,t1_Paradigm,2021.1.4,59.98329731741151,
1,0,1,1,1,2651.2629849152795,EDleftbutton,1,0,2.00,1.50,3,4,Z12I04,2023-01-25_10h41.04.049,t1_Paradigm,2021.1.4,59.98329731741151,
2,0,2,2,2,2652.181524473613,EDleftbutton,1,0,2.00,1.75,3,4,Z12I04,2023-01-25_10h41.04.049,t1_Paradigm,2021.1.4,59.98329731741151,
3,0,3,3,3,2653.103154311217,EDleftbutton,1,0,2.00,1.88,3,4,Z12I04,2023-01-25_10h41.04.049,t1_Paradigm,2021.1.4,59.98329731741151,
4,0,4,4,4,2653.8775344107557,EDleftbutton,1,0,2.00,1.94,3,4,Z12I04,2023-01-25_10h41.04.049,t1_Paradigm,2021.1.4,59.98329731741151,
5,0,5,5,5,2654.6225486767903,EDrightbutton,0,1,2.00,1.97,3,4,Z12I04,2023-01-25_10h41.04.049,t1_Paradigm,2021.1.4,59.98329731741151,
