Letter,CorrAnswer,Stimulus,nback_run.thisRepN,nback_run.thisTrialN,nback_run.thisN,nback_run.thisIndex,fixcross.started,nback_trial.started,trial_resp.keys,trial_resp.corr,currentlevel,trial_resp.rt,Participant,date,expName,psychopyVersion,frameRate,
H,left,Distractor,0,0,0,0,272.4116501795361,274.35907426814083,None,0,1,,Z15R03,2022-10-20_16h10.29.510,t1_Paradigm,2021.1.4,59.98549042591078,
Q,left,Pretarget,0,1,1,1,275.85836401267443,277.8593639523024,left,1,1,1.055230868398212,Z15R03,2022-10-20_16h10.29.510,t1_Paradigm,2021.1.4,59.98549042591078,
Q,right,Target,0,2,2,2,279.3558004841907,281.35587009822484,None,0,1,,Z15R03,2022-10-20_16h10.29.510,t1_Paradigm,2021.1.4,59.98549042591078,
T,left,Distractor,0,3,3,3,282.85582486516796,284.8582007244695,left,1,1,0.8243824241217226,Z15R03,2022-10-20_16h10.29.510,t1_Paradigm,2021.1.4,59.98549042591078,
Q,left,Lure,0,4,4,4,286.3557738576783,288.35786869446747,None,0,1,,Z15R03,2022-10-20_16h10.29.510,t1_Paradigm,2021.1.4,59.98549042591078,
L,left,Distractor,0,5,5,5,289.8557934266282,291.85811924072914,left,1,1,0.6243915990926325,Z15R03,2022-10-20_16h10.29.510,t1_Paradigm,2021.1.4,59.98549042591078,
V,left,Pretarget,0,6,6,6,293.35582614841405,295.3573368048528,None,0,1,,Z15R03,2022-10-20_16h10.29.510,t1_Paradigm,2021.1.4,59.98549042591078,
V,right,Target,0,7,7,7,296.8557725744322,298.8558370557148,right,1,1,0.5386383497389033,Z15R03,2022-10-20_16h10.29.510,t1_Paradigm,2021.1.4,59.98549042591078,
K,left,Distractor,0,8,8,8,300.3559031408513,302.3578295565676,None,0,1,,Z15R03,2022-10-20_16h10.29.510,t1_Paradigm,2021.1.4,59.98549042591078,
G,left,Pretarget,0,9,9,9,303.8558460380882,305.85776122577954,left,1,1,0.7207168769091368,Z15R03,2022-10-20_16h10.29.510,t1_Paradigm,2021.1.4,59.98549042591078,
G,right,Target,0,10,10,10,307.35575878003146,309.3557786697056,None,0,1,,Z15R03,2022-10-20_16h10.29.510,t1_Paradigm,2021.1.4,59.98549042591078,
G,right,Target,0,11,11,11,310.8549275820842,312.8558197324164,right,1,1,0.7946225893683732,Z15R03,2022-10-20_16h10.29.510,t1_Paradigm,2021.1.4,59.98549042591078,
P,left,Pretarget,0,12,12,12,314.3559310506098,316.35532698058523,None,0,1,,Z15R03,2022-10-20_16h10.29.510,t1_Paradigm,2021.1.4,59.98549042591078,
P,right,Target,0,13,13,13,317.8557886146009,319.8559881533729,right,1,1,0.7062788640614599,Z15R03,2022-10-20_16h10.29.510,t1_Paradigm,2021.1.4,59.98549042591078,
G,left,Lure,0,14,14,14,321.35573696542997,323.3570243436843,None,0,1,,Z15R03,2022-10-20_16h10.29.510,t1_Paradigm,2021.1.4,59.98549042591078,
Y,left,Distractor,0,15,15,15,324.8558226196328,326.857674288447,left,1,1,0.6969833067851141,Z15R03,2022-10-20_16h10.29.510,t1_Paradigm,2021.1.4,59.98549042591078,
B,left,Distractor,0,16,16,16,328.3558566245483,330.3573971155565,None,0,1,,Z15R03,2022-10-20_16h10.29.510,t1_Paradigm,2021.1.4,59.98549042591078,
T,left,Pretarget,0,17,17,17,331.8558065794641,333.85782570694573,left,1,1,0.5448166745482013,Z15R03,2022-10-20_16h10.29.510,t1_Paradigm,2021.1.4,59.98549042591078,
T,right,Target,0,18,18,18,335.3558566245483,337.35576615843456,None,0,1,,Z15R03,2022-10-20_16h10.29.510,t1_Paradigm,2021.1.4,59.98549042591078,
S,left,Distractor,0,19,19,19,338.85578508570325,340.8586905890843,left,1,1,0.7762213893001899,Z15R03,2022-10-20_16h10.29.510,t1_Paradigm,2021.1.4,59.98549042591078,
T,left,Lure,0,20,20,20,342.3558447549585,344.3740069575142,None,0,1,,Z15R03,2022-10-20_16h10.29.510,t1_Paradigm,2021.1.4,59.98549042591078,
J,left,Distractor,0,21,21,21,345.8556994316168,347.85826616804115,left,1,1,0.7201070323353633,Z15R03,2022-10-20_16h10.29.510,t1_Paradigm,2021.1.4,59.98549042591078,
P,left,Distractor,0,22,22,22,349.3557222086238,351.3574776368914,None,0,1,,Z15R03,2022-10-20_16h10.29.510,t1_Paradigm,2021.1.4,59.98549042591078,
F,left,Distractor,0,23,23,23,352.8557700080564,354.8581259775674,left,1,1,0.5842663323273882,Z15R03,2022-10-20_16h10.29.510,t1_Paradigm,2021.1.4,59.98549042591078,
L,left,Distractor,0,24,24,24,356.3557607048424,358.357401286019,None,0,1,,Z15R03,2022-10-20_16h10.29.510,t1_Paradigm,2021.1.4,59.98549042591078,
W,left,Pretarget,0,25,25,25,359.8556814667536,361.8593029999174,left,1,1,0.6712732758605853,Z15R03,2022-10-20_16h10.29.510,t1_Paradigm,2021.1.4,59.98549042591078,
W,right,Target,0,26,26,26,363.3557655168697,365.35578380257357,None,0,1,,Z15R03,2022-10-20_16h10.29.510,t1_Paradigm,2021.1.4,59.98549042591078,
V,left,Distractor,0,27,27,27,366.85563270479906,368.8574439527001,left,1,1,0.6169797907350585,Z15R03,2022-10-20_16h10.29.510,t1_Paradigm,2021.1.4,59.98549042591078,
W,left,Lure,0,28,28,28,370.355845717364,372.35762937623076,None,0,1,,Z15R03,2022-10-20_16h10.29.510,t1_Paradigm,2021.1.4,59.98549042591078,
R,left,Pretarget,0,29,29,29,373.8560179879423,375.8586822481593,left,1,1,0.5917660404229537,Z15R03,2022-10-20_16h10.29.510,t1_Paradigm,2021.1.4,59.98549042591078,
R,right,Target,0,30,30,30,377.3556609353982,379.3557565343799,None,0,1,,Z15R03,2022-10-20_16h10.29.510,t1_Paradigm,2021.1.4,59.98549042591078,
G,left,Distractor,0,31,31,31,380.8557465894846,382.8577637921553,left,1,1,0.6166689336532727,Z15R03,2022-10-20_16h10.29.510,t1_Paradigm,2021.1.4,59.98549042591078,
R,left,Lure,0,32,32,32,384.355763912783,386.3571940478869,None,0,1,,Z15R03,2022-10-20_16h10.29.510,t1_Paradigm,2021.1.4,59.98549042591078,
S,left,Distractor,0,33,33,33,387.8557738576783,389.85793734609615,left,1,1,0.6406174410367385,Z15R03,2022-10-20_16h10.29.510,t1_Paradigm,2021.1.4,59.98549042591078,
R,left,Lure,0,34,34,34,391.3558152411133,393.35697622341104,None,0,1,,Z15R03,2022-10-20_16h10.29.510,t1_Paradigm,2021.1.4,59.98549042591078,
P,left,Pretarget,0,35,35,35,394.85579503059853,396.8577647545608,left,1,1,0.5207497911760584,Z15R03,2022-10-20_16h10.29.510,t1_Paradigm,2021.1.4,59.98549042591078,
P,right,Target,0,36,36,36,398.3558222987922,400.3559188601794,None,0,1,,Z15R03,2022-10-20_16h10.29.510,t1_Paradigm,2021.1.4,59.98549042591078,
Y,left,Pretarget,0,37,37,37,401.85578508570325,403.8574128348846,left,1,1,0.5452016368508339,Z15R03,2022-10-20_16h10.29.510,t1_Paradigm,2021.1.4,59.98549042591078,
Y,right,Target,0,38,38,38,405.35572317102924,407.3558617574163,None,0,1,,Z15R03,2022-10-20_16h10.29.510,t1_Paradigm,2021.1.4,59.98549042591078,
J,left,Distractor,0,39,39,39,408.8556651058607,410.8580480227247,left,1,1,0.5843612896278501,Z15R03,2022-10-20_16h10.29.510,t1_Paradigm,2021.1.4,59.98549042591078,
Y,left,Lure,0,40,40,40,412.3556657474255,414.35804128588643,None,0,1,,Z15R03,2022-10-20_16h10.29.510,t1_Paradigm,2021.1.4,59.98549042591078,
T,left,Distractor,0,41,41,41,415.8556920532137,417.8569887346821,left,1,1,0.7214255284052342,Z15R03,2022-10-20_16h10.29.510,t1_Paradigm,2021.1.4,59.98549042591078,
V,left,Distractor,0,42,42,42,419.35578797291964,421.35726686997805,None,0,1,,Z15R03,2022-10-20_16h10.29.510,t1_Paradigm,2021.1.4,59.98549042591078,
N,left,Pretarget,0,43,43,43,422.85577899054624,424.8584240026539,left,1,1,0.6159833798883483,Z15R03,2022-10-20_16h10.29.510,t1_Paradigm,2021.1.4,59.98549042591078,
N,right,Target,0,44,44,44,426.35582005314063,428.35585822863504,None,0,1,,Z15R03,2022-10-20_16h10.29.510,t1_Paradigm,2021.1.4,59.98549042591078,
N,right,Target,0,45,45,45,429.85573247424327,431.8558328852523,right,1,1,0.6906978340120986,Z15R03,2022-10-20_16h10.29.510,t1_Paradigm,2021.1.4,59.98549042591078,
X,left,Distractor,0,46,46,46,433.35580978752114,435.35781864938326,None,0,1,,Z15R03,2022-10-20_16h10.29.510,t1_Paradigm,2021.1.4,59.98549042591078,
Z,left,Distractor,0,47,47,47,436.855942920316,438.85830851388164,left,1,1,0.6805277705425397,Z15R03,2022-10-20_16h10.29.510,t1_Paradigm,2021.1.4,59.98549042591078,
H,left,Pretarget,0,48,48,48,440.35590089519974,442.35759537119884,None,0,1,,Z15R03,2022-10-20_16h10.29.510,t1_Paradigm,2021.1.4,59.98549042591078,
H,right,Target,0,49,49,49,443.85551657446194,445.8557443439495,right,1,1,0.7065098416060209,Z15R03,2022-10-20_16h10.29.510,t1_Paradigm,2021.1.4,59.98549042591078,
K,left,Distractor,0,50,50,50,447.35577770730015,449.35739743639715,None,0,1,,Z15R03,2022-10-20_16h10.29.510,t1_Paradigm,2021.1.4,59.98549042591078,
V,left,Pretarget,0,51,51,51,450.8556878827512,452.85718474467285,left,1,1,0.6973984244978055,Z15R03,2022-10-20_16h10.29.510,t1_Paradigm,2021.1.4,59.98549042591078,
V,right,Target,0,52,52,52,454.3557757824892,456.35571450926363,None,0,1,,Z15R03,2022-10-20_16h10.29.510,t1_Paradigm,2021.1.4,59.98549042591078,
R,left,Distractor,0,53,53,53,457.85571483010426,459.868510336848,left,1,1,0.77392316411715,Z15R03,2022-10-20_16h10.29.510,t1_Paradigm,2021.1.4,59.98549042591078,
V,left,Lure,0,54,54,54,461.3557870105142,463.35773941129446,None,0,1,,Z15R03,2022-10-20_16h10.29.510,t1_Paradigm,2021.1.4,59.98549042591078,
Y,left,Distractor,0,55,55,55,464.85579214338213,466.85761301533785,left,1,1,0.7770997449988499,Z15R03,2022-10-20_16h10.29.510,t1_Paradigm,2021.1.4,59.98549042591078,
Q,left,Distractor,0,56,56,56,468.3559137273114,470.35740898526274,None,0,1,,Z15R03,2022-10-20_16h10.29.510,t1_Paradigm,2021.1.4,59.98549042591078,
Z,left,Pretarget,0,57,57,57,471.85577032889705,473.85778496507555,left,1,1,0.7204085862031206,Z15R03,2022-10-20_16h10.29.510,t1_Paradigm,2021.1.4,59.98549042591078,
Z,right,Target,0,58,58,58,475.35579214338213,477.35563527129125,None,0,1,,Z15R03,2022-10-20_16h10.29.510,t1_Paradigm,2021.1.4,59.98549042591078,
B,left,Distractor,0,59,59,59,478.85559132136405,480.8571651757229,left,1,1,0.5053493725135922,Z15R03,2022-10-20_16h10.29.510,t1_Paradigm,2021.1.4,59.98549042591078,
S,left,Pretarget,0,60,60,60,482.3557404943276,484.3578016468091,None,0,1,,Z15R03,2022-10-20_16h10.29.510,t1_Paradigm,2021.1.4,59.98549042591078,
S,right,Target,0,61,61,61,485.8557270206511,487.85581010824535,right,1,1,0.802592272288166,Z15R03,2022-10-20_16h10.29.510,t1_Paradigm,2021.1.4,59.98549042591078,
T,left,Distractor,0,62,62,62,489.3557728952728,491.35744459426496,None,0,1,,Z15R03,2022-10-20_16h10.29.510,t1_Paradigm,2021.1.4,59.98549042591078,
D,left,Distractor,0,63,63,63,492.85573375748936,494.85755430848803,left,1,1,0.6488604473415762,Z15R03,2022-10-20_16h10.29.510,t1_Paradigm,2021.1.4,59.98549042591078,
R,left,Distractor,0,0,0,0,661.7863792623393,663.7907501888694,None,0,1,,Z15R03,2022-10-20_16h10.29.510,t1_Paradigm,2021.1.4,59.98549042591078,
V,left,Distractor,0,1,1,1,665.2890255575767,667.2903530361364,left,1,1,0.9360657746437937,Z15R03,2022-10-20_16h10.29.510,t1_Paradigm,2021.1.4,59.98549042591078,
N,left,Pretarget,0,2,2,2,668.7890874723671,670.7912320333999,left,1,1,0.7312404641415924,Z15R03,2022-10-20_16h10.29.510,t1_Paradigm,2021.1.4,59.98549042591078,
N,right,Target,0,3,3,3,672.2890082342783,674.2890095175244,right,1,1,0.8013542975531891,Z15R03,2022-10-20_16h10.29.510,t1_Paradigm,2021.1.4,59.98549042591078,
S,left,Distractor,0,4,4,4,675.7890069511486,677.790253908257,left,1,1,0.8361333997454494,Z15R03,2022-10-20_16h10.29.510,t1_Paradigm,2021.1.4,59.98549042591078,
N,left,Lure,0,5,5,5,679.2889764748979,681.2908326350152,left,1,1,1.1916875081369653,Z15R03,2022-10-20_16h10.29.510,t1_Paradigm,2021.1.4,59.98549042591078,
Z,left,Distractor,0,6,6,6,682.7889126352966,684.7911922540516,left,1,1,0.939296891912818,Z15R03,2022-10-20_16h10.29.510,t1_Paradigm,2021.1.4,59.98549042591078,
L,left,Pretarget,0,7,7,7,686.2890393520938,688.2910238329787,left,1,1,0.6234859752003103,Z15R03,2022-10-20_16h10.29.510,t1_Paradigm,2021.1.4,59.98549042591078,
L,right,Target,0,8,8,8,689.7890669410117,691.7889970062533,right,1,1,0.7094900916563347,Z15R03,2022-10-20_16h10.29.510,t1_Paradigm,2021.1.4,59.98549042591078,
H,left,Distractor,0,9,9,9,693.2889418283012,695.2905060586054,left,1,1,1.0319387217750773,Z15R03,2022-10-20_16h10.29.510,t1_Paradigm,2021.1.4,59.98549042591078,
L,left,Lure,0,10,10,10,696.7889793621143,698.7909750711406,left,1,1,1.1479865827132016,Z15R03,2022-10-20_16h10.29.510,t1_Paradigm,2021.1.4,59.98549042591078,
X,left,Pretarget,0,11,11,11,700.2890582793625,702.2909599933773,left,1,1,0.9594487083377317,Z15R03,2022-10-20_16h10.29.510,t1_Paradigm,2021.1.4,59.98549042591078,
X,right,Target,0,12,12,12,703.7890877932077,705.7890643746359,right,1,1,0.9334509179461747,Z15R03,2022-10-20_16h10.29.510,t1_Paradigm,2021.1.4,59.98549042591078,
X,right,Target,0,13,13,13,707.2889357330278,709.2889825701714,right,1,1,1.1937043899670243,Z15R03,2022-10-20_16h10.29.510,t1_Paradigm,2021.1.4,59.98549042591078,
R,left,Distractor,0,14,14,14,710.7888051667251,712.7909513317281,left,1,1,1.0034630571026355,Z15R03,2022-10-20_16h10.29.510,t1_Paradigm,2021.1.4,59.98549042591078,
T,left,Distractor,0,15,15,15,714.2890505801188,716.29043291579,left,1,1,1.3599465286824852,Z15R03,2022-10-20_16h10.29.510,t1_Paradigm,2021.1.4,59.98549042591078,
V,left,Pretarget,0,16,16,16,717.788921938627,719.791129056015,left,1,1,1.15534962923266,Z15R03,2022-10-20_16h10.29.510,t1_Paradigm,2021.1.4,59.98549042591078,
V,right,Target,0,17,17,17,721.289074961096,723.28915355762,left,0,1,0.6973705147393048,Z15R03,2022-10-20_16h10.29.510,t1_Paradigm,2021.1.4,59.98549042591078,
N,left,Distractor,0,18,18,18,724.7891205149936,726.7901775573846,left,1,1,1.2123429835774004,Z15R03,2022-10-20_16h10.29.510,t1_Paradigm,2021.1.4,59.98549042591078,
B,left,Distractor,0,19,19,19,728.2890727154445,730.2910090760561,left,1,1,0.7033733607968315,Z15R03,2022-10-20_16h10.29.510,t1_Paradigm,2021.1.4,59.98549042591078,
V,left,Lure,0,20,20,20,731.7889658884378,733.791343030869,left,1,1,1.203057691687718,Z15R03,2022-10-20_16h10.29.510,t1_Paradigm,2021.1.4,59.98549042591078,
P,left,Distractor,0,21,21,21,735.2890229912009,737.2910440434935,left,1,1,0.7914646147983149,Z15R03,2022-10-20_16h10.29.510,t1_Paradigm,2021.1.4,59.98549042591078,
K,left,Pretarget,0,22,22,22,738.7890605250141,740.7910969757941,left,1,1,0.5873251790180802,Z15R03,2022-10-20_16h10.29.510,t1_Paradigm,2021.1.4,59.98549042591078,
K,right,Target,0,23,23,23,742.2890727154445,744.2889697380597,right,1,1,0.8014075506944209,Z15R03,2022-10-20_16h10.29.510,t1_Paradigm,2021.1.4,59.98549042591078,
J,left,Pretarget,0,24,24,24,745.7888914623763,747.7911008254159,left,1,1,0.8672216753475368,Z15R03,2022-10-20_16h10.29.510,t1_Paradigm,2021.1.4,59.98549042591078,
J,right,Target,0,25,25,25,749.2889726252761,751.288969417219,right,1,1,0.7614083590451628,Z15R03,2022-10-20_16h10.29.510,t1_Paradigm,2021.1.4,59.98549042591078,
H,left,Distractor,0,26,26,26,752.7890586002031,754.7894361841027,left,1,1,1.0209441971965134,Z15R03,2022-10-20_16h10.29.510,t1_Paradigm,2021.1.4,59.98549042591078,
J,left,Lure,0,27,27,27,756.288992194226,758.2908541287761,left,1,1,1.3280382831580937,Z15R03,2022-10-20_16h10.29.510,t1_Paradigm,2021.1.4,59.98549042591078,
V,left,Distractor,0,28,28,28,759.7890024598455,761.7907774570631,left,1,1,0.723734660889022,Z15R03,2022-10-20_16h10.29.510,t1_Paradigm,2021.1.4,59.98549042591078,
Z,left,Pretarget,0,29,29,29,763.2890207455494,765.291316083516,left,1,1,0.5030880395788699,Z15R03,2022-10-20_16h10.29.510,t1_Paradigm,2021.1.4,59.98549042591078,
Z,right,Target,0,30,30,30,766.7890075927135,768.7891821089434,right,1,1,0.9252980571473017,Z15R03,2022-10-20_16h10.29.510,t1_Paradigm,2021.1.4,59.98549042591078,
T,left,Distractor,0,31,31,31,770.2889588307589,772.289273537579,left,1,1,0.8171201094519347,Z15R03,2022-10-20_16h10.29.510,t1_Paradigm,2021.1.4,59.98549042591078,
Z,left,Lure,0,32,32,32,773.7891689561075,775.7909529356984,left,1,1,1.379613934084773,Z15R03,2022-10-20_16h10.29.510,t1_Paradigm,2021.1.4,59.98549042591078,
F,left,Distractor,0,33,33,33,777.2889415074605,779.2908400134183,left,1,1,1.1435591949848458,Z15R03,2022-10-20_16h10.29.510,t1_Paradigm,2021.1.4,59.98549042591078,
Y,left,Pretarget,0,34,34,34,780.7890120839002,782.7908983994275,left,1,1,0.6515571085037664,Z15R03,2022-10-20_16h10.29.510,t1_Paradigm,2021.1.4,59.98549042591078,
Y,right,Target,0,35,35,35,784.2891532367794,786.2889639636269,right,1,1,0.9454611014807597,Z15R03,2022-10-20_16h10.29.510,t1_Paradigm,2021.1.4,59.98549042591078,
Y,right,Target,0,36,36,36,787.7890040639322,789.7889411867363,right,1,1,0.6614201645134017,Z15R03,2022-10-20_16h10.29.510,t1_Paradigm,2021.1.4,59.98549042591078,
W,left,Distractor,0,37,37,37,791.2889533771668,793.2909455572953,left,1,1,0.759758795495145,Z15R03,2022-10-20_16h10.29.510,t1_Paradigm,2021.1.4,59.98549042591078,
Q,left,Distractor,0,38,38,38,794.7890021391213,796.7905217779335,left,1,1,0.7638820628635585,Z15R03,2022-10-20_16h10.29.510,t1_Paradigm,2021.1.4,59.98549042591078,
P,left,Pretarget,0,39,39,39,798.2889915526612,800.2913786399877,left,1,1,0.7349896766245365,Z15R03,2022-10-20_16h10.29.510,t1_Paradigm,2021.1.4,59.98549042591078,
P,right,Target,0,40,40,40,801.7887586504221,803.7891413670732,right,1,1,0.5012347666779533,Z15R03,2022-10-20_16h10.29.510,t1_Paradigm,2021.1.4,59.98549042591078,
J,left,Distractor,0,41,41,41,805.2889854573878,807.2910206249217,left,1,1,0.6795146779622883,Z15R03,2022-10-20_16h10.29.510,t1_Paradigm,2021.1.4,59.98549042591078,
P,left,Lure,0,42,42,42,808.7890104799299,810.79115985299,right,0,1,0.7952962734270841,Z15R03,2022-10-20_16h10.29.510,t1_Paradigm,2021.1.4,59.98549042591078,
L,left,Distractor,0,43,43,43,812.2889389410848,814.2910260786302,left,1,1,0.7993476813426241,Z15R03,2022-10-20_16h10.29.510,t1_Paradigm,2021.1.4,59.98549042591078,
Z,left,Distractor,0,44,44,44,815.7890415977454,817.791028645006,left,1,1,0.7234690368641168,Z15R03,2022-10-20_16h10.29.510,t1_Paradigm,2021.1.4,59.98549042591078,
F,left,Pretarget,0,45,45,45,819.288969417219,821.2904672415461,left,1,1,0.8240596974501386,Z15R03,2022-10-20_16h10.29.510,t1_Paradigm,2021.1.4,59.98549042591078,
F,right,Target,0,46,46,46,822.7889982894994,824.788985778112,right,1,1,0.7818796940846369,Z15R03,2022-10-20_16h10.29.510,t1_Paradigm,2021.1.4,59.98549042591078,
G,left,Pretarget,0,47,47,47,826.2889851365471,828.2912512815092,left,1,1,0.6712094361428171,Z15R03,2022-10-20_16h10.29.510,t1_Paradigm,2021.1.4,59.98549042591078,
G,right,Target,0,48,48,48,829.7889216177864,831.7889690964948,right,1,1,0.7414705177070573,Z15R03,2022-10-20_16h10.29.510,t1_Paradigm,2021.1.4,59.98549042591078,
V,left,Distractor,0,49,49,49,833.2890194624197,835.2909911111929,left,1,1,0.8398957650642842,Z15R03,2022-10-20_16h10.29.510,t1_Paradigm,2021.1.4,59.98549042591078,
G,left,Lure,0,50,50,50,836.7890380688477,838.7906395122409,left,1,1,0.8916908444371074,Z15R03,2022-10-20_16h10.29.510,t1_Paradigm,2021.1.4,59.98549042591078,
Q,left,Pretarget,0,51,51,51,840.2889338082168,842.2907495473046,left,1,1,0.8317137111444026,Z15R03,2022-10-20_16h10.29.510,t1_Paradigm,2021.1.4,59.98549042591078,
Q,right,Target,0,52,52,52,843.7889524147613,845.7887692368822,right,1,1,0.7257194624980912,Z15R03,2022-10-20_16h10.29.510,t1_Paradigm,2021.1.4,59.98549042591078,
Y,left,Distractor,0,53,53,53,847.2889129561372,849.2904078932479,left,1,1,1.064118365640752,Z15R03,2022-10-20_16h10.29.510,t1_Paradigm,2021.1.4,59.98549042591078,
V,left,Distractor,0,54,54,54,850.7889328458114,852.7908159532817,left,1,1,0.603606519754976,Z15R03,2022-10-20_16h10.29.510,t1_Paradigm,2021.1.4,59.98549042591078,
B,left,Distractor,0,55,55,55,854.2888869711896,856.2907918931451,left,1,1,0.5595671483315527,Z15R03,2022-10-20_16h10.29.510,t1_Paradigm,2021.1.4,59.98549042591078,
J,left,Pretarget,0,56,56,56,857.7889710213058,859.7907880435232,left,1,1,0.4995486317202449,Z15R03,2022-10-20_16h10.29.510,t1_Paradigm,2021.1.4,59.98549042591078,
J,right,Target,0,57,57,57,861.288012785837,863.2889899485745,right,1,1,0.6974853618303314,Z15R03,2022-10-20_16h10.29.510,t1_Paradigm,2021.1.4,59.98549042591078,
H,left,Distractor,0,58,58,58,864.7890361440368,866.7912647553021,left,1,1,0.6191038205288351,Z15R03,2022-10-20_16h10.29.510,t1_Paradigm,2021.1.4,59.98549042591078,
J,left,Lure,0,59,59,59,868.2889950814424,870.2905018881429,left,1,1,0.9760774775641039,Z15R03,2022-10-20_16h10.29.510,t1_Paradigm,2021.1.4,59.98549042591078,
D,left,Pretarget,0,60,60,60,871.7889431115473,873.790876584826,left,1,1,0.595641328021884,Z15R03,2022-10-20_16h10.29.510,t1_Paradigm,2021.1.4,59.98549042591078,
D,right,Target,0,61,61,61,875.2889354123035,877.2889678132487,right,1,1,0.7135671636788175,Z15R03,2022-10-20_16h10.29.510,t1_Paradigm,2021.1.4,59.98549042591078,
R,left,Distractor,0,62,62,62,878.7891134573147,880.7895776578225,left,1,1,0.6208021460333839,Z15R03,2022-10-20_16h10.29.510,t1_Paradigm,2021.1.4,59.98549042591078,
F,left,Distractor,0,63,63,63,882.2888641941827,884.2914421587484,left,1,1,0.8149171625263989,Z15R03,2022-10-20_16h10.29.510,t1_Paradigm,2021.1.4,59.98549042591078,
F,left,Distractor,0,0,0,0,1030.935649373685,1032.939067518455,None,0,2,,Z15R03,2022-10-20_16h10.29.510,t1_Paradigm,2021.1.4,59.98549042591078,
N,left,Pretarget,0,1,1,1,1034.4388192178449,1036.441567528178,None,0,2,,Z15R03,2022-10-20_16h10.29.510,t1_Paradigm,2021.1.4,59.98549042591078,
V,left,Distractor,0,2,2,2,1037.9388974935282,1039.9405149769736,left,1,2,0.7337337369099259,Z15R03,2022-10-20_16h10.29.510,t1_Paradigm,2021.1.4,59.98549042591078,
N,right,Target,0,3,3,3,1041.4389767315006,1043.4409265657887,None,0,2,,Z15R03,2022-10-20_16h10.29.510,t1_Paradigm,2021.1.4,59.98549042591078,
N,left,Lure,0,4,4,4,1044.9555807990255,1046.938866696437,left,1,2,0.9674222407629713,Z15R03,2022-10-20_16h10.29.510,t1_Paradigm,2021.1.4,59.98549042591078,
X,left,Distractor,0,5,5,5,1048.4388426363003,1050.4395593078807,None,0,2,,Z15R03,2022-10-20_16h10.29.510,t1_Paradigm,2021.1.4,59.98549042591078,
G,left,Pretarget,0,6,6,6,1051.9388708668994,1053.940530375461,left,1,2,0.6698104188544676,Z15R03,2022-10-20_16h10.29.510,t1_Paradigm,2021.1.4,59.98549042591078,
H,left,Pretarget,0,7,7,7,1055.4388047817629,1057.4409531924175,None,0,2,,Z15R03,2022-10-20_16h10.29.510,t1_Paradigm,2021.1.4,59.98549042591078,
G,right,Target,0,8,8,8,1058.938835899462,1060.9399327213177,right,1,2,0.5826222223695368,Z15R03,2022-10-20_16h10.29.510,t1_Paradigm,2021.1.4,59.98549042591078,
H,right,Target,0,9,9,9,1062.4389202704187,1064.4407398591284,None,0,2,,Z15R03,2022-10-20_16h10.29.510,t1_Paradigm,2021.1.4,59.98549042591078,
T,left,Pretarget,0,10,10,10,1065.938796440838,1067.940872350242,left,1,2,0.8456377992406487,Z15R03,2022-10-20_16h10.29.510,t1_Paradigm,2021.1.4,59.98549042591078,
K,left,Distractor,0,11,11,11,1069.4379447116517,1071.4407421046635,None,0,2,,Z15R03,2022-10-20_16h10.29.510,t1_Paradigm,2021.1.4,59.98549042591078,
T,right,Target,0,12,12,12,1072.93885161879,1074.9406718490645,None,0,2,,Z15R03,2022-10-20_16h10.29.510,t1_Paradigm,2021.1.4,59.98549042591078,
T,left,Lure,0,13,13,13,1076.4389616538538,1078.4388849821407,None,0,2,,Z15R03,2022-10-20_16h10.29.510,t1_Paradigm,2021.1.4,59.98549042591078,
J,left,Distractor,0,14,14,14,1079.9389228367945,1081.9407109869644,left,1,2,0.7495855238521472,Z15R03,2022-10-20_16h10.29.510,t1_Paradigm,2021.1.4,59.98549042591078,
Q,left,Pretarget,0,15,15,15,1083.438925082446,1085.44077514729,None,0,2,,Z15R03,2022-10-20_16h10.29.510,t1_Paradigm,2021.1.4,59.98549042591078,
M,left,Distractor,0,16,16,16,1086.9389045510907,1088.9407360095065,left,1,2,1.237720022094436,Z15R03,2022-10-20_16h10.29.510,t1_Paradigm,2021.1.4,59.98549042591078,
Q,right,Target,0,17,17,17,1090.4387720598606,1092.4403199293884,None,0,2,,Z15R03,2022-10-20_16h10.29.510,t1_Paradigm,2021.1.4,59.98549042591078,
R,left,Distractor,0,18,18,18,1093.9388439195463,1095.940367728821,left,1,2,0.4780815272824839,Z15R03,2022-10-20_16h10.29.510,t1_Paradigm,2021.1.4,59.98549042591078,
W,left,Distractor,0,19,19,19,1097.4387608318357,1099.4409737236565,None,0,2,,Z15R03,2022-10-20_16h10.29.510,t1_Paradigm,2021.1.4,59.98549042591078,
C,left,Pretarget,0,20,20,20,1100.9388878693571,1102.9409323402215,left,1,2,0.6134923526551574,Z15R03,2022-10-20_16h10.29.510,t1_Paradigm,2021.1.4,59.98549042591078,
T,left,Distractor,0,21,21,21,1104.4389462553663,1106.4404963704292,None,0,2,,Z15R03,2022-10-20_16h10.29.510,t1_Paradigm,2021.1.4,59.98549042591078,
C,right,Target,0,22,22,22,1107.938866696437,1109.9400979343336,right,1,2,0.7181071529630572,Z15R03,2022-10-20_16h10.29.510,t1_Paradigm,2021.1.4,59.98549042591078,
F,left,Pretarget,0,23,23,23,1111.4387826463208,1113.4408800494857,None,0,2,,Z15R03,2022-10-20_16h10.29.510,t1_Paradigm,2021.1.4,59.98549042591078,
C,right,Target,0,24,24,24,1114.9387534534326,1116.9408059442649,right,1,2,0.7574791767401621,Z15R03,2022-10-20_16h10.29.510,t1_Paradigm,2021.1.4,59.98549042591078,
F,right,Target,0,25,25,25,1118.4388445611112,1120.4407408215338,None,0,2,,Z15R03,2022-10-20_16h10.29.510,t1_Paradigm,2021.1.4,59.98549042591078,
H,left,Distractor,0,26,26,26,1121.9387826463208,1123.9409175834153,left,1,2,0.6531534190289676,Z15R03,2022-10-20_16h10.29.510,t1_Paradigm,2021.1.4,59.98549042591078,
H,left,Lure,0,27,27,27,1125.4387614734005,1127.4388580347877,None,0,2,,Z15R03,2022-10-20_16h10.29.510,t1_Paradigm,2021.1.4,59.98549042591078,
P,left,Distractor,0,28,28,28,1128.9388833781704,1130.941109102103,left,1,2,0.7090675955405459,Z15R03,2022-10-20_16h10.29.510,t1_Paradigm,2021.1.4,59.98549042591078,
G,left,Pretarget,0,29,29,29,1132.4389167416375,1134.4390421751887,None,0,2,,Z15R03,2022-10-20_16h10.29.510,t1_Paradigm,2021.1.4,59.98549042591078,
K,left,Distractor,0,30,30,30,1135.93895395461,1137.941076380317,left,1,2,0.8614174056565389,Z15R03,2022-10-20_16h10.29.510,t1_Paradigm,2021.1.4,59.98549042591078,
G,right,Target,0,31,31,31,1139.4390315887285,1141.4406933428254,None,0,2,,Z15R03,2022-10-20_16h10.29.510,t1_Paradigm,2021.1.4,59.98549042591078,
M,left,Pretarget,0,32,32,32,1142.9380037392257,1144.9410738139413,left,1,2,0.7413515001535416,Z15R03,2022-10-20_16h10.29.510,t1_Paradigm,2021.1.4,59.98549042591078,
B,left,Distractor,0,33,33,33,1146.438638285501,1148.4402570521925,None,0,2,,Z15R03,2022-10-20_16h10.29.510,t1_Paradigm,2021.1.4,59.98549042591078,
M,right,Target,0,34,34,34,1149.9387746263528,1151.941026335233,right,1,2,1.1012646653689444,Z15R03,2022-10-20_16h10.29.510,t1_Paradigm,2021.1.4,59.98549042591078,
M,left,Lure,0,35,35,35,1153.438852260355,1155.4388830573298,None,0,2,,Z15R03,2022-10-20_16h10.29.510,t1_Paradigm,2021.1.4,59.98549042591078,
T,left,Distractor,0,36,36,36,1156.9387775135692,1158.9405897237593,left,1,2,0.9656456395750865,Z15R03,2022-10-20_16h10.29.510,t1_Paradigm,2021.1.4,59.98549042591078,
F,left,Distractor,0,37,37,37,1160.438873112551,1162.4409891222604,None,0,2,,Z15R03,2022-10-20_16h10.29.510,t1_Paradigm,2021.1.4,59.98549042591078,
X,left,Distractor,0,38,38,38,1163.9389202704187,1165.9411100645084,left,1,2,0.8136637893039733,Z15R03,2022-10-20_16h10.29.510,t1_Paradigm,2021.1.4,59.98549042591078,
C,left,Distractor,0,39,39,39,1167.4390193981817,1169.437906215433,None,0,2,,Z15R03,2022-10-20_16h10.29.510,t1_Paradigm,2021.1.4,59.98549042591078,
R,left,Distractor,0,40,40,40,1170.9388958894415,1172.9409788565245,left,1,2,0.8693530836608261,Z15R03,2022-10-20_16h10.29.510,t1_Paradigm,2021.1.4,59.98549042591078,
B,left,Pretarget,0,41,41,41,1174.4387422252912,1176.4407507663127,None,0,2,,Z15R03,2022-10-20_16h10.29.510,t1_Paradigm,2021.1.4,59.98549042591078,
H,left,Distractor,0,42,42,42,1177.938735488453,1179.937810937292,left,1,2,0.97662797360681,Z15R03,2022-10-20_16h10.29.510,t1_Paradigm,2021.1.4,59.98549042591078,
B,right,Target,0,43,43,43,1181.438772701542,1183.4406862851465,None,0,2,,Z15R03,2022-10-20_16h10.29.510,t1_Paradigm,2021.1.4,59.98549042591078,
W,left,Pretarget,0,44,44,44,1184.9388099145144,1186.940714194905,left,1,2,0.6616899590007961,Z15R03,2022-10-20_16h10.29.510,t1_Paradigm,2021.1.4,59.98549042591078,
L,left,Pretarget,0,45,45,45,1188.4389244408812,1190.4407603903674,None,0,2,,Z15R03,2022-10-20_16h10.29.510,t1_Paradigm,2021.1.4,59.98549042591078,
W,right,Target,0,46,46,46,1191.9387804007856,1193.940407187445,right,1,2,0.6857513886643574,Z15R03,2022-10-20_16h10.29.510,t1_Paradigm,2021.1.4,59.98549042591078,
L,right,Target,0,47,47,47,1195.4388638092205,1197.4409711572807,None,0,2,,Z15R03,2022-10-20_16h10.29.510,t1_Paradigm,2021.1.4,59.98549042591078,
W,right,Target,0,48,48,48,1198.9388272378128,1200.940412320313,right,1,2,0.6780149288242683,Z15R03,2022-10-20_16h10.29.510,t1_Paradigm,2021.1.4,59.98549042591078,
X,left,Distractor,0,49,49,49,1202.4387127115624,1204.4409564003581,None,0,2,,Z15R03,2022-10-20_16h10.29.510,t1_Paradigm,2021.1.4,59.98549042591078,
R,left,Distractor,0,50,50,50,1205.9387390173506,1207.9400244706776,left,1,2,0.8464388416614383,Z15R03,2022-10-20_16h10.29.510,t1_Paradigm,2021.1.4,59.98549042591078,
V,left,Pretarget,0,51,51,51,1209.438824671437,1211.4405043905135,None,0,2,,Z15R03,2022-10-20_16h10.29.510,t1_Paradigm,2021.1.4,59.98549042591078,
Z,left,Distractor,0,52,52,52,1212.9387659647036,1214.940841553267,left,1,2,0.9333838702877983,Z15R03,2022-10-20_16h10.29.510,t1_Paradigm,2021.1.4,59.98549042591078,
V,right,Target,0,53,53,53,1216.4386841601226,1218.4406503553037,None,0,2,,Z15R03,2022-10-20_16h10.29.510,t1_Paradigm,2021.1.4,59.98549042591078,
V,left,Lure,0,54,54,54,1219.9387521701865,1221.938864771626,left,1,2,0.6712248347466812,Z15R03,2022-10-20_16h10.29.510,t1_Paradigm,2021.1.4,59.98549042591078,
N,left,Distractor,0,55,55,55,1223.4387515286217,1225.4405679092743,None,0,2,,Z15R03,2022-10-20_16h10.29.510,t1_Paradigm,2021.1.4,59.98549042591078,
B,left,Distractor,0,56,56,56,1226.9388095937902,1228.9405576435383,left,1,2,1.1259632077999413,Z15R03,2022-10-20_16h10.29.510,t1_Paradigm,2021.1.4,59.98549042591078,
V,left,Lure,0,57,57,57,1230.4388782453025,1232.440536470618,None,0,2,,Z15R03,2022-10-20_16h10.29.510,t1_Paradigm,2021.1.4,59.98549042591078,
J,left,Distractor,0,58,58,58,1233.9388342954917,1235.940353292739,left,1,2,0.734068012679927,Z15R03,2022-10-20_16h10.29.510,t1_Paradigm,2021.1.4,59.98549042591078,
H,left,Distractor,0,59,59,59,1237.4386283406056,1239.4410507162102,None,0,2,,Z15R03,2022-10-20_16h10.29.510,t1_Paradigm,2021.1.4,59.98549042591078,
X,left,Pretarget,0,60,60,60,1240.9388683005236,1242.9404245107435,left,1,2,0.5820685181533918,Z15R03,2022-10-20_16h10.29.510,t1_Paradigm,2021.1.4,59.98549042591078,
P,left,Distractor,0,61,61,61,1244.4386466263095,1246.4410856836475,None,0,2,,Z15R03,2022-10-20_16h10.29.510,t1_Paradigm,2021.1.4,59.98549042591078,
X,right,Target,0,62,62,62,1247.9388111977605,1249.9408396284562,None,0,2,,Z15R03,2022-10-20_16h10.29.510,t1_Paradigm,2021.1.4,59.98549042591078,
Q,left,Distractor,0,63,63,63,1251.4389645410702,1253.4407106661238,None,0,2,,Z15R03,2022-10-20_16h10.29.510,t1_Paradigm,2021.1.4,59.98549042591078,
B,left,Pretarget,0,0,0,0,1427.4689864710672,1429.4574783425778,left,1,2,0.6568795336643234,Z15R03,2022-10-20_16h10.29.510,t1_Paradigm,2021.1.4,59.98549042591078,
F,left,Distractor,0,1,1,1,1430.9554014707683,1432.9572342123138,None,0,2,,Z15R03,2022-10-20_16h10.29.510,t1_Paradigm,2021.1.4,59.98549042591078,
B,right,Target,0,2,2,2,1434.4556959669571,1436.4567860519746,right,1,2,0.9055741906631738,Z15R03,2022-10-20_16h10.29.510,t1_Paradigm,2021.1.4,59.98549042591078,
V,left,Distractor,0,3,3,3,1437.9554585735314,1439.9571472749813,left,1,2,0.7010395267279819,Z15R03,2022-10-20_16h10.29.510,t1_Paradigm,2021.1.4,59.98549042591078,
G,left,Pretarget,0,4,4,4,1441.4555009193718,1443.457273029373,left,1,2,0.6570110626053065,Z15R03,2022-10-20_16h10.29.510,t1_Paradigm,2021.1.4,59.98549042591078,
B,left,Lure,0,5,5,5,1444.9555066938046,1446.9575870945118,None,0,2,,Z15R03,2022-10-20_16h10.29.510,t1_Paradigm,2021.1.4,59.98549042591078,
G,right,Target,0,6,6,6,1448.4554056412308,1450.4561101222644,right,1,2,1.0021285209804773,Z15R03,2022-10-20_16h10.29.510,t1_Paradigm,2021.1.4,59.98549042591078,
Y,left,Pretarget,0,7,7,7,1451.9554999569664,1453.9574010293,left,1,2,0.9249900871654972,Z15R03,2022-10-20_16h10.29.510,t1_Paradigm,2021.1.4,59.98549042591078,
P,left,Distractor,0,8,8,8,1455.4553828642238,1457.4575697712135,left,1,2,1.0727671863278374,Z15R03,2022-10-20_16h10.29.510,t1_Paradigm,2021.1.4,59.98549042591078,
Y,right,Target,0,9,9,9,1458.955409170012,1460.9570885682479,right,1,2,0.6133422174025327,Z15R03,2022-10-20_16h10.29.510,t1_Paradigm,2021.1.4,59.98549042591078,
X,left,Distractor,0,10,10,10,1462.4554284181213,1464.4573673451087,left,1,2,0.8249524892307818,Z15R03,2022-10-20_16h10.29.510,t1_Paradigm,2021.1.4,59.98549042591078,
Y,right,Target,0,11,11,11,1465.9554290596861,1467.9573291697307,right,1,2,0.9570436560316011,Z15R03,2022-10-20_16h10.29.510,t1_Paradigm,2021.1.4,59.98549042591078,
N,left,Distractor,0,12,12,12,1469.455511505832,1471.4571110244142,left,1,2,0.8651387083809823,Z15R03,2022-10-20_16h10.29.510,t1_Paradigm,2021.1.4,59.98549042591078,
Y,right,Target,0,13,13,13,1472.9554136611987,1474.9544936012244,right,1,2,1.3037558208452538,Z15R03,2022-10-20_16h10.29.510,t1_Paradigm,2021.1.4,59.98549042591078,
Y,left,Lure,0,14,14,14,1476.4554149444448,1478.4553931299597,left,1,2,1.0348519241670147,Z15R03,2022-10-20_16h10.29.510,t1_Paradigm,2021.1.4,59.98549042591078,
K,left,Distractor,0,15,15,15,1479.955383505905,1481.9575213300996,None,0,2,,Z15R03,2022-10-20_16h10.29.510,t1_Paradigm,2021.1.4,59.98549042591078,
T,left,Pretarget,0,16,16,16,1483.4554861624492,1485.4547030848917,left,1,2,1.0277057398343459,Z15R03,2022-10-20_16h10.29.510,t1_Paradigm,2021.1.4,59.98549042591078,
J,left,Distractor,0,17,17,17,1486.9554916161578,1488.9572951646987,left,1,2,1.1249151478987187,Z15R03,2022-10-20_16h10.29.510,t1_Paradigm,2021.1.4,59.98549042591078,
T,right,Target,0,18,18,18,1490.4554476662306,1492.4568659317447,right,1,2,0.8735273586353287,Z15R03,2022-10-20_16h10.29.510,t1_Paradigm,2021.1.4,59.98549042591078,
S,left,Pretarget,0,19,19,19,1493.955379014602,1495.957040127134,left,1,2,0.9733474529348314,Z15R03,2022-10-20_16h10.29.510,t1_Paradigm,2021.1.4,59.98549042591078,
R,left,Distractor,0,20,20,20,1497.4553985835519,1499.4575338413706,left,1,2,0.8648843123810366,Z15R03,2022-10-20_16h10.29.510,t1_Paradigm,2021.1.4,59.98549042591078,
S,right,Target,0,21,21,21,1500.955443175044,1502.9568338515237,right,1,2,0.7253765251953155,Z15R03,2022-10-20_16h10.29.510,t1_Paradigm,2021.1.4,59.98549042591078,
Q,left,Distractor,0,22,22,22,1504.4553863931214,1506.4561049895128,left,1,2,0.5222017408814281,Z15R03,2022-10-20_16h10.29.510,t1_Paradigm,2021.1.4,59.98549042591078,
D,left,Distractor,0,23,23,23,1507.9554637063993,1509.957581320079,left,1,2,0.9407097037183121,Z15R03,2022-10-20_16h10.29.510,t1_Paradigm,2021.1.4,59.98549042591078,
F,left,Distractor,0,24,24,24,1511.4552070647478,1513.457423806307,left,1,2,0.8811832972569391,Z15R03,2022-10-20_16h10.29.510,t1_Paradigm,2021.1.4,59.98549042591078,
Z,left,Distractor,0,25,25,25,1514.9554409293924,1516.9573692699196,left,1,2,0.8528863193932921,Z15R03,2022-10-20_16h10.29.510,t1_Paradigm,2021.1.4,59.98549042591078,
P,left,Distractor,0,26,26,26,1518.4553029845702,1520.4574517160654,left,1,2,0.6648241941584274,Z15R03,2022-10-20_16h10.29.510,t1_Paradigm,2021.1.4,59.98549042591078,
H,left,Distractor,0,27,27,27,1521.9554011499276,1523.9570818314096,None,0,2,,Z15R03,2022-10-20_16h10.29.510,t1_Paradigm,2021.1.4,59.98549042591078,
Z,left,Pretarget,0,28,28,28,1525.4553725986043,1527.4573002975667,left,1,2,1.1850331131136045,Z15R03,2022-10-20_16h10.29.510,t1_Paradigm,2021.1.4,59.98549042591078,
J,left,Pretarget,0,29,29,29,1528.9555066938046,1530.95690891915,left,1,2,0.8054541464662179,Z15R03,2022-10-20_16h10.29.510,t1_Paradigm,2021.1.4,59.98549042591078,
Z,right,Target,0,30,30,30,1532.4554665936157,1534.4571180819767,right,1,2,0.7453246322693303,Z15R03,2022-10-20_16h10.29.510,t1_Paradigm,2021.1.4,59.98549042591078,
J,right,Target,0,31,31,31,1535.955420398037,1537.9572521772934,None,0,2,,Z15R03,2022-10-20_16h10.29.510,t1_Paradigm,2021.1.4,59.98549042591078,
V,left,Pretarget,0,32,32,32,1539.455448628636,1541.4569653803483,left,1,2,0.7053725986042991,Z15R03,2022-10-20_16h10.29.510,t1_Paradigm,2021.1.4,59.98549042591078,
Z,left,Lure,0,33,33,33,1542.9553687489824,1544.9571100620087,left,1,2,1.4453529912279919,Z15R03,2022-10-20_16h10.29.510,t1_Paradigm,2021.1.4,59.98549042591078,
V,right,Target,0,34,34,34,1546.4552936813561,1548.4574635857716,right,1,2,0.8889056419720873,Z15R03,2022-10-20_16h10.29.510,t1_Paradigm,2021.1.4,59.98549042591078,
X,left,Distractor,0,35,35,35,1549.9553761273855,1551.9571867336053,left,1,2,1.1170343271223828,Z15R03,2022-10-20_16h10.29.510,t1_Paradigm,2021.1.4,59.98549042591078,
S,left,Distractor,0,36,36,36,1553.4553815810941,1555.4578591345344,left,1,2,0.5923941707005724,Z15R03,2022-10-20_16h10.29.510,t1_Paradigm,2021.1.4,59.98549042591078,
Q,left,Distractor,0,37,37,37,1556.9553921675542,1558.957521009259,left,1,2,1.061121433856897,Z15R03,2022-10-20_16h10.29.510,t1_Paradigm,2021.1.4,59.98549042591078,
P,left,Distractor,0,38,38,38,1560.455377089791,1562.4572752750246,left,1,2,0.47310236014891416,Z15R03,2022-10-20_16h10.29.510,t1_Paradigm,2021.1.4,59.98549042591078,
S,left,Lure,0,39,39,39,1563.955387355527,1565.957477701013,None,0,2,,Z15R03,2022-10-20_16h10.29.510,t1_Paradigm,2021.1.4,59.98549042591078,
K,left,Pretarget,0,40,40,40,1567.455391525873,1569.4569288088242,left,1,2,0.753339227521792,Z15R03,2022-10-20_16h10.29.510,t1_Paradigm,2021.1.4,59.98549042591078,
L,left,Distractor,0,41,41,41,1570.9554582526907,1572.956698793918,left,1,2,0.7736036453861743,Z15R03,2022-10-20_16h10.29.510,t1_Paradigm,2021.1.4,59.98549042591078,
K,right,Target,0,42,42,42,1574.4553498217138,1576.4571941121249,right,1,2,0.7292014469858259,Z15R03,2022-10-20_16h10.29.510,t1_Paradigm,2021.1.4,59.98549042591078,
B,left,Distractor,0,43,43,43,1577.955213801586,1579.9567485181615,left,1,2,0.7818870724877343,Z15R03,2022-10-20_16h10.29.510,t1_Paradigm,2021.1.4,59.98549042591078,
N,left,Distractor,0,44,44,44,1581.45532255352,1583.456960568321,left,1,2,1.0414299682015553,Z15R03,2022-10-20_16h10.29.510,t1_Paradigm,2021.1.4,59.98549042591078,
S,left,Pretarget,0,45,45,45,1584.9553899219027,1586.957377290004,left,1,2,0.7408901868620887,Z15R03,2022-10-20_16h10.29.510,t1_Paradigm,2021.1.4,59.98549042591078,
Z,left,Distractor,0,46,46,46,1588.4554499118822,1590.4576919967076,left,1,2,0.568617613054812,Z15R03,2022-10-20_16h10.29.510,t1_Paradigm,2021.1.4,59.98549042591078,
S,right,Target,0,47,47,47,1591.9555599469459,1593.9567472349154,right,1,2,1.1015107205603272,Z15R03,2022-10-20_16h10.29.510,t1_Paradigm,2021.1.4,59.98549042591078,
C,left,Distractor,0,48,48,48,1595.4554547239095,1597.4572178514209,left,1,2,0.9614360764389858,Z15R03,2022-10-20_16h10.29.510,t1_Paradigm,2021.1.4,59.98549042591078,
T,left,Pretarget,0,49,49,49,1598.9553748442559,1600.9569515858311,left,1,2,0.8533200435340405,Z15R03,2022-10-20_16h10.29.510,t1_Paradigm,2021.1.4,59.98549042591078,
S,left,Lure,0,50,50,50,1602.4553674657363,1604.457100437954,left,1,2,0.8732598097994924,Z15R03,2022-10-20_16h10.29.510,t1_Paradigm,2021.1.4,59.98549042591078,
T,right,Target,0,51,51,51,1605.9553495008731,1607.957236778806,right,1,2,0.7810321353608742,Z15R03,2022-10-20_16h10.29.510,t1_Paradigm,2021.1.4,59.98549042591078,
N,left,Pretarget,0,52,52,52,1609.4544384232722,1611.457488929038,left,1,2,1.0888477050466463,Z15R03,2022-10-20_16h10.29.510,t1_Paradigm,2021.1.4,59.98549042591078,
B,left,Distractor,0,53,53,53,1612.9554492703173,1614.968557879678,left,1,2,0.9056479750433937,Z15R03,2022-10-20_16h10.29.510,t1_Paradigm,2021.1.4,59.98549042591078,
N,right,Target,0,54,54,54,1616.4554171900963,1618.4567674455466,right,1,2,0.7456848928704858,Z15R03,2022-10-20_16h10.29.510,t1_Paradigm,2021.1.4,59.98549042591078,
N,left,Lure,0,55,55,55,1619.955379014602,1621.9554126987932,left,1,2,1.4388865862274542,Z15R03,2022-10-20_16h10.29.510,t1_Paradigm,2021.1.4,59.98549042591078,
X,left,Distractor,0,56,56,56,1623.4554473455064,1625.4573343025986,left,1,2,1.0731803792295977,Z15R03,2022-10-20_16h10.29.510,t1_Paradigm,2021.1.4,59.98549042591078,
W,left,Distractor,0,57,57,57,1626.955504448153,1628.9571001171134,left,1,2,0.9171047752024606,Z15R03,2022-10-20_16h10.29.510,t1_Paradigm,2021.1.4,59.98549042591078,
S,left,Distractor,0,58,58,58,1630.4553456512513,1632.4573817811906,left,1,2,0.9049685165518895,Z15R03,2022-10-20_16h10.29.510,t1_Paradigm,2021.1.4,59.98549042591078,
L,left,Distractor,0,59,59,59,1633.9555670046248,1635.9576291195117,left,1,2,0.8128306666621938,Z15R03,2022-10-20_16h10.29.510,t1_Paradigm,2021.1.4,59.98549042591078,
K,left,Pretarget,0,60,60,60,1637.4553411599481,1639.4570937011158,left,1,2,0.6892587165348232,Z15R03,2022-10-20_16h10.29.510,t1_Paradigm,2021.1.4,59.98549042591078,
V,left,Pretarget,0,61,61,61,1640.9553774106316,1642.9567985632457,left,1,2,0.6776857860386372,Z15R03,2022-10-20_16h10.29.510,t1_Paradigm,2021.1.4,59.98549042591078,
K,right,Target,0,62,62,62,1644.455367786577,1646.457446904038,right,1,2,0.7610907651251182,Z15R03,2022-10-20_16h10.29.510,t1_Paradigm,2021.1.4,59.98549042591078,
V,right,Target,0,63,63,63,1647.9554024331737,1649.9570654705167,right,1,2,0.7009898023679852,Z15R03,2022-10-20_16h10.29.510,t1_Paradigm,2021.1.4,59.98549042591078,
R,left,Distractor,0,0,0,0,1758.7302292963723,1760.7239162346814,left,1,3,0.4464482091134414,Z15R03,2022-10-20_16h10.29.510,t1_Paradigm,2021.1.4,59.98549042591078,
P,left,Lure,0,1,1,1,1762.2218063202454,1764.2239213675493,left,1,3,1.2502874385099858,Z15R03,2022-10-20_16h10.29.510,t1_Paradigm,2021.1.4,59.98549042591078,
V,left,Distractor,0,2,2,2,1765.7219657588284,1767.7240657284856,left,1,3,0.5821025231853127,Z15R03,2022-10-20_16h10.29.510,t1_Paradigm,2021.1.4,59.98549042591078,
P,left,Pretarget,0,3,3,3,1769.2219048064435,1771.2238132572966,left,1,3,1.1304868361912668,Z15R03,2022-10-20_16h10.29.510,t1_Paradigm,2021.1.4,59.98549042591078,
Z,left,Distractor,0,4,4,4,1772.7219032024732,1774.7238296181895,left,1,3,0.8304892102023587,Z15R03,2022-10-20_16h10.29.510,t1_Paradigm,2021.1.4,59.98549042591078,
L,left,Pretarget,0,5,5,5,1776.2219766661292,1778.2213440446649,left,1,3,0.6288879592902958,Z15R03,2022-10-20_16h10.29.510,t1_Paradigm,2021.1.4,59.98549042591078,
P,right,Target,0,6,6,6,1779.7220565457828,1781.7241379088955,right,1,3,0.7100431543076411,Z15R03,2022-10-20_16h10.29.510,t1_Paradigm,2021.1.4,59.98549042591078,
S,left,Distractor,0,7,7,7,1783.2219946309924,1785.224195974064,left,1,3,1.098076214781031,Z15R03,2022-10-20_16h10.29.510,t1_Paradigm,2021.1.4,59.98549042591078,
L,right,Target,0,8,8,8,1786.7219558139332,1788.7238158236723,right,1,3,0.8465421400032938,Z15R03,2022-10-20_16h10.29.510,t1_Paradigm,2021.1.4,59.98549042591078,
D,left,Distractor,0,9,9,9,1790.2218935784185,1792.224015683285,left,1,3,0.7862114829476923,Z15R03,2022-10-20_16h10.29.510,t1_Paradigm,2021.1.4,59.98549042591078,
G,left,Distractor,0,10,10,10,1793.7220392224845,1795.7241276431596,left,1,3,0.933849353925325,Z15R03,2022-10-20_16h10.29.510,t1_Paradigm,2021.1.4,59.98549042591078,
M,left,Pretarget,0,11,11,11,1797.221966721234,1799.2234010268003,left,1,3,0.6189251338364556,Z15R03,2022-10-20_16h10.29.510,t1_Paradigm,2021.1.4,59.98549042591078,
Y,left,Distractor,0,12,12,12,1800.721941057127,1802.7238819089253,left,1,3,0.7982919220812619,Z15R03,2022-10-20_16h10.29.510,t1_Paradigm,2021.1.4,59.98549042591078,
V,left,Distractor,0,13,13,13,1804.2219426610973,1806.2237147710985,left,1,3,0.7864678036421537,Z15R03,2022-10-20_16h10.29.510,t1_Paradigm,2021.1.4,59.98549042591078,
M,right,Target,0,14,14,14,1807.7220629617805,1809.7234837936703,right,1,3,0.8388088879873976,Z15R03,2022-10-20_16h10.29.510,t1_Paradigm,2021.1.4,59.98549042591078,
S,left,Pretarget,0,15,15,15,1811.221964796423,1813.2235996031668,left,1,3,0.6826254945481196,Z15R03,2022-10-20_16h10.29.510,t1_Paradigm,2021.1.4,59.98549042591078,
Q,left,Distractor,0,16,16,16,1814.7220004054252,1816.7238799841143,left,1,3,0.7183467920403928,Z15R03,2022-10-20_16h10.29.510,t1_Paradigm,2021.1.4,59.98549042591078,
R,left,Pretarget,0,17,17,17,1818.2219747413183,1820.2243217283394,left,1,3,0.594307754188776,Z15R03,2022-10-20_16h10.29.510,t1_Paradigm,2021.1.4,59.98549042591078,
S,right,Target,0,18,18,18,1821.7221155733569,1823.7236015279777,right,1,3,0.9024960958631709,Z15R03,2022-10-20_16h10.29.510,t1_Paradigm,2021.1.4,59.98549042591078,
F,left,Distractor,0,19,19,19,1825.2219994430197,1827.2241132070776,left,1,3,1.1143857861170545,Z15R03,2022-10-20_16h10.29.510,t1_Paradigm,2021.1.4,59.98549042591078,
R,right,Target,0,20,20,20,1828.7219330370426,1830.7238774177385,right,1,3,0.7662755663041025,Z15R03,2022-10-20_16h10.29.510,t1_Paradigm,2021.1.4,59.98549042591078,
P,left,Distractor,0,21,21,21,1832.2220071422635,1834.223694239743,left,1,3,0.9626807878958061,Z15R03,2022-10-20_16h10.29.510,t1_Paradigm,2021.1.4,59.98549042591078,
L,left,Distractor,0,22,22,22,1835.7219686460448,1837.7237359440187,left,1,3,1.0144405791070312,Z15R03,2022-10-20_16h10.29.510,t1_Paradigm,2021.1.4,59.98549042591078,
R,right,Target,0,23,23,23,1839.2220347312978,1841.2239014778752,right,1,3,0.8263325792504475,Z15R03,2022-10-20_16h10.29.510,t1_Paradigm,2021.1.4,59.98549042591078,
H,left,Pretarget,0,24,24,24,1842.72210049571,1844.7235213274835,left,1,3,1.374800621648319,Z15R03,2022-10-20_16h10.29.510,t1_Paradigm,2021.1.4,59.98549042591078,
G,left,Pretarget,0,25,25,25,1846.222366119735,1848.223854319891,left,1,3,0.7703584127593786,Z15R03,2022-10-20_16h10.29.510,t1_Paradigm,2021.1.4,59.98549042591078,
T,left,Distractor,0,26,26,26,1849.7219766661292,1851.7240163249662,left,1,3,0.4702148218639195,Z15R03,2022-10-20_16h10.29.510,t1_Paradigm,2021.1.4,59.98549042591078,
H,right,Target,0,27,27,27,1853.222052696161,1855.224055141909,right,1,3,0.7783146220026538,Z15R03,2022-10-20_16h10.29.510,t1_Paradigm,2021.1.4,59.98549042591078,
G,right,Target,0,28,28,28,1856.7218059995212,1858.7241549113533,right,1,3,0.86216744070407,Z15R03,2022-10-20_16h10.29.510,t1_Paradigm,2021.1.4,59.98549042591078,
D,left,Distractor,0,29,29,29,1860.221950360341,1862.2224411873613,left,1,3,0.8037651242921129,Z15R03,2022-10-20_16h10.29.510,t1_Paradigm,2021.1.4,59.98549042591078,
N,left,Pretarget,0,30,30,30,1863.722047563293,1865.7237882347545,left,1,3,1.094674110179767,Z15R03,2022-10-20_16h10.29.510,t1_Paradigm,2021.1.4,59.98549042591078,
V,left,Distractor,0,31,31,31,1867.2220177287236,1869.2238610567292,left,1,3,1.1785262871999294,Z15R03,2022-10-20_16h10.29.510,t1_Paradigm,2021.1.4,59.98549042591078,
R,left,Distractor,0,32,32,32,1870.7221008164342,1872.7237670618342,left,1,3,0.7984863279853016,Z15R03,2022-10-20_16h10.29.510,t1_Paradigm,2021.1.4,59.98549042591078,
N,right,Target,0,33,33,33,1874.22190769366,1876.2240246657748,right,1,3,0.5142028648406267,Z15R03,2022-10-20_16h10.29.510,t1_Paradigm,2021.1.4,59.98549042591078,
Z,left,Distractor,0,34,34,34,1877.7219846862135,1879.72368686134,left,1,3,0.6786610239651054,Z15R03,2022-10-20_16h10.29.510,t1_Paradigm,2021.1.4,59.98549042591078,
N,left,Lure,0,35,35,35,1881.221869518282,1883.2236204553628,left,1,3,0.6188468581531197,Z15R03,2022-10-20_16h10.29.510,t1_Paradigm,2021.1.4,59.98549042591078,
Y,left,Pretarget,0,36,36,36,1884.7221348214662,1886.7233423200669,left,1,3,0.8629954304778948,Z15R03,2022-10-20_16h10.29.510,t1_Paradigm,2021.1.4,59.98549042591078,
Y,left,Lure,0,37,37,37,1888.2220013678307,1890.222102420521,left,1,3,0.5642245510825887,Z15R03,2022-10-20_16h10.29.510,t1_Paradigm,2021.1.4,59.98549042591078,
B,left,Distractor,0,38,38,38,1891.7219657588284,1893.7239281043876,left,1,3,0.662431653123349,Z15R03,2022-10-20_16h10.29.510,t1_Paradigm,2021.1.4,59.98549042591078,
Y,right,Target,0,39,39,39,1895.2218518741429,1897.2210665509338,left,0,3,0.7653041779994965,Z15R03,2022-10-20_16h10.29.510,t1_Paradigm,2021.1.4,59.98549042591078,
J,left,Distractor,0,40,40,40,1898.7221527863294,1900.7238164653536,left,1,3,0.7503782254643738,Z15R03,2022-10-20_16h10.29.510,t1_Paradigm,2021.1.4,59.98549042591078,
X,left,Distractor,0,41,41,41,1902.2219798741862,1904.2239810366882,left,1,3,0.7542358689242974,Z15R03,2022-10-20_16h10.29.510,t1_Paradigm,2021.1.4,59.98549042591078,
W,left,Pretarget,0,42,42,42,1905.7220664906781,1907.7239553725813,left,1,3,1.0464819574262947,Z15R03,2022-10-20_16h10.29.510,t1_Paradigm,2021.1.4,59.98549042591078,
S,left,Pretarget,0,43,43,43,1909.2219388114754,1911.2240079840412,left,1,3,0.7143576197559014,Z15R03,2022-10-20_16h10.29.510,t1_Paradigm,2021.1.4,59.98549042591078,
R,left,Distractor,0,44,44,44,1912.7219975182088,1914.723764495342,left,1,3,1.18246413115412,Z15R03,2022-10-20_16h10.29.510,t1_Paradigm,2021.1.4,59.98549042591078,
W,right,Target,0,45,45,45,1916.2219436235027,1918.2239730167203,right,1,3,0.6583828116999939,Z15R03,2022-10-20_16h10.29.510,t1_Paradigm,2021.1.4,59.98549042591078,
S,right,Target,0,46,46,46,1919.7221107613295,1921.7237863099435,right,1,3,1.078612197889015,Z15R03,2022-10-20_16h10.29.510,t1_Paradigm,2021.1.4,59.98549042591078,
D,left,Distractor,0,47,47,47,1923.2219545308035,1925.2239393324126,left,1,3,0.9862780171679333,Z15R03,2022-10-20_16h10.29.510,t1_Paradigm,2021.1.4,59.98549042591078,
T,left,Distractor,0,48,48,48,1926.7219542099629,1928.723755192128,left,1,3,1.2305058276979253,Z15R03,2022-10-20_16h10.29.510,t1_Paradigm,2021.1.4,59.98549042591078,
S,right,Target,0,49,49,49,1930.2219526059926,1932.2240820893785,right,1,3,0.8020985580515116,Z15R03,2022-10-20_16h10.29.510,t1_Paradigm,2021.1.4,59.98549042591078,
K,left,Distractor,0,50,50,50,1933.7219487563707,1935.7242498687701,left,1,3,0.9177845545345917,Z15R03,2022-10-20_16h10.29.510,t1_Paradigm,2021.1.4,59.98549042591078,
S,left,Lure,0,51,51,51,1937.2219994430197,1939.2241950116586,None,0,3,,Z15R03,2022-10-20_16h10.29.510,t1_Paradigm,2021.1.4,59.98549042591078,
T,left,Pretarget,0,52,52,52,1940.7220174079994,1942.7239717334742,None,0,3,,Z15R03,2022-10-20_16h10.29.510,t1_Paradigm,2021.1.4,59.98549042591078,
V,left,Distractor,0,53,53,53,1944.221861177357,1946.2241436833283,left,1,3,1.3781995183089748,Z15R03,2022-10-20_16h10.29.510,t1_Paradigm,2021.1.4,59.98549042591078,
B,left,Distractor,0,54,54,54,1947.722011312726,1949.7237372272648,left,1,3,1.046711330767721,Z15R03,2022-10-20_16h10.29.510,t1_Paradigm,2021.1.4,59.98549042591078,
T,right,Target,0,55,55,55,1951.2218403252773,1953.2241882748203,right,1,3,0.6339819735148922,Z15R03,2022-10-20_16h10.29.510,t1_Paradigm,2021.1.4,59.98549042591078,
Y,left,Pretarget,0,56,56,56,1954.722073548357,1956.724011833663,left,1,3,0.8463512627640739,Z15R03,2022-10-20_16h10.29.510,t1_Paradigm,2021.1.4,59.98549042591078,
T,left,Lure,0,57,57,57,1958.2218887663912,1960.2232123952126,left,1,3,1.0910859402501956,Z15R03,2022-10-20_16h10.29.510,t1_Paradigm,2021.1.4,59.98549042591078,
P,left,Pretarget,0,58,58,58,1961.7217395934276,1963.723175823805,left,1,3,0.9830327846575528,Z15R03,2022-10-20_16h10.29.510,t1_Paradigm,2021.1.4,59.98549042591078,
Y,right,Target,0,59,59,59,1965.2219125056872,1967.2237494176952,right,1,3,1.1306680892594159,Z15R03,2022-10-20_16h10.29.510,t1_Paradigm,2021.1.4,59.98549042591078,
R,left,Distractor,0,60,60,60,1968.721975382883,1970.7240310817724,left,1,3,0.8943143627839163,Z15R03,2022-10-20_16h10.29.510,t1_Paradigm,2021.1.4,59.98549042591078,
P,right,Target,0,61,61,61,1972.2219205257716,1974.2242043148726,right,1,3,0.5460652357432991,Z15R03,2022-10-20_16h10.29.510,t1_Paradigm,2021.1.4,59.98549042591078,
L,left,Distractor,0,62,62,62,1975.7219179593958,1977.7238228813512,left,1,3,1.0306032231310382,Z15R03,2022-10-20_16h10.29.510,t1_Paradigm,2021.1.4,59.98549042591078,
V,left,Distractor,0,63,63,63,1979.2219173177145,1981.222424184787,left,1,3,0.9238592603942379,Z15R03,2022-10-20_16h10.29.510,t1_Paradigm,2021.1.4,59.98549042591078,
H,left,Lure,0,0,0,0,2011.7710125278682,2013.7738349435385,None,0,3,,Z15R03,2022-10-20_16h10.29.510,t1_Paradigm,2021.1.4,59.98549042591078,
B,left,Distractor,0,1,1,1,2015.2716955152573,2017.2740431439597,left,1,3,0.37662694707978517,Z15R03,2022-10-20_16h10.29.510,t1_Paradigm,2021.1.4,59.98549042591078,
T,left,Distractor,0,2,2,2,2018.7719624225283,2020.773165429826,left,1,3,0.4453228358179331,Z15R03,2022-10-20_16h10.29.510,t1_Paradigm,2021.1.4,59.98549042591078,
R,left,Distractor,0,3,3,3,2022.2721244274871,2024.2739616603358,left,1,3,0.8002151297405362,Z15R03,2022-10-20_16h10.29.510,t1_Paradigm,2021.1.4,59.98549042591078,
H,left,Pretarget,0,4,4,4,2025.7719364375807,2027.7726075552637,left,1,3,0.8693643116857857,Z15R03,2022-10-20_16h10.29.510,t1_Paradigm,2021.1.4,59.98549042591078,
K,left,Distractor,0,5,5,5,2029.2719486280112,2031.2739491489483,left,1,3,0.8883259528083727,Z15R03,2022-10-20_16h10.29.510,t1_Paradigm,2021.1.4,59.98549042591078,
G,left,Distractor,0,6,6,6,2032.7718899212778,2034.7740441063652,left,1,3,0.7161274841055274,Z15R03,2022-10-20_16h10.29.510,t1_Paradigm,2021.1.4,59.98549042591078,
H,right,Target,0,7,7,7,2036.2719694800908,2038.27327706886,right,1,3,0.7528718190733343,Z15R03,2022-10-20_16h10.29.510,t1_Paradigm,2021.1.4,59.98549042591078,
Y,left,Pretarget,0,8,8,8,2039.7718819011934,2041.7733864623588,left,1,3,0.6289790670853108,Z15R03,2022-10-20_16h10.29.510,t1_Paradigm,2021.1.4,59.98549042591078,
S,left,Distractor,0,9,9,9,2043.271871635574,2045.2720650790725,left,1,3,0.6983030859846622,Z15R03,2022-10-20_16h10.29.510,t1_Paradigm,2021.1.4,59.98549042591078,
P,left,Distractor,0,10,10,10,2046.7718206280842,2048.7740736202104,left,1,3,0.8282946039689705,Z15R03,2022-10-20_16h10.29.510,t1_Paradigm,2021.1.4,59.98549042591078,
Y,right,Target,0,11,11,11,2050.271619806066,2052.2727910539834,right,1,3,0.801362959202379,Z15R03,2022-10-20_16h10.29.510,t1_Paradigm,2021.1.4,59.98549042591078,
H,left,Lure,0,12,12,12,2053.771938683116,2055.77343073301,left,1,3,1.012855175882578,Z15R03,2022-10-20_16h10.29.510,t1_Paradigm,2021.1.4,59.98549042591078,
Q,left,Distractor,0,13,13,13,2057.271924247034,2059.274368757964,left,1,3,0.7602011812850833,Z15R03,2022-10-20_16h10.29.510,t1_Paradigm,2021.1.4,59.98549042591078,
V,left,Pretarget,0,14,14,14,2060.7718976205215,2062.7738994247047,left,1,3,0.9080527063924819,Z15R03,2022-10-20_16h10.29.510,t1_Paradigm,2021.1.4,59.98549042591078,
G,left,Distractor,0,15,15,15,2064.2718065127265,2066.274154141429,left,1,3,0.864332853932865,Z15R03,2022-10-20_16h10.29.510,t1_Paradigm,2021.1.4,59.98549042591078,
Z,left,Pretarget,0,16,16,16,2067.7720525678014,2069.774056296912,left,1,3,0.9158584596589208,Z15R03,2022-10-20_16h10.29.510,t1_Paradigm,2021.1.4,59.98549042591078,
V,right,Target,0,17,17,17,2071.271810041624,2073.273581509944,right,1,3,1.2566935328068212,Z15R03,2022-10-20_16h10.29.510,t1_Paradigm,2021.1.4,59.98549042591078,
N,left,Distractor,0,18,18,18,2074.7718709938927,2076.7736078157322,left,1,3,1.1647565049352124,Z15R03,2022-10-20_16h10.29.510,t1_Paradigm,2021.1.4,59.98549042591078,
Z,right,Target,0,19,19,19,2078.2718963372754,2080.2709666532464,right,1,3,0.48352617816999555,Z15R03,2022-10-20_16h10.29.510,t1_Paradigm,2021.1.4,59.98549042591078,
R,left,Distractor,0,20,20,20,2081.771800096729,2083.773676788085,left,1,3,0.9643168778857216,Z15R03,2022-10-20_16h10.29.510,t1_Paradigm,2021.1.4,59.98549042591078,
P,left,Distractor,0,21,21,21,2085.2718956957106,2087.273755384609,left,1,3,1.0324061301071197,Z15R03,2022-10-20_16h10.29.510,t1_Paradigm,2021.1.4,59.98549042591078,
Z,right,Target,0,22,22,22,2088.772029790911,2090.7736729384633,right,1,3,0.8286644886247814,Z15R03,2022-10-20_16h10.29.510,t1_Paradigm,2021.1.4,59.98549042591078,
D,left,Pretarget,0,23,23,23,2092.2716101820115,2094.273403464933,left,1,3,0.8487848662771285,Z15R03,2022-10-20_16h10.29.510,t1_Paradigm,2021.1.4,59.98549042591078,
K,left,Distractor,0,24,24,24,2095.7886251967866,2097.7741458006203,left,1,3,0.5962004858301952,Z15R03,2022-10-20_16h10.29.510,t1_Paradigm,2021.1.4,59.98549042591078,
W,left,Distractor,0,25,25,25,2099.271932587959,2101.2737752743997,left,1,3,0.5363843952072784,Z15R03,2022-10-20_16h10.29.510,t1_Paradigm,2021.1.4,59.98549042591078,
D,right,Target,0,26,26,26,2102.771846933756,2104.7734223922016,right,1,3,0.9887719316175207,Z15R03,2022-10-20_16h10.29.510,t1_Paradigm,2021.1.4,59.98549042591078,
G,left,Pretarget,0,27,27,27,2106.2719560064143,2108.2732571791857,left,1,3,0.9769070714246482,Z15R03,2022-10-20_16h10.29.510,t1_Paradigm,2021.1.4,59.98549042591078,
V,left,Distractor,0,28,28,28,2109.7719027533894,2111.7709130792646,left,1,3,1.0154177419608459,Z15R03,2022-10-20_16h10.29.510,t1_Paradigm,2021.1.4,59.98549042591078,
D,right,Target,0,29,29,29,2113.272011505207,2115.273672617739,right,1,3,0.7764943917281926,Z15R03,2022-10-20_16h10.29.510,t1_Paradigm,2021.1.4,59.98549042591078,
G,right,Target,0,30,30,30,2116.7718690690817,2118.7732045676094,right,1,3,1.181046828161925,Z15R03,2022-10-20_16h10.29.510,t1_Paradigm,2021.1.4,59.98549042591078,
B,left,Pretarget,0,31,31,31,2120.271910452633,2122.2735555249965,left,1,3,0.5765946744941175,Z15R03,2022-10-20_16h10.29.510,t1_Paradigm,2021.1.4,59.98549042591078,
N,left,Distractor,0,32,32,32,2123.771866502706,2125.7739427329507,left,1,3,1.3161631572293118,Z15R03,2022-10-20_16h10.29.510,t1_Paradigm,2021.1.4,59.98549042591078,
F,left,Distractor,0,33,33,33,2127.2716377709294,2129.27371528442,left,1,3,1.304476021323353,Z15R03,2022-10-20_16h10.29.510,t1_Paradigm,2021.1.4,59.98549042591078,
B,right,Target,0,34,34,34,2130.7719357958995,2132.774080036208,right,1,3,0.7643520378042012,Z15R03,2022-10-20_16h10.29.510,t1_Paradigm,2021.1.4,59.98549042591078,
Q,left,Pretarget,0,35,35,35,2134.271889600437,2136.2737091891468,left,1,3,0.5926142408279702,Z15R03,2022-10-20_16h10.29.510,t1_Paradigm,2021.1.4,59.98549042591078,
S,left,Pretarget,0,36,36,36,2137.771923605469,2139.7741249484243,left,1,3,0.8040371641982347,Z15R03,2022-10-20_16h10.29.510,t1_Paradigm,2021.1.4,59.98549042591078,
W,left,Distractor,0,37,37,37,2141.271900507738,2143.273860286805,left,1,3,0.5683090016245842,Z15R03,2022-10-20_16h10.29.510,t1_Paradigm,2021.1.4,59.98549042591078,
Q,right,Target,0,38,38,38,2144.7718709938927,2146.7737367780646,right,1,3,0.9883972349343821,Z15R03,2022-10-20_16h10.29.510,t1_Paradigm,2021.1.4,59.98549042591078,
S,right,Target,0,39,39,39,2148.2715858010342,2150.272562322207,None,0,3,,Z15R03,2022-10-20_16h10.29.510,t1_Paradigm,2021.1.4,59.98549042591078,
T,left,Distractor,0,40,40,40,2151.7718764476012,2153.772926753154,left,1,3,1.285233357688412,Z15R03,2022-10-20_16h10.29.510,t1_Paradigm,2021.1.4,59.98549042591078,
G,left,Distractor,0,41,41,41,2155.271843404975,2157.2734230337664,left,1,3,1.0650252727791667,Z15R03,2022-10-20_16h10.29.510,t1_Paradigm,2021.1.4,59.98549042591078,
D,left,Distractor,0,42,42,42,2158.771907886141,2160.7736931490945,left,1,3,1.052490898873657,Z15R03,2022-10-20_16h10.29.510,t1_Paradigm,2021.1.4,59.98549042591078,
S,left,Lure,0,43,43,43,2162.2718687483575,2164.2739084071945,None,0,3,,Z15R03,2022-10-20_16h10.29.510,t1_Paradigm,2021.1.4,59.98549042591078,
Z,left,Pretarget,0,44,44,44,2165.770985259791,2167.774130722857,left,1,3,0.7721266731387004,Z15R03,2022-10-20_16h10.29.510,t1_Paradigm,2021.1.4,59.98549042591078,
J,left,Distractor,0,45,45,45,2169.2718353848904,2171.2739327880554,right,0,3,0.6002169263083488,Z15R03,2022-10-20_16h10.29.510,t1_Paradigm,2021.1.4,59.98549042591078,
M,left,Pretarget,0,46,46,46,2172.7718536705943,2174.7739924573107,left,1,3,0.9721219894709066,Z15R03,2022-10-20_16h10.29.510,t1_Paradigm,2021.1.4,59.98549042591078,
Z,right,Target,0,47,47,47,2176.271859445027,2178.271054232144,right,1,3,0.851166500011459,Z15R03,2022-10-20_16h10.29.510,t1_Paradigm,2021.1.4,59.98549042591078,
P,left,Distractor,0,48,48,48,2179.7718485378427,2181.7730621316005,left,1,3,0.9813235518522561,Z15R03,2022-10-20_16h10.29.510,t1_Paradigm,2021.1.4,59.98549042591078,
M,right,Target,0,49,49,49,2183.2718511042185,2185.2738497003447,right,1,3,1.0163121377117932,Z15R03,2022-10-20_16h10.29.510,t1_Paradigm,2021.1.4,59.98549042591078,
K,left,Distractor,0,50,50,50,2186.7720137508586,2188.7738875549985,left,1,3,0.5883873542770743,Z15R03,2022-10-20_16h10.29.510,t1_Paradigm,2021.1.4,59.98549042591078,
Y,left,Distractor,0,51,51,51,2190.2720038059633,2192.2736886577914,left,1,3,0.8324557261075824,Z15R03,2022-10-20_16h10.29.510,t1_Paradigm,2021.1.4,59.98549042591078,
X,left,Distractor,0,52,52,52,2193.7719887283165,2195.7880294675706,left,1,3,0.9820761532755569,Z15R03,2022-10-20_16h10.29.510,t1_Paradigm,2021.1.4,59.98549042591078,
F,left,Pretarget,0,53,53,53,2197.271830252139,2199.273915144033,left,1,3,1.0321892679203302,Z15R03,2022-10-20_16h10.29.510,t1_Paradigm,2021.1.4,59.98549042591078,
M,left,Lure,0,54,54,54,2200.771822552895,2202.772204307141,left,1,3,1.0219537608791143,Z15R03,2022-10-20_16h10.29.510,t1_Paradigm,2021.1.4,59.98549042591078,
V,left,Distractor,0,55,55,55,2204.2716044075787,2206.273551354534,left,1,3,0.9766209160443395,Z15R03,2022-10-20_16h10.29.510,t1_Paradigm,2021.1.4,59.98549042591078,
F,right,Target,0,56,56,56,2207.771870352328,2209.7732427431038,right,1,3,1.1249343960080296,Z15R03,2022-10-20_16h10.29.510,t1_Paradigm,2021.1.4,59.98549042591078,
S,left,Distractor,0,57,57,57,2211.2718247984303,2213.274064958561,left,1,3,0.6962505950359628,Z15R03,2022-10-20_16h10.29.510,t1_Paradigm,2021.1.4,59.98549042591078,
D,left,Distractor,0,58,58,58,2214.7718780515715,2216.7738586828345,left,1,3,0.7644498823210597,Z15R03,2022-10-20_16h10.29.510,t1_Paradigm,2021.1.4,59.98549042591078,
F,right,Target,0,59,59,59,2218.2718950541457,2220.273589850869,right,1,3,0.5447210755664855,Z15R03,2022-10-20_16h10.29.510,t1_Paradigm,2021.1.4,59.98549042591078,
V,left,Pretarget,0,60,60,60,2221.7719155853847,2223.7730297306553,left,1,3,0.869042226462625,Z15R03,2022-10-20_16h10.29.510,t1_Paradigm,2021.1.4,59.98549042591078,
J,left,Distractor,0,61,61,61,2225.271758713294,2227.274060467258,left,1,3,0.6481357556767762,Z15R03,2022-10-20_16h10.29.510,t1_Paradigm,2021.1.4,59.98549042591078,
V,left,Lure,0,62,62,62,2228.7717853398062,2230.773346041329,right,0,3,1.1809711188543588,Z15R03,2022-10-20_16h10.29.510,t1_Paradigm,2021.1.4,59.98549042591078,
V,right,Target,0,63,63,63,2232.2718151743757,2234.271814532811,None,0,3,,Z15R03,2022-10-20_16h10.29.510,t1_Paradigm,2021.1.4,59.98549042591078,
R,left,Distractor,0,0,0,0,2327.0152493207715,2329.007129502599,left,1,4,0.49889515805989504,Z15R03,2022-10-20_16h10.29.510,t1_Paradigm,2021.1.4,59.98549042591078,
F,left,Distractor,0,1,1,1,2330.5050978638465,2332.5072093822528,left,1,4,0.59892569843214,Z15R03,2022-10-20_16h10.29.510,t1_Paradigm,2021.1.4,59.98549042591078,
P,left,Pretarget,0,2,2,2,2334.005220410181,2336.005878374912,left,1,4,0.6042779581621289,Z15R03,2022-10-20_16h10.29.510,t1_Paradigm,2021.1.4,59.98549042591078,
H,left,Distractor,0,3,3,3,2337.505080540548,2339.506966855959,left,1,4,0.8792928113834932,Z15R03,2022-10-20_16h10.29.510,t1_Paradigm,2021.1.4,59.98549042591078,
Z,left,Distractor,0,4,4,4,2341.0052271470195,2343.0076042894507,left,1,4,1.0425239029573277,Z15R03,2022-10-20_16h10.29.510,t1_Paradigm,2021.1.4,59.98549042591078,
T,left,Distractor,0,5,5,5,2344.5050260041608,2346.5073803697014,left,1,4,0.7427434597630054,Z15R03,2022-10-20_16h10.29.510,t1_Paradigm,2021.1.4,59.98549042591078,
P,right,Target,0,6,6,6,2348.004219187307,2350.006737161777,right,1,4,0.8115397596266121,Z15R03,2022-10-20_16h10.29.510,t1_Paradigm,2021.1.4,59.98549042591078,
G,left,Distractor,0,7,7,7,2351.5049307260197,2353.5067714876495,left,1,4,0.9274827184854075,Z15R03,2022-10-20_16h10.29.510,t1_Paradigm,2021.1.4,59.98549042591078,
L,left,Distractor,0,8,8,8,2355.0051511168713,2357.0075051616877,left,1,4,1.1547099500894547,Z15R03,2022-10-20_16h10.29.510,t1_Paradigm,2021.1.4,59.98549042591078,
P,left,Lure,0,9,9,9,2358.505210465286,2360.506708931178,left,1,4,1.367411590181291,Z15R03,2022-10-20_16h10.29.510,t1_Paradigm,2021.1.4,59.98549042591078,
Q,left,Pretarget,0,10,10,10,2362.004961202154,2364.0074368308997,left,1,4,0.7947525141062215,Z15R03,2022-10-20_16h10.29.510,t1_Paradigm,2021.1.4,59.98549042591078,
D,left,Distractor,0,11,11,11,2365.5051892923657,2367.5071535627358,left,1,4,1.391096398467198,Z15R03,2022-10-20_16h10.29.510,t1_Paradigm,2021.1.4,59.98549042591078,
M,left,Pretarget,0,12,12,12,2369.005129943951,2371.0072722594487,left,1,4,1.1229451030958444,Z15R03,2022-10-20_16h10.29.510,t1_Paradigm,2021.1.4,59.98549042591078,
C,left,Distractor,0,13,13,13,2372.50490217458,2374.5071253321366,left,1,4,0.8713378852698952,Z15R03,2022-10-20_16h10.29.510,t1_Paradigm,2021.1.4,59.98549042591078,
Q,right,Target,0,14,14,14,2376.004976279917,2378.007329041371,right,1,4,1.211020958609879,Z15R03,2022-10-20_16h10.29.510,t1_Paradigm,2021.1.4,59.98549042591078,
R,left,Distractor,0,15,15,15,2379.505180309876,2381.507166074007,left,1,4,0.8790522099006921,Z15R03,2022-10-20_16h10.29.510,t1_Paradigm,2021.1.4,59.98549042591078,
M,right,Target,0,16,16,16,2383.005050385138,2385.006914886064,right,1,4,1.395404768642038,Z15R03,2022-10-20_16h10.29.510,t1_Paradigm,2021.1.4,59.98549042591078,
S,left,Distractor,0,17,17,17,2386.5051222447073,2388.5072629562346,left,1,4,0.9668431933969259,Z15R03,2022-10-20_16h10.29.510,t1_Paradigm,2021.1.4,59.98549042591078,
Z,left,Distractor,0,18,18,18,2390.0051129414933,2392.007376199239,None,0,4,,Z15R03,2022-10-20_16h10.29.510,t1_Paradigm,2021.1.4,59.98549042591078,
L,left,Pretarget,0,19,19,19,2393.50503466581,2395.5068773522507,left,1,4,0.7832100598607212,Z15R03,2022-10-20_16h10.29.510,t1_Paradigm,2021.1.4,59.98549042591078,
M,right,Target,0,20,20,20,2397.0050895229215,2399.0071323898155,right,1,4,0.7549573526484892,Z15R03,2022-10-20_16h10.29.510,t1_Paradigm,2021.1.4,59.98549042591078,
P,left,Distractor,0,21,21,21,2400.505114866304,2402.506432079128,left,1,4,0.9837844236753881,Z15R03,2022-10-20_16h10.29.510,t1_Paradigm,2021.1.4,59.98549042591078,
F,left,Distractor,0,22,22,22,2404.0051860843087,2406.0070987056242,left,1,4,1.0670216233702376,Z15R03,2022-10-20_16h10.29.510,t1_Paradigm,2021.1.4,59.98549042591078,
L,right,Target,0,23,23,23,2407.5051857635844,2409.506909111631,right,1,4,0.7191625913837925,Z15R03,2022-10-20_16h10.29.510,t1_Paradigm,2021.1.4,59.98549042591078,
L,left,Lure,0,24,24,24,2411.0048598287394,2413.005190896336,left,1,4,0.9490832763258368,Z15R03,2022-10-20_16h10.29.510,t1_Paradigm,2021.1.4,59.98549042591078,
V,left,Pretarget,0,25,25,25,2414.5050266457256,2416.507258785772,left,1,4,1.0310895588481799,Z15R03,2022-10-20_16h10.29.510,t1_Paradigm,2021.1.4,59.98549042591078,
Z,left,Distractor,0,26,26,26,2418.005129302386,2420.0073553471593,right,0,4,1.2427755399839953,Z15R03,2022-10-20_16h10.29.510,t1_Paradigm,2021.1.4,59.98549042591078,
H,left,Distractor,0,27,27,27,2421.5052717385115,2423.5179738918087,left,1,4,1.1406055714469403,Z15R03,2022-10-20_16h10.29.510,t1_Paradigm,2021.1.4,59.98549042591078,
X,left,Distractor,0,28,28,28,2425.004862074391,2427.005547628156,left,1,4,0.8685526826884598,Z15R03,2022-10-20_16h10.29.510,t1_Paradigm,2021.1.4,59.98549042591078,
V,right,Target,0,29,29,29,2428.5052794377552,2430.506432720693,left,0,4,1.1597170269815251,Z15R03,2022-10-20_16h10.29.510,t1_Paradigm,2021.1.4,59.98549042591078,
C,left,Distractor,0,30,30,30,2432.0051447008736,2434.0057330516865,left,1,4,0.8765608618268743,Z15R03,2022-10-20_16h10.29.510,t1_Paradigm,2021.1.4,59.98549042591078,
S,left,Pretarget,0,31,31,31,2435.5050962597597,2437.5070682293735,left,1,4,1.0710091915680096,Z15R03,2022-10-20_16h10.29.510,t1_Paradigm,2021.1.4,59.98549042591078,
D,left,Distractor,0,32,32,32,2439.0050802197075,2441.0071545251412,left,1,4,0.8828771315747872,Z15R03,2022-10-20_16h10.29.510,t1_Paradigm,2021.1.4,59.98549042591078,
V,left,Distractor,0,33,33,33,2442.505172610632,2444.506936058984,right,0,4,0.7591778230853379,Z15R03,2022-10-20_16h10.29.510,t1_Paradigm,2021.1.4,59.98549042591078,
R,left,Distractor,0,34,34,34,2446.005022154539,2448.0071558083873,left,1,4,0.8590858171228319,Z15R03,2022-10-20_16h10.29.510,t1_Paradigm,2021.1.4,59.98549042591078,
S,right,Target,0,35,35,35,2449.5050985054113,2451.50727578823,right,1,4,0.8470804456155747,Z15R03,2022-10-20_16h10.29.510,t1_Paradigm,2021.1.4,59.98549042591078,
Y,left,Distractor,0,36,36,36,2453.005064179655,2455.0072222143644,left,1,4,0.9471206100424752,Z15R03,2022-10-20_16h10.29.510,t1_Paradigm,2021.1.4,59.98549042591078,
N,left,Pretarget,0,37,37,37,2456.5050205505686,2458.507255256991,left,1,4,0.9668258699821308,Z15R03,2022-10-20_16h10.29.510,t1_Paradigm,2021.1.4,59.98549042591078,
Z,left,Pretarget,0,38,38,38,2460.004876510473,2462.0055415328825,left,1,4,1.0525540967937559,Z15R03,2022-10-20_16h10.29.510,t1_Paradigm,2021.1.4,59.98549042591078,
P,left,Pretarget,0,39,39,39,2463.50516715704,2465.507221893524,left,1,4,0.9588991745840758,Z15R03,2022-10-20_16h10.29.510,t1_Paradigm,2021.1.4,59.98549042591078,
M,left,Distractor,0,40,40,40,2467.00499264081,2469.006995407399,left,1,4,1.2355202829930931,Z15R03,2022-10-20_16h10.29.510,t1_Paradigm,2021.1.4,59.98549042591078,
N,right,Target,0,41,41,41,2470.5050157385413,2472.5070175427245,left,0,4,1.2071629943093285,Z15R03,2022-10-20_16h10.29.510,t1_Paradigm,2021.1.4,59.98549042591078,
Z,right,Target,0,42,42,42,2474.0049387459876,2476.005516831181,left,0,4,0.9406894932035357,Z15R03,2022-10-20_16h10.29.510,t1_Paradigm,2021.1.4,59.98549042591078,
P,right,Target,0,43,43,43,2477.504853412742,2479.5069527407177,right,1,4,0.9431988061405718,Z15R03,2022-10-20_16h10.29.510,t1_Paradigm,2021.1.4,59.98549042591078,
X,left,Pretarget,0,44,44,44,2481.0051013926277,2483.006707648048,None,0,4,,Z15R03,2022-10-20_16h10.29.510,t1_Paradigm,2021.1.4,59.98549042591078,
Z,left,Lure,0,45,45,45,2484.5050776533317,2486.5066377131734,right,0,4,1.351394590223208,Z15R03,2022-10-20_16h10.29.510,t1_Paradigm,2021.1.4,59.98549042591078,
R,left,Pretarget,0,46,46,46,2488.004957352532,2490.004162726109,left,1,4,1.0059566505951807,Z15R03,2022-10-20_16h10.29.510,t1_Paradigm,2021.1.4,59.98549042591078,
K,left,Distractor,0,47,47,47,2491.505006435211,2493.507066946244,left,1,4,1.2791711632162333,Z15R03,2022-10-20_16h10.29.510,t1_Paradigm,2021.1.4,59.98549042591078,
X,right,Target,0,48,48,48,2495.0050247209147,2497.0042965004686,right,1,4,1.3178723901510239,Z15R03,2022-10-20_16h10.29.510,t1_Paradigm,2021.1.4,59.98549042591078,
B,left,Distractor,0,49,49,49,2498.5050041896757,2500.5072196478723,left,1,4,0.550889776321128,Z15R03,2022-10-20_16h10.29.510,t1_Paradigm,2021.1.4,59.98549042591078,
R,right,Target,0,50,50,50,2502.0051732523134,2504.0073508559726,right,1,4,0.5548526428174227,Z15R03,2022-10-20_16h10.29.510,t1_Paradigm,2021.1.4,59.98549042591078,
Y,left,Pretarget,0,51,51,51,2505.5050795781426,2507.5052954778075,left,1,4,0.7528006010688841,Z15R03,2022-10-20_16h10.29.510,t1_Paradigm,2021.1.4,59.98549042591078,
W,left,Pretarget,0,52,52,52,2509.005081182113,2511.006734595401,left,1,4,0.995555930538103,Z15R03,2022-10-20_16h10.29.510,t1_Paradigm,2021.1.4,59.98549042591078,
Z,left,Distractor,0,53,53,53,2512.5049878287828,2514.507334815804,left,1,4,0.8228874871274456,Z15R03,2022-10-20_16h10.29.510,t1_Paradigm,2021.1.4,59.98549042591078,
Q,left,Distractor,0,54,54,54,2516.005162024172,2518.0069280389,left,1,4,0.8911345738451928,Z15R03,2022-10-20_16h10.29.510,t1_Paradigm,2021.1.4,59.98549042591078,
Y,right,Target,0,55,55,55,2519.5041685005417,2521.506932530203,right,1,4,0.7991709193447605,Z15R03,2022-10-20_16h10.29.510,t1_Paradigm,2021.1.4,59.98549042591078,
W,right,Target,0,56,56,56,2523.005140851252,2525.006952099153,right,1,4,0.9953397100325674,Z15R03,2022-10-20_16h10.29.510,t1_Paradigm,2021.1.4,59.98549042591078,
H,left,Pretarget,0,57,57,57,2526.5050426858943,2528.507022033911,left,1,4,0.6150662071304396,Z15R03,2022-10-20_16h10.29.510,t1_Paradigm,2021.1.4,59.98549042591078,
M,left,Distractor,0,58,58,58,2530.0050356282154,2532.00721419428,left,1,4,0.9069921352202073,Z15R03,2022-10-20_16h10.29.510,t1_Paradigm,2021.1.4,59.98549042591078,
R,left,Pretarget,0,59,59,59,2533.505076690926,2535.5071542043006,left,1,4,1.182930898037739,Z15R03,2022-10-20_16h10.29.510,t1_Paradigm,2021.1.4,59.98549042591078,
J,left,Distractor,0,60,60,60,2537.0051270567346,2539.00675352267,left,1,4,1.059448130778037,Z15R03,2022-10-20_16h10.29.510,t1_Paradigm,2021.1.4,59.98549042591078,
H,right,Target,0,61,61,61,2540.5050449314294,2542.5073646503733,right,1,4,0.7908534872112796,Z15R03,2022-10-20_16h10.29.510,t1_Paradigm,2021.1.4,59.98549042591078,
Z,left,Distractor,0,62,62,62,2544.0049740342656,2546.0069697431754,left,1,4,0.8271887997398153,Z15R03,2022-10-20_16h10.29.510,t1_Paradigm,2021.1.4,59.98549042591078,
R,right,Target,0,63,63,63,2547.505070274812,2549.505410004058,left,0,4,0.8488977886736393,Z15R03,2022-10-20_16h10.29.510,t1_Paradigm,2021.1.4,59.98549042591078,
J,left,Pretarget,0,0,0,0,2578.4188868299825,2580.4236654959386,left,1,4,0.5225135602522641,Z15R03,2022-10-20_16h10.29.510,t1_Paradigm,2021.1.4,59.98549042591078,
G,left,Pretarget,0,1,1,1,2581.921487250598,2583.92358786182,left,1,4,0.5906133989337832,Z15R03,2022-10-20_16h10.29.510,t1_Paradigm,2021.1.4,59.98549042591078,
Z,left,Distractor,0,2,2,2,2585.421683260589,2587.4234399721026,left,1,4,0.5948640247806907,Z15R03,2022-10-20_16h10.29.510,t1_Paradigm,2021.1.4,59.98549042591078,
F,left,Distractor,0,3,3,3,2588.92171534081,2590.922581185354,left,1,4,0.5673972824588418,Z15R03,2022-10-20_16h10.29.510,t1_Paradigm,2021.1.4,59.98549042591078,
J,right,Target,0,4,4,4,2592.421722398489,2594.4233501475537,right,1,4,0.8112433385103941,Z15R03,2022-10-20_16h10.29.510,t1_Paradigm,2021.1.4,59.98549042591078,
G,right,Target,0,5,5,5,2595.9216601628577,2597.9238669595215,right,1,4,0.7499185163760558,Z15R03,2022-10-20_16h10.29.510,t1_Paradigm,2021.1.4,59.98549042591078,
H,left,Distractor,0,6,6,6,2599.421511310851,2601.423797666328,left,1,4,0.7383494355017319,Z15R03,2022-10-20_16h10.29.510,t1_Paradigm,2021.1.4,59.98549042591078,
P,left,Distractor,0,7,7,7,2602.9216065889923,2604.923712974647,left,1,4,1.0945425813551992,Z15R03,2022-10-20_16h10.29.510,t1_Paradigm,2021.1.4,59.98549042591078,
G,left,Lure,0,8,8,8,2606.421734588919,2608.4236138467677,left,1,4,0.8905850402079523,Z15R03,2022-10-20_16h10.29.510,t1_Paradigm,2021.1.4,59.98549042591078,
S,left,Distractor,0,9,9,9,2609.921776293195,2611.923373245285,left,1,4,0.7665152053814381,Z15R03,2022-10-20_16h10.29.510,t1_Paradigm,2021.1.4,59.98549042591078,
R,left,Pretarget,0,10,10,10,2613.4216867894866,2615.4218629096868,left,1,4,0.788207512581721,Z15R03,2022-10-20_16h10.29.510,t1_Paradigm,2021.1.4,59.98549042591078,
T,left,Pretarget,0,11,11,11,2616.9217268896755,2618.9233963431325,left,1,4,0.6468839864246547,Z15R03,2022-10-20_16h10.29.510,t1_Paradigm,2021.1.4,59.98549042591078,
X,left,Distractor,0,12,12,12,2620.421707641566,2622.4235419871984,left,1,4,0.6825369531288743,Z15R03,2022-10-20_16h10.29.510,t1_Paradigm,2021.1.4,59.98549042591078,
F,left,Pretarget,0,13,13,13,2623.921752553899,2625.9235852954444,left,1,4,0.6705479425145313,Z15R03,2022-10-20_16h10.29.510,t1_Paradigm,2021.1.4,59.98549042591078,
R,right,Target,0,14,14,14,2627.4216938471654,2629.438526646467,right,1,4,1.427561956574209,Z15R03,2022-10-20_16h10.29.510,t1_Paradigm,2021.1.4,59.98549042591078,
T,right,Target,0,15,15,15,2630.9216402731836,2632.9235500071663,right,1,4,0.8386087075341493,Z15R03,2022-10-20_16h10.29.510,t1_Paradigm,2021.1.4,59.98549042591078,
C,left,Distractor,0,16,16,16,2634.4218908195617,2636.4209014662774,left,1,4,0.8612541174516082,Z15R03,2022-10-20_16h10.29.510,t1_Paradigm,2021.1.4,59.98549042591078,
F,right,Target,0,17,17,17,2637.9219649247825,2639.923374528531,right,1,4,1.054704432375729,Z15R03,2022-10-20_16h10.29.510,t1_Paradigm,2021.1.4,59.98549042591078,
M,left,Distractor,0,18,18,18,2641.4217419674387,2643.423711049836,left,1,4,0.8343561568763107,Z15R03,2022-10-20_16h10.29.510,t1_Paradigm,2021.1.4,59.98549042591078,
N,left,Distractor,0,19,19,19,2644.9216120425845,2646.9236346989637,left,1,4,0.6466077760560438,Z15R03,2022-10-20_16h10.29.510,t1_Paradigm,2021.1.4,59.98549042591078,
R,left,Lure,0,20,20,20,2648.4216957719764,2650.4236731951823,left,1,4,0.7945625993888825,Z15R03,2022-10-20_16h10.29.510,t1_Paradigm,2021.1.4,59.98549042591078,
F,right,Target,0,21,21,21,2651.9217929749284,2653.9239365735557,right,1,4,0.5422249155817553,Z15R03,2022-10-20_16h10.29.510,t1_Paradigm,2021.1.4,59.98549042591078,
P,left,Distractor,0,22,22,22,2655.4216925639194,2657.423003039905,left,1,4,0.6432031048461795,Z15R03,2022-10-20_16h10.29.510,t1_Paradigm,2021.1.4,59.98549042591078,
L,left,Pretarget,0,23,23,23,2658.9216855062405,2660.923602297902,left,1,4,1.1264524308498949,Z15R03,2022-10-20_16h10.29.510,t1_Paradigm,2021.1.4,59.98549042591078,
T,left,Distractor,0,24,24,24,2662.4216094762087,2664.423324483447,left,1,4,1.034775573411025,Z15R03,2022-10-20_16h10.29.510,t1_Paradigm,2021.1.4,59.98549042591078,
F,left,Distractor,0,25,25,25,2665.92176506517,2667.923516322975,right,0,4,1.0066960991825908,Z15R03,2022-10-20_16h10.29.510,t1_Paradigm,2021.1.4,59.98549042591078,
V,left,Distractor,0,26,26,26,2669.4217647443293,2671.4238387289224,left,1,4,0.6904444005340338,Z15R03,2022-10-20_16h10.29.510,t1_Paradigm,2021.1.4,59.98549042591078,
L,right,Target,0,27,27,27,2672.921693205484,2674.923779380624,right,1,4,0.790075221681036,Z15R03,2022-10-20_16h10.29.510,t1_Paradigm,2021.1.4,59.98549042591078,
S,left,Pretarget,0,28,28,28,2676.421670749318,2678.4236517014215,left,1,4,0.8745629072654992,Z15R03,2022-10-20_16h10.29.510,t1_Paradigm,2021.1.4,59.98549042591078,
W,left,Distractor,0,29,29,29,2679.9217102080584,2681.9236071099294,left,1,4,0.8308369595324621,Z15R03,2022-10-20_16h10.29.510,t1_Paradigm,2021.1.4,59.98549042591078,
Q,left,Distractor,0,30,30,30,2683.4217339473544,2685.422313636518,left,1,4,0.7398360316874459,Z15R03,2022-10-20_16h10.29.510,t1_Paradigm,2021.1.4,59.98549042591078,
L,right,Target,0,31,31,31,2686.921826338279,2688.923742488376,right,1,4,0.5503248439636081,Z15R03,2022-10-20_16h10.29.510,t1_Paradigm,2021.1.4,59.98549042591078,
S,right,Target,0,32,32,32,2690.4215963232564,2692.423606789205,left,0,4,0.6504766475409269,Z15R03,2022-10-20_16h10.29.510,t1_Paradigm,2021.1.4,59.98549042591078,
Z,left,Pretarget,0,33,33,33,2693.9218811953906,2695.9235259470297,left,1,4,1.0865491590229794,Z15R03,2022-10-20_16h10.29.510,t1_Paradigm,2021.1.4,59.98549042591078,
F,left,Distractor,0,34,34,34,2697.4216171754524,2699.423732864321,left,1,4,0.9624790034722537,Z15R03,2022-10-20_16h10.29.510,t1_Paradigm,2021.1.4,59.98549042591078,
V,left,Distractor,0,35,35,35,2700.9216640124796,2702.923627320444,left,1,4,0.9984931932995096,Z15R03,2022-10-20_16h10.29.510,t1_Paradigm,2021.1.4,59.98549042591078,
M,left,Distractor,0,36,36,36,2704.421717907302,2706.423796383082,left,1,4,0.8109071381622925,Z15R03,2022-10-20_16h10.29.510,t1_Paradigm,2021.1.4,59.98549042591078,
Z,right,Target,0,37,37,37,2707.9217230400536,2709.922321335762,left,0,4,1.2321403136011213,Z15R03,2022-10-20_16h10.29.510,t1_Paradigm,2021.1.4,59.98549042591078,
H,left,Pretarget,0,38,38,38,2711.421441696817,2713.4239978467813,left,1,4,0.8500340692698956,Z15R03,2022-10-20_16h10.29.510,t1_Paradigm,2021.1.4,59.98549042591078,
L,left,Distractor,0,39,39,39,2714.9214048045687,2716.9231563832145,left,1,4,1.175001636147499,Z15R03,2022-10-20_16h10.29.510,t1_Paradigm,2021.1.4,59.98549042591078,
G,left,Distractor,0,40,40,40,2718.421604985022,2720.4237139370525,left,1,4,0.9224573557730764,Z15R03,2022-10-20_16h10.29.510,t1_Paradigm,2021.1.4,59.98549042591078,
K,left,Distractor,0,41,41,41,2721.9217419674387,2723.923569896957,left,1,4,0.9424583951476961,Z15R03,2022-10-20_16h10.29.510,t1_Paradigm,2021.1.4,59.98549042591078,
H,right,Target,0,42,42,42,2725.421536974958,2727.423733505886,left,0,4,1.0423253264743835,Z15R03,2022-10-20_16h10.29.510,t1_Paradigm,2021.1.4,59.98549042591078,
B,left,Distractor,0,43,43,43,2728.9215122732567,2730.9235657264944,left,1,4,0.8062551890034229,Z15R03,2022-10-20_16h10.29.510,t1_Paradigm,2021.1.4,59.98549042591078,
Z,left,Distractor,0,44,44,44,2732.421675240621,2734.4237614156445,left,1,4,0.9064281653845683,Z15R03,2022-10-20_16h10.29.510,t1_Paradigm,2021.1.4,59.98549042591078,
T,left,Pretarget,0,45,45,45,2735.921734268195,2737.923301064875,left,1,4,0.9110791521379724,Z15R03,2022-10-20_16h10.29.510,t1_Paradigm,2021.1.4,59.98549042591078,
H,right,Target,0,46,46,46,2739.42173490976,2741.423299140064,right,1,4,0.8187254024669528,Z15R03,2022-10-20_16h10.29.510,t1_Paradigm,2021.1.4,59.98549042591078,
F,left,Distractor,0,47,47,47,2742.921736193006,2744.923089014832,left,1,4,1.1910860043717548,Z15R03,2022-10-20_16h10.29.510,t1_Paradigm,2021.1.4,59.98549042591078,
R,left,Distractor,0,48,48,48,2746.4216717117233,2748.423554177629,left,1,4,1.2265022193314508,Z15R03,2022-10-20_16h10.29.510,t1_Paradigm,2021.1.4,59.98549042591078,
T,right,Target,0,49,49,49,2749.921635781997,2751.9237514708657,right,1,4,0.5423891660757363,Z15R03,2022-10-20_16h10.29.510,t1_Paradigm,2021.1.4,59.98549042591078,
H,right,Target,0,50,50,50,2753.4217227193294,2755.423404042376,right,1,4,0.578781581367366,Z15R03,2022-10-20_16h10.29.510,t1_Paradigm,2021.1.4,59.98549042591078,
Y,left,Pretarget,0,51,51,51,2756.921715982491,2758.9221606139326,left,1,4,0.6801014248048887,Z15R03,2022-10-20_16h10.29.510,t1_Paradigm,2021.1.4,59.98549042591078,
H,left,Distractor,0,52,52,52,2760.4216396316187,2762.423783871811,left,1,4,1.0022844306658953,Z15R03,2022-10-20_16h10.29.510,t1_Paradigm,2021.1.4,59.98549042591078,
S,left,Distractor,0,53,53,53,2763.9207577470224,2765.9235025285743,left,1,4,0.8148080898681656,Z15R03,2022-10-20_16h10.29.510,t1_Paradigm,2021.1.4,59.98549042591078,
Q,left,Distractor,0,54,54,54,2767.4216367444023,2769.423687952105,left,1,4,0.7704790342831984,Z15R03,2022-10-20_16h10.29.510,t1_Paradigm,2021.1.4,59.98549042591078,
Y,right,Target,0,55,55,55,2770.921651822049,2772.9235153605696,right,1,4,1.0147408498451114,Z15R03,2022-10-20_16h10.29.510,t1_Paradigm,2021.1.4,59.98549042591078,
R,left,Distractor,0,56,56,56,2774.4215850952314,2776.4236574758543,left,1,4,0.714573840261437,Z15R03,2022-10-20_16h10.29.510,t1_Paradigm,2021.1.4,59.98549042591078,
H,left,Pretarget,0,57,57,57,2777.921693205484,2779.923619942041,left,1,4,1.262595005449839,Z15R03,2022-10-20_16h10.29.510,t1_Paradigm,2021.1.4,59.98549042591078,
J,left,Distractor,0,58,58,58,2781.421734588919,2783.4237075209385,left,1,4,0.8187959789065644,Z15R03,2022-10-20_16h10.29.510,t1_Paradigm,2021.1.4,59.98549042591078,
V,left,Distractor,0,59,59,59,2784.921663050074,2786.923430027324,left,1,4,0.806396662723273,Z15R03,2022-10-20_16h10.29.510,t1_Paradigm,2021.1.4,59.98549042591078,
Y,left,Lure,0,60,60,60,2788.4216957719764,2790.423700463376,left,1,4,1.194553873501718,Z15R03,2022-10-20_16h10.29.510,t1_Paradigm,2021.1.4,59.98549042591078,
H,right,Target,0,61,61,61,2791.9216800526483,2793.9230919020483,right,1,4,1.3911012104945257,Z15R03,2022-10-20_16h10.29.510,t1_Paradigm,2021.1.4,59.98549042591078,
L,left,Distractor,0,62,62,62,2795.4215982480673,2797.4237742477562,left,1,4,1.1862861656118184,Z15R03,2022-10-20_16h10.29.510,t1_Paradigm,2021.1.4,59.98549042591078,
P,left,Distractor,0,63,63,63,2798.921707641566,2800.923611280392,left,1,4,0.9504322486463934,Z15R03,2022-10-20_16h10.29.510,t1_Paradigm,2021.1.4,59.98549042591078,
