Letter,CorrAnswer,Stimulus,finaln_nback_run.thisRepN,finaln_nback_run.thisTrialN,finaln_nback_run.thisN,finaln_nback_run.thisIndex,finaln_fixcross.started,finaln_nback_trial.started,finaln_trial_resp.keys,finaln_trial_resp.corr,finaln_level,finaln_money,finaln_trial_resp.rt,Participant,date,expName,psychopyVersion,frameRate,
F,left,Distractor,0,0,0,0,2475.396731926361,2477.3896454112255,None,0,1,1.47,,Z20J04,2022-10-20_09h15.43.177,t1_Paradigm,2021.1.4,60.070453752061105,
T,left,Pretarget,0,1,1,1,2478.889163566695,2480.8902055314393,None,0,1,1.47,,Z20J04,2022-10-20_09h15.43.177,t1_Paradigm,2021.1.4,60.070453752061105,
B,left,Distractor,0,2,2,2,2482.3891135215526,2484.3903797268867,left,1,1,1.47,0.8525119434343651,Z20J04,2022-10-20_09h15.43.177,t1_Paradigm,2021.1.4,60.070453752061105,
T,right,Target,0,3,3,3,2485.889203025319,2487.8896232759,right,1,1,1.47,0.6495623619412072,Z20J04,2022-10-20_09h15.43.177,t1_Paradigm,2021.1.4,60.070453752061105,
Z,left,Distractor,0,4,4,4,2489.3892623736756,2491.389480518992,left,1,1,1.47,0.4457036277744919,Z20J04,2022-10-20_09h15.43.177,t1_Paradigm,2021.1.4,60.070453752061105,
T,right,Target,0,5,5,5,2492.8891318072565,2494.889487576671,right,1,1,1.47,0.43337649188470095,Z20J04,2022-10-20_09h15.43.177,t1_Paradigm,2021.1.4,60.070453752061105,
L,left,Distractor,0,6,6,6,2496.3893265340594,2498.390072719427,left,1,1,1.47,0.5331635435577482,Z20J04,2022-10-20_09h15.43.177,t1_Paradigm,2021.1.4,60.070453752061105,
T,right,Target,0,7,7,7,2499.8891298824456,2501.8895931204897,left,0,1,1.47,0.7135017201071605,Z20J04,2022-10-20_09h15.43.177,t1_Paradigm,2021.1.4,60.070453752061105,
Z,left,Lure,0,8,8,8,2503.3892610904877,2505.3895305641345,left,1,1,1.47,0.49322081316495314,Z20J04,2022-10-20_09h15.43.177,t1_Paradigm,2021.1.4,60.070453752061105,
J,left,Distractor,0,9,9,9,2506.889341932547,2508.8895485289977,left,1,1,1.47,0.6093633107375354,Z20J04,2022-10-20_09h15.43.177,t1_Paradigm,2021.1.4,60.070453752061105,
D,left,Pretarget,0,10,10,10,2510.3891561882338,2512.389623596682,left,1,1,1.47,0.5172857716679573,Z20J04,2022-10-20_09h15.43.177,t1_Paradigm,2021.1.4,60.070453752061105,
H,left,Distractor,0,11,11,11,2513.8892726393533,2515.8907646892476,left,1,1,1.47,0.6000863598892465,Z20J04,2022-10-20_09h15.43.177,t1_Paradigm,2021.1.4,60.070453752061105,
D,right,Target,0,12,12,12,2517.389249541622,2519.390066944994,right,1,1,1.47,0.41306010412517935,Z20J04,2022-10-20_09h15.43.177,t1_Paradigm,2021.1.4,60.070453752061105,
S,left,Distractor,0,13,13,13,2520.889086894982,2522.88973780215,left,1,1,1.47,0.4330909781274386,Z20J04,2022-10-20_09h15.43.177,t1_Paradigm,2021.1.4,60.070453752061105,
R,left,Pretarget,0,14,14,14,2524.3891035767156,2526.389725290879,left,1,1,1.47,0.5010233582579531,Z20J04,2022-10-20_09h15.43.177,t1_Paradigm,2021.1.4,60.070453752061105,
Z,left,Distractor,0,15,15,15,2527.8892694312963,2529.889373691927,left,1,1,1.47,0.6335059034172446,Z20J04,2022-10-20_09h15.43.177,t1_Paradigm,2021.1.4,60.070453752061105,
R,right,Target,0,16,16,16,2531.389350594196,2533.389489501482,right,1,1,1.47,0.8613936663023196,Z20J04,2022-10-20_09h15.43.177,t1_Paradigm,2021.1.4,60.070453752061105,
T,left,Distractor,0,17,17,17,2534.8891558674513,2536.8895247897017,left,1,1,1.47,0.6094034110428765,Z20J04,2022-10-20_09h15.43.177,t1_Paradigm,2021.1.4,60.070453752061105,
M,left,Distractor,0,18,18,18,2538.389161000261,2540.3895510954317,left,1,1,1.47,0.7414820665144362,Z20J04,2022-10-20_09h15.43.177,t1_Paradigm,2021.1.4,60.070453752061105,
R,left,Lure,0,19,19,19,2541.88915907545,2543.889435285935,left,1,1,1.47,0.7460599103942513,Z20J04,2022-10-20_09h15.43.177,t1_Paradigm,2021.1.4,60.070453752061105,
J,left,Distractor,0,20,20,20,2545.389166133071,2547.39022317552,left,1,1,1.47,0.5406834621098824,Z20J04,2022-10-20_09h15.43.177,t1_Paradigm,2021.1.4,60.070453752061105,
K,left,Distractor,0,21,21,21,2548.8895757971914,2550.8895693811355,left,1,1,1.47,0.5612840803805739,Z20J04,2022-10-20_09h15.43.177,t1_Paradigm,2021.1.4,60.070453752061105,
Z,left,Distractor,0,22,22,22,2552.389195005293,2554.389625521493,left,1,1,1.47,0.6294766308856197,Z20J04,2022-10-20_09h15.43.177,t1_Paradigm,2021.1.4,60.070453752061105,
W,left,Pretarget,0,23,23,23,2555.8892267646734,2557.8896553560626,left,1,1,1.47,0.6171767631312832,Z20J04,2022-10-20_09h15.43.177,t1_Paradigm,2021.1.4,60.070453752061105,
Q,left,Distractor,0,24,24,24,2559.38911320077,2561.3895838172175,left,1,1,1.47,0.637377341336105,Z20J04,2022-10-20_09h15.43.177,t1_Paradigm,2021.1.4,60.070453752061105,
W,right,Target,0,25,25,25,2562.889396468876,2564.889229972672,right,1,1,1.47,0.6258996890974231,Z20J04,2022-10-20_09h15.43.177,t1_Paradigm,2021.1.4,60.070453752061105,
D,left,Pretarget,0,26,26,26,2566.3892315767007,2568.3890557772247,left,1,1,1.47,0.630012370122131,Z20J04,2022-10-20_09h15.43.177,t1_Paradigm,2021.1.4,60.070453752061105,
W,right,Target,0,27,27,27,2569.8895661731367,2571.889167416317,right,1,1,1.47,0.5217465228051879,Z20J04,2022-10-20_09h15.43.177,t1_Paradigm,2021.1.4,60.070453752061105,
D,right,Target,0,28,28,28,2573.389369521523,2575.3892296518898,right,1,1,1.47,0.7818344610277563,Z20J04,2022-10-20_09h15.43.177,t1_Paradigm,2021.1.4,60.070453752061105,
L,left,Pretarget,0,29,29,29,2576.8891067847144,2578.890244027658,left,1,1,1.47,0.5128198876627721,Z20J04,2022-10-20_09h15.43.177,t1_Paradigm,2021.1.4,60.070453752061105,
P,left,Distractor,0,30,30,30,2580.3891099927714,2582.3902783534722,left,1,1,1.47,0.5807073555188254,Z20J04,2022-10-20_09h15.43.177,t1_Paradigm,2021.1.4,60.070453752061105,
L,right,Target,0,31,31,31,2583.889120900014,2585.889573551598,right,1,1,1.47,1.0658311272854917,Z20J04,2022-10-20_09h15.43.177,t1_Paradigm,2021.1.4,60.070453752061105,
R,left,Distractor,0,32,32,32,2587.389205591753,2589.3893579726573,left,1,1,1.47,0.4933773644734174,Z20J04,2022-10-20_09h15.43.177,t1_Paradigm,2021.1.4,60.070453752061105,
V,left,Distractor,0,33,33,33,2590.8890971606597,2592.8895324889454,left,1,1,1.47,0.6574710925342515,Z20J04,2022-10-20_09h15.43.177,t1_Paradigm,2021.1.4,60.070453752061105,
L,left,Lure,0,34,34,34,2594.389132769662,2596.389891145518,left,1,1,1.47,0.8371131289168261,Z20J04,2022-10-20_09h15.43.177,t1_Paradigm,2021.1.4,60.070453752061105,
H,left,Distractor,0,35,35,35,2597.8893961480935,2599.889451646828,left,1,1,1.47,0.7296441536745988,Z20J04,2022-10-20_09h15.43.177,t1_Paradigm,2021.1.4,60.070453752061105,
K,left,Pretarget,0,36,36,36,2601.3895363385673,2603.3893804288236,left,1,1,1.47,0.5736532413284294,Z20J04,2022-10-20_09h15.43.177,t1_Paradigm,2021.1.4,60.070453752061105,
F,left,Distractor,0,37,37,37,2604.889256599243,2606.8894186042016,left,1,1,1.47,0.6416087191319093,Z20J04,2022-10-20_09h15.43.177,t1_Paradigm,2021.1.4,60.070453752061105,
K,right,Target,0,38,38,38,2608.3891080679605,2610.38918377721,right,1,1,1.47,0.5498404331156053,Z20J04,2022-10-20_09h15.43.177,t1_Paradigm,2021.1.4,60.070453752061105,
S,left,Pretarget,0,39,39,39,2611.8891241080128,2613.89065208775,left,1,1,1.47,0.4723949918989092,Z20J04,2022-10-20_09h15.43.177,t1_Paradigm,2021.1.4,60.070453752061105,
W,left,Distractor,0,40,40,40,2615.389579326031,2617.389211366186,left,1,1,1.47,0.7176913936855271,Z20J04,2022-10-20_09h15.43.177,t1_Paradigm,2021.1.4,60.070453752061105,
S,right,Target,0,41,41,41,2618.8895148448064,2620.8890018825186,right,1,1,1.47,0.993627590010874,Z20J04,2022-10-20_09h15.43.177,t1_Paradigm,2021.1.4,60.070453752061105,
F,left,Pretarget,0,42,42,42,2622.389150413801,2624.389814473863,left,1,1,1.47,0.5655876385862939,Z20J04,2022-10-20_09h15.43.177,t1_Paradigm,2021.1.4,60.070453752061105,
Y,left,Distractor,0,43,43,43,2625.889156509016,2627.8909077668795,left,1,1,1.47,0.6159051042050123,Z20J04,2022-10-20_09h15.43.177,t1_Paradigm,2021.1.4,60.070453752061105,
F,right,Target,0,44,44,44,2629.3891500930185,2631.3893002283294,right,1,1,1.47,0.4456070663873106,Z20J04,2022-10-20_09h15.43.177,t1_Paradigm,2021.1.4,60.070453752061105,
F,left,Lure,0,45,45,45,2632.889024659409,2634.8892995867063,left,1,1,1.47,0.8015650644083507,Z20J04,2022-10-20_09h15.43.177,t1_Paradigm,2021.1.4,60.070453752061105,
B,left,Pretarget,0,46,46,46,2636.389192438859,2638.3894664036925,left,1,1,1.47,0.5493768742890097,Z20J04,2022-10-20_09h15.43.177,t1_Paradigm,2021.1.4,60.070453752061105,
W,left,Distractor,0,47,47,47,2639.8890798373614,2641.8886050504516,left,1,1,1.47,0.7786642961436883,Z20J04,2022-10-20_09h15.43.177,t1_Paradigm,2021.1.4,60.070453752061105,
B,right,Target,0,48,48,48,2643.3892899626517,2645.389412188204,right,1,1,1.47,0.877599939412903,Z20J04,2022-10-20_09h15.43.177,t1_Paradigm,2021.1.4,60.070453752061105,
R,left,Pretarget,0,49,49,49,2646.8891802483704,2648.890022995125,left,1,1,1.47,0.5608731330721639,Z20J04,2022-10-20_09h15.43.177,t1_Paradigm,2021.1.4,60.070453752061105,
N,left,Distractor,0,50,50,50,2650.389378824795,2652.3891985340742,left,1,1,1.47,0.613908753672149,Z20J04,2022-10-20_09h15.43.177,t1_Paradigm,2021.1.4,60.070453752061105,
R,right,Target,0,51,51,51,2653.889227085456,2655.889295416302,left,0,1,1.47,0.8096912986948155,Z20J04,2022-10-20_09h15.43.177,t1_Paradigm,2021.1.4,60.070453752061105,
V,left,Distractor,0,52,52,52,2657.3892813010025,2659.3896114061936,left,1,1,1.47,0.6053455871297047,Z20J04,2022-10-20_09h15.43.177,t1_Paradigm,2021.1.4,60.070453752061105,
G,left,Distractor,0,53,53,53,2660.8892806593794,2662.88912731607,left,1,1,1.47,0.7537707061856054,Z20J04,2022-10-20_09h15.43.177,t1_Paradigm,2021.1.4,60.070453752061105,
H,left,Distractor,0,54,54,54,2664.3893339125207,2666.3902818823117,left,1,1,1.47,0.5487221174989827,Z20J04,2022-10-20_09h15.43.177,t1_Paradigm,2021.1.4,60.070453752061105,
V,left,Lure,0,55,55,55,2667.8891385440947,2669.8905959473923,right,0,1,1.47,0.7284671312663704,Z20J04,2022-10-20_09h15.43.177,t1_Paradigm,2021.1.4,60.070453752061105,
L,left,Distractor,0,56,56,56,2671.3891994964797,2673.3891558674513,left,1,1,1.47,0.5897555745905265,Z20J04,2022-10-20_09h15.43.177,t1_Paradigm,2021.1.4,60.070453752061105,
K,left,Distractor,0,57,57,57,2674.8892123285914,2676.8890089401393,left,1,1,1.47,0.7698679066379555,Z20J04,2022-10-20_09h15.43.177,t1_Paradigm,2021.1.4,60.070453752061105,
D,left,Pretarget,0,58,58,58,2678.3891260328237,2680.3901769800577,left,1,1,1.47,0.5493062978493981,Z20J04,2022-10-20_09h15.43.177,t1_Paradigm,2021.1.4,60.070453752061105,
T,left,Pretarget,0,59,59,59,2681.889267827326,2683.8892517872155,None,0,1,1.47,,Z20J04,2022-10-20_09h15.43.177,t1_Paradigm,2021.1.4,60.070453752061105,
D,right,Target,0,60,60,60,2685.389256599243,2687.38912892004,left,0,1,1.47,1.1178058558143675,Z20J04,2022-10-20_09h15.43.177,t1_Paradigm,2021.1.4,60.070453752061105,
T,right,Target,0,61,61,61,2688.889214894967,2690.8897288197186,right,1,1,1.47,0.5133020529756323,Z20J04,2022-10-20_09h15.43.177,t1_Paradigm,2021.1.4,60.070453752061105,
T,left,Lure,0,62,62,62,2692.3892020629137,2694.3893422533874,left,1,1,1.47,1.1256921301828697,Z20J04,2022-10-20_09h15.43.177,t1_Paradigm,2021.1.4,60.070453752061105,
F,left,Distractor,0,63,63,63,2695.8892479375936,2697.889294774679,left,1,1,1.47,0.7461356197018176,Z20J04,2022-10-20_09h15.43.177,t1_Paradigm,2021.1.4,60.070453752061105,
