Letter,CorrAnswer,Stimulus,nback_run.thisRepN,nback_run.thisTrialN,nback_run.thisN,nback_run.thisIndex,fixcross.started,nback_trial.started,trial_resp.keys,trial_resp.corr,currentlevel,trial_resp.rt,Participant,date,expName,psychopyVersion,frameRate,
H,left,Distractor,0,0,0,0,223.9697538294131,225.90710986958584,None,0,1,,Z20J04,2022-10-20_09h15.43.177,t1_Paradigm,2021.1.4,60.070453752061105,
Q,left,Pretarget,0,1,1,1,227.40939622506266,229.40870361367706,left,1,1,0.6186229384038597,Z20J04,2022-10-20_09h15.43.177,t1_Paradigm,2021.1.4,60.070453752061105,
Q,right,Target,0,2,2,2,230.9069584510289,232.90666748367948,right,1,1,0.768548448162619,Z20J04,2022-10-20_09h15.43.177,t1_Paradigm,2021.1.4,60.070453752061105,
T,left,Distractor,0,3,3,3,234.40600919805001,236.40845563373296,left,1,1,0.498802125453949,Z20J04,2022-10-20_09h15.43.177,t1_Paradigm,2021.1.4,60.070453752061105,
Q,left,Lure,0,4,4,4,237.9065680350759,239.90697513276245,left,1,1,0.8404420907609165,Z20J04,2022-10-20_09h15.43.177,t1_Paradigm,2021.1.4,60.070453752061105,
L,left,Distractor,0,5,5,5,241.40685066155856,243.40884444571566,left,1,1,0.5705421040183865,Z20J04,2022-10-20_09h15.43.177,t1_Paradigm,2021.1.4,60.070453752061105,
V,left,Pretarget,0,6,6,6,244.907159273047,246.90850407484686,left,1,1,0.5749701333115809,Z20J04,2022-10-20_09h15.43.177,t1_Paradigm,2021.1.4,60.070453752061105,
V,right,Target,0,7,7,7,248.40653467166703,250.4065840751864,right,1,1,0.4846964636235498,Z20J04,2022-10-20_09h15.43.177,t1_Paradigm,2021.1.4,60.070453752061105,
K,left,Distractor,0,8,8,8,251.90699534327723,253.90857914253138,left,1,1,0.5986478839768097,Z20J04,2022-10-20_09h15.43.177,t1_Paradigm,2021.1.4,60.070453752061105,
G,left,Pretarget,0,9,9,9,255.4065138195292,257.4080645761569,left,1,1,0.5713046502205543,Z20J04,2022-10-20_09h15.43.177,t1_Paradigm,2021.1.4,60.070453752061105,
G,right,Target,0,10,10,10,258.90648783458164,260.9070899798535,right,1,1,0.43244327895808965,Z20J04,2022-10-20_09h15.43.177,t1_Paradigm,2021.1.4,60.070453752061105,
G,right,Target,0,11,11,11,262.4064942506375,264.40680799493566,right,1,1,0.8045318408403546,Z20J04,2022-10-20_09h15.43.177,t1_Paradigm,2021.1.4,60.070453752061105,
P,left,Pretarget,0,12,12,12,265.90689300745726,267.90846718259854,left,1,1,0.5987479741452262,Z20J04,2022-10-20_09h15.43.177,t1_Paradigm,2021.1.4,60.070453752061105,
P,right,Target,0,13,13,13,269.40663187467726,271.4065815087524,right,1,1,0.6368149755871855,Z20J04,2022-10-20_09h15.43.177,t1_Paradigm,2021.1.4,60.070453752061105,
G,left,Lure,0,14,14,14,272.9064814185258,274.90696903748903,left,1,1,0.8002510595833883,Z20J04,2022-10-20_09h15.43.177,t1_Paradigm,2021.1.4,60.070453752061105,
Y,left,Distractor,0,15,15,15,276.40656290220795,278.408470711438,left,1,1,0.5790064635220915,Z20J04,2022-10-20_09h15.43.177,t1_Paradigm,2021.1.4,60.070453752061105,
B,left,Distractor,0,16,16,16,279.9066629924346,281.90837190445745,left,1,1,0.6149622672819532,Z20J04,2022-10-20_09h15.43.177,t1_Paradigm,2021.1.4,60.070453752061105,
T,left,Pretarget,0,17,17,17,283.4068551528035,285.4067149623297,left,1,1,0.46065588598139584,Z20J04,2022-10-20_09h15.43.177,t1_Paradigm,2021.1.4,60.070453752061105,
T,right,Target,0,18,18,18,286.90695011016214,288.90656290220795,right,1,1,0.6088112106081098,Z20J04,2022-10-20_09h15.43.177,t1_Paradigm,2021.1.4,60.070453752061105,
S,left,Distractor,0,19,19,19,290.4069424109184,292.4085220397683,left,1,1,0.4507732610218227,Z20J04,2022-10-20_09h15.43.177,t1_Paradigm,2021.1.4,60.070453752061105,
T,left,Lure,0,20,20,20,293.90653082204517,295.90743291715626,left,1,1,0.6640273220837116,Z20J04,2022-10-20_09h15.43.177,t1_Paradigm,2021.1.4,60.070453752061105,
J,left,Distractor,0,21,21,21,297.40664342354285,299.408326992183,left,1,1,0.5230569987907074,Z20J04,2022-10-20_09h15.43.177,t1_Paradigm,2021.1.4,60.070453752061105,
P,left,Distractor,0,22,22,22,300.90667422051774,302.90801549347816,left,1,1,0.5593730631517246,Z20J04,2022-10-20_09h15.43.177,t1_Paradigm,2021.1.4,60.070453752061105,
F,left,Distractor,0,23,23,23,304.40665208519204,306.4087084257044,left,1,1,0.5146869550226256,Z20J04,2022-10-20_09h15.43.177,t1_Paradigm,2021.1.4,60.070453752061105,
L,left,Distractor,0,24,24,24,307.90655873180367,309.90677880193107,left,1,1,0.45656951068667695,Z20J04,2022-10-20_09h15.43.177,t1_Paradigm,2021.1.4,60.070453752061105,
W,left,Pretarget,0,25,25,25,311.4065683558583,313.42301138077164,left,1,1,0.42821478843688965,Z20J04,2022-10-20_09h15.43.177,t1_Paradigm,2021.1.4,60.070453752061105,
W,right,Target,0,26,26,26,314.90660556888906,316.90692508762004,right,1,1,0.44851128646405414,Z20J04,2022-10-20_09h15.43.177,t1_Paradigm,2021.1.4,60.070453752061105,
V,left,Distractor,0,27,27,27,318.40666684205644,320.40691514278296,left,1,1,0.5645312378183007,Z20J04,2022-10-20_09h15.43.177,t1_Paradigm,2021.1.4,60.070453752061105,
W,left,Lure,0,28,28,28,321.9065709222923,323.9072853482212,left,1,1,0.5839237158652395,Z20J04,2022-10-20_09h15.43.177,t1_Paradigm,2021.1.4,60.070453752061105,
R,left,Pretarget,0,29,29,29,325.4065343508846,327.41965322592296,left,1,1,0.6396309750853106,Z20J04,2022-10-20_09h15.43.177,t1_Paradigm,2021.1.4,60.070453752061105,
R,right,Target,0,30,30,30,328.9064429223072,330.9065256891772,right,1,1,0.41685711609898135,Z20J04,2022-10-20_09h15.43.177,t1_Paradigm,2021.1.4,60.070453752061105,
G,left,Distractor,0,31,31,31,332.4065677142353,334.40685066155856,left,1,1,0.6445982725708745,Z20J04,2022-10-20_09h15.43.177,t1_Paradigm,2021.1.4,60.070453752061105,
R,left,Lure,0,32,32,32,335.90711724798894,337.90692637086613,left,1,1,0.7282303794054314,Z20J04,2022-10-20_09h15.43.177,t1_Paradigm,2021.1.4,60.070453752061105,
S,left,Distractor,0,33,33,33,339.4065183107741,341.4068140901509,left,1,1,0.5563835097709671,Z20J04,2022-10-20_09h15.43.177,t1_Paradigm,2021.1.4,60.070453752061105,
R,left,Lure,0,34,34,34,342.9064592832001,344.906575413479,left,1,1,0.7366809444501996,Z20J04,2022-10-20_09h15.43.177,t1_Paradigm,2021.1.4,60.070453752061105,
P,left,Pretarget,0,35,35,35,346.4065224811784,348.4074935487006,left,1,1,0.5639387166011147,Z20J04,2022-10-20_09h15.43.177,t1_Paradigm,2021.1.4,60.070453752061105,
P,right,Target,0,36,36,36,349.9064432430896,351.90660107764415,right,1,1,0.5846012496040203,Z20J04,2022-10-20_09h15.43.177,t1_Paradigm,2021.1.4,60.070453752061105,
Y,left,Pretarget,0,37,37,37,353.4065638646134,355.4067396640894,left,1,1,0.6844300054945052,Z20J04,2022-10-20_09h15.43.177,t1_Paradigm,2021.1.4,60.070453752061105,
Y,right,Target,0,38,38,38,356.9066094185109,358.9065016290406,right,1,1,0.6887736639473587,Z20J04,2022-10-20_09h15.43.177,t1_Paradigm,2021.1.4,60.070453752061105,
J,left,Distractor,0,39,39,39,360.4065738095087,362.40687375934795,left,1,1,0.6283919994602911,Z20J04,2022-10-20_09h15.43.177,t1_Paradigm,2021.1.4,60.070453752061105,
Y,left,Lure,0,40,40,40,363.9068776089698,365.9066822405439,left,1,1,0.6488553144736215,Z20J04,2022-10-20_09h15.43.177,t1_Paradigm,2021.1.4,60.070453752061105,
T,left,Distractor,0,41,41,41,367.4066354034585,369.4065404460998,left,1,1,0.7169731180765666,Z20J04,2022-10-20_09h15.43.177,t1_Paradigm,2021.1.4,60.070453752061105,
V,left,Distractor,0,42,42,42,370.9068641352933,372.9072195838089,left,1,1,0.6241561304195784,Z20J04,2022-10-20_09h15.43.177,t1_Paradigm,2021.1.4,60.070453752061105,
N,left,Pretarget,0,43,43,43,374.4066636340576,376.4082346012001,left,1,1,0.6431315660011023,Z20J04,2022-10-20_09h15.43.177,t1_Paradigm,2021.1.4,60.070453752061105,
N,right,Target,0,44,44,44,377.9066431027022,379.9066177593777,right,1,1,0.5686468060594052,Z20J04,2022-10-20_09h15.43.177,t1_Paradigm,2021.1.4,60.070453752061105,
N,right,Target,0,45,45,45,381.40684905758826,383.4065471829381,right,1,1,0.4768233420327306,Z20J04,2022-10-20_09h15.43.177,t1_Paradigm,2021.1.4,60.070453752061105,
X,left,Distractor,0,46,46,46,384.9065330676385,386.90843927284004,left,1,1,0.4950163416797295,Z20J04,2022-10-20_09h15.43.177,t1_Paradigm,2021.1.4,60.070453752061105,
Z,left,Distractor,0,47,47,47,388.40686862648,390.40839532297105,left,1,1,0.48279282479779795,Z20J04,2022-10-20_09h15.43.177,t1_Paradigm,2021.1.4,60.070453752061105,
H,left,Pretarget,0,48,48,48,391.90691193478415,393.9072077141609,left,1,1,0.5520937460241839,Z20J04,2022-10-20_09h15.43.177,t1_Paradigm,2021.1.4,60.070453752061105,
H,right,Target,0,49,49,49,395.4064506215509,397.40692220040364,right,1,1,0.5083726102020591,Z20J04,2022-10-20_09h15.43.177,t1_Paradigm,2021.1.4,60.070453752061105,
K,left,Distractor,0,50,50,50,398.90685034077615,400.9064753233106,left,1,1,0.5447595717851073,Z20J04,2022-10-20_09h15.43.177,t1_Paradigm,2021.1.4,60.070453752061105,
V,left,Pretarget,0,51,51,51,402.4066678044619,404.4063611177844,left,1,1,0.5008571828366257,Z20J04,2022-10-20_09h15.43.177,t1_Paradigm,2021.1.4,60.070453752061105,
V,right,Target,0,52,52,52,405.90654846612597,407.90694465657,left,0,1,0.4244598015793599,Z20J04,2022-10-20_09h15.43.177,t1_Paradigm,2021.1.4,60.070453752061105,
R,left,Distractor,0,53,53,53,409.40650515788,411.4068160149618,left,1,1,0.6204508679220453,Z20J04,2022-10-20_09h15.43.177,t1_Paradigm,2021.1.4,60.070453752061105,
V,left,Lure,0,54,54,54,412.9068112029345,414.9076356639853,left,1,1,0.6237406919826753,Z20J04,2022-10-20_09h15.43.177,t1_Paradigm,2021.1.4,60.070453752061105,
Y,left,Distractor,0,55,55,55,416.4064759648754,418.4068452079664,left,1,1,0.6283390671014786,Z20J04,2022-10-20_09h15.43.177,t1_Paradigm,2021.1.4,60.070453752061105,
Q,left,Distractor,0,56,56,56,419.90649392979685,421.9073883256642,left,1,1,0.5199099316378124,Z20J04,2022-10-20_09h15.43.177,t1_Paradigm,2021.1.4,60.070453752061105,
Z,left,Pretarget,0,57,57,57,423.406460566388,425.40687375934795,left,1,1,0.4764916328131221,Z20J04,2022-10-20_09h15.43.177,t1_Paradigm,2021.1.4,60.070453752061105,
Z,right,Target,0,58,58,58,426.9065003458527,428.9067778395256,right,1,1,0.5766476067365147,Z20J04,2022-10-20_09h15.43.177,t1_Paradigm,2021.1.4,60.070453752061105,
B,left,Distractor,0,59,59,59,430.4068994234549,432.4068294886383,left,1,1,0.9965943664428778,Z20J04,2022-10-20_09h15.43.177,t1_Paradigm,2021.1.4,60.070453752061105,
S,left,Pretarget,0,60,60,60,433.906519593962,435.90694882697426,left,1,1,0.7443638304830529,Z20J04,2022-10-20_09h15.43.177,t1_Paradigm,2021.1.4,60.070453752061105,
S,right,Target,0,61,61,61,437.40653948369436,439.40665529319085,right,1,1,0.8608017867663875,Z20J04,2022-10-20_09h15.43.177,t1_Paradigm,2021.1.4,60.070453752061105,
T,left,Distractor,0,62,62,62,440.90647019044263,442.90645992482314,left,1,1,0.8167890419135801,Z20J04,2022-10-20_09h15.43.177,t1_Paradigm,2021.1.4,60.070453752061105,
D,left,Distractor,0,63,63,63,444.4066841653548,446.4193869603332,left,1,1,0.5361120342859067,Z20J04,2022-10-20_09h15.43.177,t1_Paradigm,2021.1.4,60.070453752061105,
R,left,Distractor,0,0,0,0,470.69724893081,472.6903427063371,None,0,1,,Z20J04,2022-10-20_09h15.43.177,t1_Paradigm,2021.1.4,60.070453752061105,
V,left,Distractor,0,1,1,1,474.189909623703,476.19048129278235,left,1,1,0.44471331214299425,Z20J04,2022-10-20_09h15.43.177,t1_Paradigm,2021.1.4,60.070453752061105,
N,left,Pretarget,0,2,2,2,477.68983134801965,479.69066607468994,left,1,1,0.49680609576171264,Z20J04,2022-10-20_09h15.43.177,t1_Paradigm,2021.1.4,60.070453752061105,
N,right,Target,0,3,3,3,481.1899343254627,483.1898156287498,right,1,1,0.4853685437119566,Z20J04,2022-10-20_09h15.43.177,t1_Paradigm,2021.1.4,60.070453752061105,
S,left,Distractor,0,4,4,4,484.68978419015184,486.68982685677474,left,1,1,0.6013564147870056,Z20J04,2022-10-20_09h15.43.177,t1_Paradigm,2021.1.4,60.070453752061105,
N,left,Lure,0,5,5,5,488.1897848317167,490.1899006412714,left,1,1,0.4613215500721708,Z20J04,2022-10-20_09h15.43.177,t1_Paradigm,2021.1.4,60.070453752061105,
Z,left,Distractor,0,6,6,6,491.689895187621,493.69010980409803,left,1,1,0.48130494536599144,Z20J04,2022-10-20_09h15.43.177,t1_Paradigm,2021.1.4,60.070453752061105,
L,left,Pretarget,0,7,7,7,495.1898246111814,497.190915979445,left,1,1,0.5162710751174018,Z20J04,2022-10-20_09h15.43.177,t1_Paradigm,2021.1.4,60.070453752061105,
L,right,Target,0,8,8,8,498.68974601471564,500.68990609486355,right,1,1,0.5373593122931197,Z20J04,2022-10-20_09h15.43.177,t1_Paradigm,2021.1.4,60.070453752061105,
H,left,Distractor,0,9,9,9,502.1900084306835,504.19003986928146,left,1,1,0.5253292390261777,Z20J04,2022-10-20_09h15.43.177,t1_Paradigm,2021.1.4,60.070453752061105,
L,left,Lure,0,10,10,10,505.68985027534654,507.6901008216664,left,1,1,0.5293097497196868,Z20J04,2022-10-20_09h15.43.177,t1_Paradigm,2021.1.4,60.070453752061105,
X,left,Pretarget,0,11,11,11,509.18980215507327,511.1916028163978,left,1,1,0.4995707669877447,Z20J04,2022-10-20_09h15.43.177,t1_Paradigm,2021.1.4,60.070453752061105,
X,right,Target,0,12,12,12,512.6897575635812,514.6901909669978,right,1,1,0.5371180691872723,Z20J04,2022-10-20_09h15.43.177,t1_Paradigm,2021.1.4,60.070453752061105,
X,right,Target,0,13,13,13,516.1899792377371,518.1897809820948,right,1,1,0.44543158769374713,Z20J04,2022-10-20_09h15.43.177,t1_Paradigm,2021.1.4,60.070453752061105,
R,left,Distractor,0,14,14,14,519.6898252528044,521.6903061349294,left,1,1,0.4490691610262729,Z20J04,2022-10-20_09h15.43.177,t1_Paradigm,2021.1.4,60.070453752061105,
T,left,Distractor,0,15,15,15,523.1901341850753,525.1911443904391,left,1,1,0.516079235530924,Z20J04,2022-10-20_09h15.43.177,t1_Paradigm,2021.1.4,60.070453752061105,
V,left,Pretarget,0,16,16,16,526.6897492227145,528.6906814731774,left,1,1,0.5204892999609001,Z20J04,2022-10-20_09h15.43.177,t1_Paradigm,2021.1.4,60.070453752061105,
V,right,Target,0,17,17,17,530.1900857439614,532.1897681500413,right,1,1,0.5095884496113285,Z20J04,2022-10-20_09h15.43.177,t1_Paradigm,2021.1.4,60.070453752061105,
N,left,Distractor,0,18,18,18,533.6899176437291,535.6901620948338,left,1,1,0.4652898702188395,Z20J04,2022-10-20_09h15.43.177,t1_Paradigm,2021.1.4,60.070453752061105,
B,left,Distractor,0,19,19,19,537.1899388166494,539.1896985360072,left,1,1,0.581741941801738,Z20J04,2022-10-20_09h15.43.177,t1_Paradigm,2021.1.4,60.070453752061105,
V,left,Lure,0,20,20,20,540.6896914783865,542.6899834081414,left,1,1,0.489336543076206,Z20J04,2022-10-20_09h15.43.177,t1_Paradigm,2021.1.4,60.070453752061105,
P,left,Distractor,0,21,21,21,544.1901826261892,546.1905871574418,left,1,1,0.49278067279374227,Z20J04,2022-10-20_09h15.43.177,t1_Paradigm,2021.1.4,60.070453752061105,
K,left,Pretarget,0,22,22,22,547.6902236887836,549.6897158593056,left,1,1,0.561548100435175,Z20J04,2022-10-20_09h15.43.177,t1_Paradigm,2021.1.4,60.070453752061105,
K,right,Target,0,23,23,23,551.1899683304364,553.1897713580402,right,1,1,0.8055067579844035,Z20J04,2022-10-20_09h15.43.177,t1_Paradigm,2021.1.4,60.070453752061105,
J,left,Pretarget,0,24,24,24,554.6897591676097,556.69066607469,left,1,1,0.9206246142275631,Z20J04,2022-10-20_09h15.43.177,t1_Paradigm,2021.1.4,60.070453752061105,
J,right,Target,0,25,25,25,558.1900286411983,560.1897829069057,right,1,1,0.669466519204434,Z20J04,2022-10-20_09h15.43.177,t1_Paradigm,2021.1.4,60.070453752061105,
H,left,Distractor,0,26,26,26,561.6897335034446,563.6913147362648,left,1,1,0.41588059498462826,Z20J04,2022-10-20_09h15.43.177,t1_Paradigm,2021.1.4,60.070453752061105,
J,left,Lure,0,27,27,27,565.1898239695583,567.1897152177407,left,1,1,0.485448744148016,Z20J04,2022-10-20_09h15.43.177,t1_Paradigm,2021.1.4,60.070453752061105,
V,left,Distractor,0,28,28,28,568.6902236887836,570.689616410702,left,1,1,0.7138090484077111,Z20J04,2022-10-20_09h15.43.177,t1_Paradigm,2021.1.4,60.070453752061105,
Z,left,Pretarget,0,29,29,29,572.1900071474956,574.1903677288792,left,1,1,0.4770870413049124,Z20J04,2022-10-20_09h15.43.177,t1_Paradigm,2021.1.4,60.070453752061105,
Z,right,Target,0,30,30,30,575.6897007816005,577.6901162201539,right,1,1,0.6412247191765346,Z20J04,2022-10-20_09h15.43.177,t1_Paradigm,2021.1.4,60.070453752061105,
T,left,Distractor,0,31,31,31,579.189689232735,581.1915591873694,left,1,1,0.4676352533278987,Z20J04,2022-10-20_09h15.43.177,t1_Paradigm,2021.1.4,60.070453752061105,
Z,left,Lure,0,32,32,32,582.6898942252155,584.6896337340004,left,1,1,0.6501535999705084,Z20J04,2022-10-20_09h15.43.177,t1_Paradigm,2021.1.4,60.070453752061105,
F,left,Distractor,0,33,33,33,586.1899086612975,588.1902852827916,left,1,1,0.6370196472271346,Z20J04,2022-10-20_09h15.43.177,t1_Paradigm,2021.1.4,60.070453752061105,
Y,left,Pretarget,0,34,34,34,589.6897116889013,591.6904014130705,left,1,1,0.4810425293399021,Z20J04,2022-10-20_09h15.43.177,t1_Paradigm,2021.1.4,60.070453752061105,
Y,right,Target,0,35,35,35,593.1897620548261,595.1897357490379,left,0,1,0.5014166614273563,Z20J04,2022-10-20_09h15.43.177,t1_Paradigm,2021.1.4,60.070453752061105,
Y,right,Target,0,36,36,36,596.6896808919264,598.690199628647,right,1,1,0.7134997952962294,Z20J04,2022-10-20_09h15.43.177,t1_Paradigm,2021.1.4,60.070453752061105,
W,left,Distractor,0,37,37,37,600.1901361098862,602.1892243907205,left,1,1,0.558138617197983,Z20J04,2022-10-20_09h15.43.177,t1_Paradigm,2021.1.4,60.070453752061105,
Q,left,Distractor,0,38,38,38,603.6901726812939,605.6901784557267,left,1,1,1.0092336426023394,Z20J04,2022-10-20_09h15.43.177,t1_Paradigm,2021.1.4,60.070453752061105,
P,left,Pretarget,0,39,39,39,607.1900398692815,609.1896978943842,left,1,1,0.5500313102966174,Z20J04,2022-10-20_09h15.43.177,t1_Paradigm,2021.1.4,60.070453752061105,
P,right,Target,0,40,40,40,610.6897556387703,612.6898817139445,right,1,1,0.5053801695466973,Z20J04,2022-10-20_09h15.43.177,t1_Paradigm,2021.1.4,60.070453752061105,
J,left,Distractor,0,41,41,41,614.1902641098714,616.1903850521776,left,1,1,0.4608194950269535,Z20J04,2022-10-20_09h15.43.177,t1_Paradigm,2021.1.4,60.070453752061105,
P,left,Lure,0,42,42,42,617.6902259344351,619.6896311676246,left,1,1,0.705672869225964,Z20J04,2022-10-20_09h15.43.177,t1_Paradigm,2021.1.4,60.070453752061105,
L,left,Distractor,0,43,43,43,621.1898852427257,623.1896674182499,left,1,1,0.598247523070313,Z20J04,2022-10-20_09h15.43.177,t1_Paradigm,2021.1.4,60.070453752061105,
Z,left,Distractor,0,44,44,44,624.6897813029354,626.6900963304215,left,1,1,0.601132815820165,Z20J04,2022-10-20_09h15.43.177,t1_Paradigm,2021.1.4,60.070453752061105,
F,left,Pretarget,0,45,45,45,628.1901912878384,630.1906064055511,left,1,1,0.5727110459702089,Z20J04,2022-10-20_09h15.43.177,t1_Paradigm,2021.1.4,60.070453752061105,
F,right,Target,0,46,46,46,631.689789643744,633.6897132929298,right,1,1,0.6576116037904285,Z20J04,2022-10-20_09h15.43.177,t1_Paradigm,2021.1.4,60.070453752061105,
G,left,Pretarget,0,47,47,47,635.1899006412714,637.1901611324283,left,1,1,0.8210797680658288,Z20J04,2022-10-20_09h15.43.177,t1_Paradigm,2021.1.4,60.070453752061105,
G,right,Target,0,48,48,48,638.6897299746051,640.6899234181619,right,1,1,0.601236755726859,Z20J04,2022-10-20_09h15.43.177,t1_Paradigm,2021.1.4,60.070453752061105,
V,left,Distractor,0,49,49,49,642.1899821249535,644.1903933930444,left,1,1,0.6206661259639077,Z20J04,2022-10-20_09h15.43.177,t1_Paradigm,2021.1.4,60.070453752061105,
G,left,Lure,0,50,50,50,645.689866315457,647.6917282499489,left,1,1,0.5434391509043053,Z20J04,2022-10-20_09h15.43.177,t1_Paradigm,2021.1.4,60.070453752061105,
Q,left,Pretarget,0,51,51,51,649.1898332728306,651.190114936966,left,1,1,0.5980219992925413,Z20J04,2022-10-20_09h15.43.177,t1_Paradigm,2021.1.4,60.070453752061105,
Q,right,Target,0,52,52,52,652.6899984858464,654.6900485309307,right,1,1,0.697295767837204,Z20J04,2022-10-20_09h15.43.177,t1_Paradigm,2021.1.4,60.070453752061105,
Y,left,Distractor,0,53,53,53,656.1898528417805,658.1902862451971,left,1,1,0.5891072337981313,Z20J04,2022-10-20_09h15.43.177,t1_Paradigm,2021.1.4,60.070453752061105,
V,left,Distractor,0,54,54,54,659.6898563705618,661.6908421950066,left,1,1,0.5923463711515069,Z20J04,2022-10-20_09h15.43.177,t1_Paradigm,2021.1.4,60.070453752061105,
B,left,Distractor,0,55,55,55,663.1896911575459,665.1896789671155,left,1,1,0.5817380921798758,Z20J04,2022-10-20_09h15.43.177,t1_Paradigm,2021.1.4,60.070453752061105,
J,left,Pretarget,0,56,56,56,666.6899314382463,668.6905435283552,left,1,1,0.48872830253094435,Z20J04,2022-10-20_09h15.43.177,t1_Paradigm,2021.1.4,60.070453752061105,
J,right,Target,0,57,57,57,670.1902548065991,672.1900087515241,right,1,1,0.6210969630046748,Z20J04,2022-10-20_09h15.43.177,t1_Paradigm,2021.1.4,60.070453752061105,
H,left,Distractor,0,58,58,58,673.6900844607735,675.6896266763797,left,1,1,0.4175420282408595,Z20J04,2022-10-20_09h15.43.177,t1_Paradigm,2021.1.4,60.070453752061105,
J,left,Lure,0,59,59,59,677.1896738342475,679.1916198189138,left,1,1,0.48356114549096674,Z20J04,2022-10-20_09h15.43.177,t1_Paradigm,2021.1.4,60.070453752061105,
D,left,Pretarget,0,60,60,60,680.6902355584898,682.6898550873739,left,1,1,0.5852989938575774,Z20J04,2022-10-20_09h15.43.177,t1_Paradigm,2021.1.4,60.070453752061105,
D,right,Target,0,61,61,61,684.1898711274844,686.1897123305243,right,1,1,0.6054200131329708,Z20J04,2022-10-20_09h15.43.177,t1_Paradigm,2021.1.4,60.070453752061105,
R,left,Distractor,0,62,62,62,687.6897736036917,689.6908094731625,left,1,1,0.5604211231111549,Z20J04,2022-10-20_09h15.43.177,t1_Paradigm,2021.1.4,60.070453752061105,
F,left,Distractor,0,63,63,63,691.1897643004195,693.190449533402,left,1,1,0.6607291572145186,Z20J04,2022-10-20_09h15.43.177,t1_Paradigm,2021.1.4,60.070453752061105,
F,left,Distractor,0,0,0,0,762.7806510226801,764.7730768885813,None,0,2,,Z20J04,2022-10-20_09h15.43.177,t1_Paradigm,2021.1.4,60.070453752061105,
N,left,Pretarget,0,1,1,1,766.2732446679729,768.2734977807268,None,0,2,,Z20J04,2022-10-20_09h15.43.177,t1_Paradigm,2021.1.4,60.070453752061105,
V,left,Distractor,0,2,2,2,769.773298562679,771.7729155251873,left,1,2,0.5263904519379139,Z20J04,2022-10-20_09h15.43.177,t1_Paradigm,2021.1.4,60.070453752061105,
N,right,Target,0,3,3,3,773.2730765677406,775.2734393947758,right,1,2,0.4497117273276672,Z20J04,2022-10-20_09h15.43.177,t1_Paradigm,2021.1.4,60.070453752061105,
N,left,Lure,0,4,4,4,776.7729812895996,778.7731651091017,right,0,2,0.7421859060414135,Z20J04,2022-10-20_09h15.43.177,t1_Paradigm,2021.1.4,60.070453752061105,
X,left,Distractor,0,5,5,5,780.2732068133191,782.2733579110936,left,1,2,0.8579338172567077,Z20J04,2022-10-20_09h15.43.177,t1_Paradigm,2021.1.4,60.070453752061105,
G,left,Pretarget,0,6,6,6,783.7730560364434,785.7735029135365,left,1,2,0.5258518254267983,Z20J04,2022-10-20_09h15.43.177,t1_Paradigm,2021.1.4,60.070453752061105,
H,left,Pretarget,0,7,7,7,787.2729784023832,789.2734102017712,left,1,2,0.673931761586573,Z20J04,2022-10-20_09h15.43.177,t1_Paradigm,2021.1.4,60.070453752061105,
G,right,Target,0,8,8,8,790.7734547932632,792.773064377252,right,1,2,0.4381779347313568,Z20J04,2022-10-20_09h15.43.177,t1_Paradigm,2021.1.4,60.070453752061105,
H,right,Target,0,9,9,9,794.2730659812805,796.2733527782257,right,1,2,0.4899245730484836,Z20J04,2022-10-20_09h15.43.177,t1_Paradigm,2021.1.4,60.070453752061105,
T,left,Pretarget,0,10,10,10,797.7730101617635,799.7740899811033,left,1,2,0.5252073342562653,Z20J04,2022-10-20_09h15.43.177,t1_Paradigm,2021.1.4,60.070453752061105,
K,left,Distractor,0,11,11,11,801.2731317456928,803.2734361867188,left,1,2,0.5301800853922032,Z20J04,2022-10-20_09h15.43.177,t1_Paradigm,2021.1.4,60.070453752061105,
T,right,Target,0,12,12,12,804.7730640564696,806.7729488885961,right,1,2,0.838337950699497,Z20J04,2022-10-20_09h15.43.177,t1_Paradigm,2021.1.4,60.070453752061105,
T,left,Lure,0,13,13,13,808.2730056705186,810.272976477514,left,1,2,1.0181358968256973,Z20J04,2022-10-20_09h15.43.177,t1_Paradigm,2021.1.4,60.070453752061105,
J,left,Distractor,0,14,14,14,811.7730040664901,813.7729399061063,left,1,2,1.310362737160176,Z20J04,2022-10-20_09h15.43.177,t1_Paradigm,2021.1.4,60.070453752061105,
Q,left,Pretarget,0,15,15,15,815.273169921129,817.2733678559307,left,1,2,0.5620055639883503,Z20J04,2022-10-20_09h15.43.177,t1_Paradigm,2021.1.4,60.070453752061105,
M,left,Distractor,0,16,16,16,818.7732485175948,820.7748265424161,left,1,2,0.532330741698388,Z20J04,2022-10-20_09h15.43.177,t1_Paradigm,2021.1.4,60.070453752061105,
Q,right,Target,0,17,17,17,822.2732430639444,824.2733630439034,right,1,2,0.92192289972445,Z20J04,2022-10-20_09h15.43.177,t1_Paradigm,2021.1.4,60.070453752061105,
R,left,Distractor,0,18,18,18,825.7730037457077,827.7734422819922,left,1,2,0.6377183538279496,Z20J04,2022-10-20_09h15.43.177,t1_Paradigm,2021.1.4,60.070453752061105,
W,left,Distractor,0,19,19,19,829.2729873848148,831.2749911138089,left,1,2,0.5609937546541914,Z20J04,2022-10-20_09h15.43.177,t1_Paradigm,2021.1.4,60.070453752061105,
C,left,Pretarget,0,20,20,20,832.7732202870538,834.774755003571,left,1,2,0.5323705211631022,Z20J04,2022-10-20_09h15.43.177,t1_Paradigm,2021.1.4,60.070453752061105,
T,left,Distractor,0,21,21,21,836.2731006278773,838.27294760535,left,1,2,0.5221780014107935,Z20J04,2022-10-20_09h15.43.177,t1_Paradigm,2021.1.4,60.070453752061105,
C,right,Target,0,22,22,22,839.7733489286038,841.7732607080834,right,1,2,0.6379727498278953,Z20J04,2022-10-20_09h15.43.177,t1_Paradigm,2021.1.4,60.070453752061105,
F,left,Pretarget,0,23,23,23,843.2729354149196,845.2733874248224,left,1,2,0.7857787210959941,Z20J04,2022-10-20_09h15.43.177,t1_Paradigm,2021.1.4,60.070453752061105,
C,right,Target,0,24,24,24,846.7730685477145,848.774810823088,right,1,2,0.48434775188798085,Z20J04,2022-10-20_09h15.43.177,t1_Paradigm,2021.1.4,60.070453752061105,
F,right,Target,0,25,25,25,850.2731445777463,852.2732064925367,right,1,2,0.9060605263803154,Z20J04,2022-10-20_09h15.43.177,t1_Paradigm,2021.1.4,60.070453752061105,
H,left,Distractor,0,26,26,26,853.7729819311644,855.7733739511459,left,1,2,0.6217975945328362,Z20J04,2022-10-20_09h15.43.177,t1_Paradigm,2021.1.4,60.070453752061105,
H,left,Lure,0,27,27,27,857.2731288584764,859.2734127682052,left,1,2,0.8979519361746497,Z20J04,2022-10-20_09h15.43.177,t1_Paradigm,2021.1.4,60.070453752061105,
P,left,Distractor,0,28,28,28,860.7730528283864,862.7729366981075,left,1,2,0.8063251237617806,Z20J04,2022-10-20_09h15.43.177,t1_Paradigm,2021.1.4,60.070453752061105,
G,left,Pretarget,0,29,29,29,864.2734695501276,866.273929580173,left,1,2,0.7134635446709581,Z20J04,2022-10-20_09h15.43.177,t1_Paradigm,2021.1.4,60.070453752061105,
K,left,Distractor,0,30,30,30,867.7731157055823,869.7736418208224,left,1,2,0.7817619597772136,Z20J04,2022-10-20_09h15.43.177,t1_Paradigm,2021.1.4,60.070453752061105,
G,right,Target,0,31,31,31,871.2731606178568,873.2729164875927,right,1,2,0.8022342572803609,Z20J04,2022-10-20_09h15.43.177,t1_Paradigm,2021.1.4,60.070453752061105,
M,left,Pretarget,0,32,32,32,874.7731288584764,876.7734313746914,left,1,2,0.5979408363928087,Z20J04,2022-10-20_09h15.43.177,t1_Paradigm,2021.1.4,60.070453752061105,
B,left,Distractor,0,33,33,33,878.2732899010298,880.2730701516848,left,1,2,0.8422498097643256,Z20J04,2022-10-20_09h15.43.177,t1_Paradigm,2021.1.4,60.070453752061105,
M,right,Target,0,34,34,34,881.7730473747943,883.7745233845781,right,1,2,0.7968688445980661,Z20J04,2022-10-20_09h15.43.177,t1_Paradigm,2021.1.4,60.070453752061105,
M,left,Lure,0,35,35,35,885.2730278058443,887.2734371491242,left,1,2,0.7697630043257959,Z20J04,2022-10-20_09h15.43.177,t1_Paradigm,2021.1.4,60.070453752061105,
T,left,Distractor,0,36,36,36,888.7731153847999,890.7743312242092,left,1,2,0.4528559072641656,Z20J04,2022-10-20_09h15.43.177,t1_Paradigm,2021.1.4,60.070453752061105,
F,left,Distractor,0,37,37,37,892.2731105727726,894.2733973697177,left,1,2,0.6018167656147853,Z20J04,2022-10-20_09h15.43.177,t1_Paradigm,2021.1.4,60.070453752061105,
X,left,Distractor,0,38,38,38,895.7730435251724,897.7737669335329,left,1,2,0.573518825287465,Z20J04,2022-10-20_09h15.43.177,t1_Paradigm,2021.1.4,60.070453752061105,
C,left,Distractor,0,39,39,39,899.2731375201256,901.2735058007529,left,1,2,0.9138598634162918,Z20J04,2022-10-20_09h15.43.177,t1_Paradigm,2021.1.4,60.070453752061105,
R,left,Distractor,0,40,40,40,902.7732084173476,904.774872417096,left,1,2,0.836248246836476,Z20J04,2022-10-20_09h15.43.177,t1_Paradigm,2021.1.4,60.070453752061105,
B,left,Pretarget,0,41,41,41,906.2733633646858,908.2730765677406,left,1,2,0.7621721884934232,Z20J04,2022-10-20_09h15.43.177,t1_Paradigm,2021.1.4,60.070453752061105,
H,left,Distractor,0,42,42,42,909.7731622218853,911.7735587331117,left,1,2,0.7660757066914812,Z20J04,2022-10-20_09h15.43.177,t1_Paradigm,2021.1.4,60.070453752061105,
B,right,Target,0,43,43,43,913.2727718058741,915.2733713847701,right,1,2,0.6899603104102425,Z20J04,2022-10-20_09h15.43.177,t1_Paradigm,2021.1.4,60.070453752061105,
W,left,Pretarget,0,44,44,44,916.7731006278773,918.7734018609044,left,1,2,0.4697422805475071,Z20J04,2022-10-20_09h15.43.177,t1_Paradigm,2021.1.4,60.070453752061105,
L,left,Pretarget,0,45,45,45,920.2730066329241,922.2732517255936,left,1,2,0.5378222295548767,Z20J04,2022-10-20_09h15.43.177,t1_Paradigm,2021.1.4,60.070453752061105,
W,right,Target,0,46,46,46,923.7731227632612,925.7729848183808,right,1,2,0.8782226160401478,Z20J04,2022-10-20_09h15.43.177,t1_Paradigm,2021.1.4,60.070453752061105,
L,right,Target,0,47,47,47,927.2732010388863,929.2732157958089,None,0,2,,Z20J04,2022-10-20_09h15.43.177,t1_Paradigm,2021.1.4,60.070453752061105,
W,right,Target,0,48,48,48,930.7734932894818,932.7734422819922,right,1,2,1.0616892532561906,Z20J04,2022-10-20_09h15.43.177,t1_Paradigm,2021.1.4,60.070453752061105,
X,left,Distractor,0,49,49,49,934.2731943020481,936.272920016374,left,1,2,0.44240000925492495,Z20J04,2022-10-20_09h15.43.177,t1_Paradigm,2021.1.4,60.070453752061105,
R,left,Distractor,0,50,50,50,937.772984176816,939.773026201874,left,1,2,0.7501132431207225,Z20J04,2022-10-20_09h15.43.177,t1_Paradigm,2021.1.4,60.070453752061105,
V,left,Pretarget,0,51,51,51,941.2729819311644,943.2734470940195,left,1,2,0.5144822833826765,Z20J04,2022-10-20_09h15.43.177,t1_Paradigm,2021.1.4,60.070453752061105,
Z,left,Distractor,0,52,52,52,944.7729511341895,946.7733335301164,left,1,2,0.5980239241034724,Z20J04,2022-10-20_09h15.43.177,t1_Paradigm,2021.1.4,60.070453752061105,
V,right,Target,0,53,53,53,948.2732796354103,950.2733707431471,right,1,2,0.5858472443651408,Z20J04,2022-10-20_09h15.43.177,t1_Paradigm,2021.1.4,60.070453752061105,
V,left,Lure,0,54,54,54,951.7732443471905,953.7729825727874,left,1,2,0.7341632907628082,Z20J04,2022-10-20_09h15.43.177,t1_Paradigm,2021.1.4,60.070453752061105,
N,left,Distractor,0,55,55,55,955.273125329637,957.2728074149345,left,1,2,0.5305474036140367,Z20J04,2022-10-20_09h15.43.177,t1_Paradigm,2021.1.4,60.070453752061105,
B,left,Distractor,0,56,56,56,958.7731416905299,960.7729366981075,left,1,2,0.5182366286753677,Z20J04,2022-10-20_09h15.43.177,t1_Paradigm,2021.1.4,60.070453752061105,
V,left,Lure,0,57,57,57,962.2728914650506,964.2747017504298,left,1,2,1.1286300344509073,Z20J04,2022-10-20_09h15.43.177,t1_Paradigm,2021.1.4,60.070453752061105,
J,left,Distractor,0,58,58,58,965.7732273446745,967.7732642369228,left,1,2,0.5740789455594495,Z20J04,2022-10-20_09h15.43.177,t1_Paradigm,2021.1.4,60.070453752061105,
H,left,Distractor,0,59,59,59,969.2733784423908,971.2733113947907,left,1,2,0.6099234310095198,Z20J04,2022-10-20_09h15.43.177,t1_Paradigm,2021.1.4,60.070453752061105,
X,left,Pretarget,0,60,60,60,972.7728844073717,974.7731830740231,left,1,2,0.6779616757412441,Z20J04,2022-10-20_09h15.43.177,t1_Paradigm,2021.1.4,60.070453752061105,
P,left,Distractor,0,61,61,61,976.2731333497213,978.2729033346986,left,1,2,0.650279033521656,Z20J04,2022-10-20_09h15.43.177,t1_Paradigm,2021.1.4,60.070453752061105,
X,right,Target,0,62,62,62,979.7731028735288,981.7744977204129,right,1,2,0.5727726399782114,Z20J04,2022-10-20_09h15.43.177,t1_Paradigm,2021.1.4,60.070453752061105,
Q,left,Distractor,0,63,63,63,983.2729597958387,985.2729123171302,left,1,2,0.4181797825731337,Z20J04,2022-10-20_09h15.43.177,t1_Paradigm,2021.1.4,60.070453752061105,
B,left,Pretarget,0,0,0,0,991.166681316623,993.1565359548549,None,0,2,,Z20J04,2022-10-20_09h15.43.177,t1_Paradigm,2021.1.4,60.070453752061105,
F,left,Distractor,0,1,1,1,994.6567178495461,996.6568112029345,None,0,2,,Z20J04,2022-10-20_09h15.43.177,t1_Paradigm,2021.1.4,60.070453752061105,
B,right,Target,0,2,2,2,998.1562905413448,1000.1564865513938,right,1,2,0.43088225671090186,Z20J04,2022-10-20_09h15.43.177,t1_Paradigm,2021.1.4,60.070453752061105,
V,left,Distractor,0,3,3,3,1001.6565552029642,1003.656634441053,left,1,2,0.43449576990678906,Z20J04,2022-10-20_09h15.43.177,t1_Paradigm,2021.1.4,60.070453752061105,
G,left,Pretarget,0,4,4,4,1005.1563277543755,1007.1572981803329,left,1,2,0.5979928063461557,Z20J04,2022-10-20_09h15.43.177,t1_Paradigm,2021.1.4,60.070453752061105,
B,left,Lure,0,5,5,5,1008.6566071729176,1010.6562815589132,left,1,2,0.9549308543791994,Z20J04,2022-10-20_09h15.43.177,t1_Paradigm,2021.1.4,60.070453752061105,
G,right,Target,0,6,6,6,1012.1564044260886,1014.1578364860034,right,1,2,0.87741323269438,Z20J04,2022-10-20_09h15.43.177,t1_Paradigm,2021.1.4,60.070453752061105,
Y,left,Pretarget,0,7,7,7,1015.6564929673914,1017.6566568972194,left,1,2,0.48294937616446987,Z20J04,2022-10-20_09h15.43.177,t1_Paradigm,2021.1.4,60.070453752061105,
P,left,Distractor,0,8,8,8,1019.1564041052479,1021.1572077141609,left,1,2,0.9981184965581633,Z20J04,2022-10-20_09h15.43.177,t1_Paradigm,2021.1.4,60.070453752061105,
Y,right,Target,0,9,9,9,1022.6564426015248,1024.6566357242991,right,1,2,0.4267185681965202,Z20J04,2022-10-20_09h15.43.177,t1_Paradigm,2021.1.4,60.070453752061105,
X,left,Distractor,0,10,10,10,1026.1564772481215,1028.1580308919656,left,1,2,0.5892365170293488,Z20J04,2022-10-20_09h15.43.177,t1_Paradigm,2021.1.4,60.070453752061105,
Y,right,Target,0,11,11,11,1029.6562571779941,1031.6576959747472,right,1,2,0.8975919963559136,Z20J04,2022-10-20_09h15.43.177,t1_Paradigm,2021.1.4,60.070453752061105,
N,left,Distractor,0,12,12,12,1033.1563376992708,1035.156712395954,left,1,2,0.4545112454215996,Z20J04,2022-10-20_09h15.43.177,t1_Paradigm,2021.1.4,60.070453752061105,
Y,right,Target,0,13,13,13,1036.6564137293026,1038.6694835217204,left,0,2,0.5417090659611858,Z20J04,2022-10-20_09h15.43.177,t1_Paradigm,2021.1.4,60.070453752061105,
Y,left,Lure,0,14,14,14,1040.1563040150795,1042.1563328872435,left,1,2,1.2630906444974244,Z20J04,2022-10-20_09h15.43.177,t1_Paradigm,2021.1.4,60.070453752061105,
K,left,Distractor,0,15,15,15,1043.6562690476421,1045.6568166565849,left,1,2,0.5784094510599971,Z20J04,2022-10-20_09h15.43.177,t1_Paradigm,2021.1.4,60.070453752061105,
T,left,Pretarget,0,16,16,16,1047.1566848069779,1049.1566129473504,left,1,2,0.4066312330542132,Z20J04,2022-10-20_09h15.43.177,t1_Paradigm,2021.1.4,60.070453752061105,
J,left,Distractor,0,17,17,17,1050.6564682656317,1052.6577460198314,left,1,2,0.5215209990274161,Z20J04,2022-10-20_09h15.43.177,t1_Paradigm,2021.1.4,60.070453752061105,
T,right,Target,0,18,18,18,1054.1564063508995,1056.1563906315714,right,1,2,0.6868231880944222,Z20J04,2022-10-20_09h15.43.177,t1_Paradigm,2021.1.4,60.070453752061105,
S,left,Pretarget,0,19,19,19,1057.6562292681774,1059.6565988320508,left,1,2,0.8344924977282062,Z20J04,2022-10-20_09h15.43.177,t1_Paradigm,2021.1.4,60.070453752061105,
R,left,Distractor,0,20,20,20,1061.1562992030522,1063.1566771077341,left,1,2,0.5829520067782141,Z20J04,2022-10-20_09h15.43.177,t1_Paradigm,2021.1.4,60.070453752061105,
S,right,Target,0,21,21,21,1064.6557827118668,1066.6567005262477,right,1,2,0.8266026944620535,Z20J04,2022-10-20_09h15.43.177,t1_Paradigm,2021.1.4,60.070453752061105,
Q,left,Distractor,0,22,22,22,1068.156448055117,1070.1566113433219,left,1,2,0.5906647273222916,Z20J04,2022-10-20_09h15.43.177,t1_Paradigm,2021.1.4,60.070453752061105,
D,left,Distractor,0,23,23,23,1071.6567046967102,1073.6580360247754,left,1,2,0.6252423658734187,Z20J04,2022-10-20_09h15.43.177,t1_Paradigm,2021.1.4,60.070453752061105,
F,left,Distractor,0,24,24,24,1075.1563838947332,1077.1566703708959,left,1,2,0.7264752719202079,Z20J04,2022-10-20_09h15.43.177,t1_Paradigm,2021.1.4,60.070453752061105,
Z,left,Distractor,0,25,25,25,1078.656638932298,1080.6730492354254,left,1,2,0.5860602568718605,Z20J04,2022-10-20_09h15.43.177,t1_Paradigm,2021.1.4,60.070453752061105,
P,left,Distractor,0,26,26,26,1082.1563206967548,1084.1566892982228,left,1,2,0.6225344765698537,Z20J04,2022-10-20_09h15.43.177,t1_Paradigm,2021.1.4,60.070453752061105,
H,left,Distractor,0,27,27,27,1085.6565843959688,1087.6568394335336,left,1,2,0.6264055937645026,Z20J04,2022-10-20_09h15.43.177,t1_Paradigm,2021.1.4,60.070453752061105,
Z,left,Pretarget,0,28,28,28,1089.1566264210269,1091.1567794435541,left,1,2,0.4703723355778493,Z20J04,2022-10-20_09h15.43.177,t1_Paradigm,2021.1.4,60.070453752061105,
J,left,Pretarget,0,29,29,29,1092.6563867819495,1094.6570197241963,left,1,2,0.5862055801553652,Z20J04,2022-10-20_09h15.43.177,t1_Paradigm,2021.1.4,60.070453752061105,
Z,right,Target,0,30,30,30,1096.1564188621705,1098.1577934985398,left,0,2,1.213534762733616,Z20J04,2022-10-20_09h15.43.177,t1_Paradigm,2021.1.4,60.070453752061105,
J,right,Target,0,31,31,31,1099.6564807769028,1101.6565872831852,right,1,2,0.7545608413638547,Z20J04,2022-10-20_09h15.43.177,t1_Paradigm,2021.1.4,60.070453752061105,
V,left,Pretarget,0,32,32,32,1103.1565574486158,1105.1568099197466,left,1,2,0.5183363980613649,Z20J04,2022-10-20_09h15.43.177,t1_Paradigm,2021.1.4,60.070453752061105,
Z,left,Lure,0,33,33,33,1106.656405388494,1108.6561622205772,left,1,2,0.9230604634503834,Z20J04,2022-10-20_09h15.43.177,t1_Paradigm,2021.1.4,60.070453752061105,
V,right,Target,0,34,34,34,1110.1564961754484,1112.1564496591454,right,1,2,0.5429229805595241,Z20J04,2022-10-20_09h15.43.177,t1_Paradigm,2021.1.4,60.070453752061105,
X,left,Distractor,0,35,35,35,1113.6563842155156,1115.657101528719,left,1,2,0.6102750299032778,Z20J04,2022-10-20_09h15.43.177,t1_Paradigm,2021.1.4,60.070453752061105,
S,left,Distractor,0,36,36,36,1117.1562905413448,1119.1561484261183,left,1,2,0.5673472373164259,Z20J04,2022-10-20_09h15.43.177,t1_Paradigm,2021.1.4,60.070453752061105,
Q,left,Distractor,0,37,37,37,1120.6564570376067,1122.656711754331,left,1,2,0.6828494142973796,Z20J04,2022-10-20_09h15.43.177,t1_Paradigm,2021.1.4,60.070453752061105,
P,left,Distractor,0,38,38,38,1124.1562087368802,1126.1582846463425,left,1,2,0.556958066066727,Z20J04,2022-10-20_09h15.43.177,t1_Paradigm,2021.1.4,60.070453752061105,
S,left,Lure,0,39,39,39,1127.656446771929,1129.657318070007,right,0,2,0.7219721748842858,Z20J04,2022-10-20_09h15.43.177,t1_Paradigm,2021.1.4,60.070453752061105,
K,left,Pretarget,0,40,40,40,1131.1567608370096,1133.156624496216,left,1,2,0.43853691208641976,Z20J04,2022-10-20_09h15.43.177,t1_Paradigm,2021.1.4,60.070453752061105,
L,left,Distractor,0,41,41,41,1134.6566305914312,1136.65640282206,left,1,2,0.6668503792607225,Z20J04,2022-10-20_09h15.43.177,t1_Paradigm,2021.1.4,60.070453752061105,
K,right,Target,0,42,42,42,1138.1565475037205,1140.1572404359467,right,1,2,0.4139419887214899,Z20J04,2022-10-20_09h15.43.177,t1_Paradigm,2021.1.4,60.070453752061105,
B,left,Distractor,0,43,43,43,1141.6563139599166,1143.657172425941,left,1,2,0.7699849993223324,Z20J04,2022-10-20_09h15.43.177,t1_Paradigm,2021.1.4,60.070453752061105,
N,left,Distractor,0,44,44,44,1145.1561359148473,1147.1567871427978,left,1,2,0.6306093825842254,Z20J04,2022-10-20_09h15.43.177,t1_Paradigm,2021.1.4,60.070453752061105,
S,left,Pretarget,0,45,45,45,1148.6564057092764,1150.6562113033142,right,0,2,0.8111336242873222,Z20J04,2022-10-20_09h15.43.177,t1_Paradigm,2021.1.4,60.070453752061105,
Z,left,Distractor,0,46,46,46,1152.1563492481364,1154.1566286666202,left,1,2,0.6065829202416353,Z20J04,2022-10-20_09h15.43.177,t1_Paradigm,2021.1.4,60.070453752061105,
S,right,Target,0,47,47,47,1155.6562574987765,1157.657542310597,right,1,2,0.5618275189190172,Z20J04,2022-10-20_09h15.43.177,t1_Paradigm,2021.1.4,60.070453752061105,
C,left,Distractor,0,48,48,48,1159.1562972782413,1161.1568487367476,left,1,2,0.47031651600264013,Z20J04,2022-10-20_09h15.43.177,t1_Paradigm,2021.1.4,60.070453752061105,
T,left,Pretarget,0,49,49,49,1162.6565048370976,1164.6580103606684,left,1,2,0.5371690767351538,Z20J04,2022-10-20_09h15.43.177,t1_Paradigm,2021.1.4,60.070453752061105,
S,left,Lure,0,50,50,50,1166.1566601052182,1168.156719774357,left,1,2,0.8625171147868969,Z20J04,2022-10-20_09h15.43.177,t1_Paradigm,2021.1.4,60.070453752061105,
T,right,Target,0,51,51,51,1169.6566572180018,1171.656361438625,right,1,2,0.4027148827444762,Z20J04,2022-10-20_09h15.43.177,t1_Paradigm,2021.1.4,60.070453752061105,
N,left,Pretarget,0,52,52,52,1173.156495213043,1175.1561564461445,left,1,2,0.5188881774083711,Z20J04,2022-10-20_09h15.43.177,t1_Paradigm,2021.1.4,60.070453752061105,
B,left,Distractor,0,53,53,53,1176.6562109824736,1178.658237167634,left,1,2,0.76104072004091,Z20J04,2022-10-20_09h15.43.177,t1_Paradigm,2021.1.4,60.070453752061105,
N,right,Target,0,54,54,54,1180.156377157895,1182.1565519949654,right,1,2,1.2467544466489926,Z20J04,2022-10-20_09h15.43.177,t1_Paradigm,2021.1.4,60.070453752061105,
N,left,Lure,0,55,55,55,1183.656432977412,1185.6566312330542,left,1,2,0.9307064572349191,Z20J04,2022-10-20_09h15.43.177,t1_Paradigm,2021.1.4,60.070453752061105,
X,left,Distractor,0,56,56,56,1187.1564916842035,1189.1566408571089,left,1,2,0.5986356934299693,Z20J04,2022-10-20_09h15.43.177,t1_Paradigm,2021.1.4,60.070453752061105,
W,left,Distractor,0,57,57,57,1190.6563665714348,1192.6563354536192,left,1,2,0.6187217453843914,Z20J04,2022-10-20_09h15.43.177,t1_Paradigm,2021.1.4,60.070453752061105,
S,left,Distractor,0,58,58,58,1194.1563261504052,1196.1563097895123,left,1,2,0.6229287422029302,Z20J04,2022-10-20_09h15.43.177,t1_Paradigm,2021.1.4,60.070453752061105,
L,left,Distractor,0,59,59,59,1197.6566931478446,1199.6561028722208,left,1,2,0.6431392652448267,Z20J04,2022-10-20_09h15.43.177,t1_Paradigm,2021.1.4,60.070453752061105,
K,left,Pretarget,0,60,60,60,1201.156245949911,1203.1583516939427,left,1,2,0.596922290220391,Z20J04,2022-10-20_09h15.43.177,t1_Paradigm,2021.1.4,60.070453752061105,
V,left,Pretarget,0,61,61,61,1204.6566479147295,1206.6566145513207,left,1,2,0.6345244496478699,Z20J04,2022-10-20_09h15.43.177,t1_Paradigm,2021.1.4,60.070453752061105,
K,right,Target,0,62,62,62,1208.1565526365885,1210.1568679849152,right,1,2,1.1023037430131808,Z20J04,2022-10-20_09h15.43.177,t1_Paradigm,2021.1.4,60.070453752061105,
V,right,Target,0,63,63,63,1211.6562324762344,1213.6556412382051,right,1,2,0.867708973644767,Z20J04,2022-10-20_09h15.43.177,t1_Paradigm,2021.1.4,60.070453752061105,
R,left,Distractor,0,0,0,0,1255.9972927523195,1257.990170307341,None,0,3,,Z20J04,2022-10-20_09h15.43.177,t1_Paradigm,2021.1.4,60.070453752061105,
P,left,Lure,0,1,1,1,1259.4895768237766,1261.4915908183903,None,0,3,,Z20J04,2022-10-20_09h15.43.177,t1_Paradigm,2021.1.4,60.070453752061105,
V,left,Distractor,0,2,2,2,1262.9901048637694,1264.990317876276,None,0,3,,Z20J04,2022-10-20_09h15.43.177,t1_Paradigm,2021.1.4,60.070453752061105,
P,left,Pretarget,0,3,3,3,1266.4895803525578,1268.4898078011465,right,0,3,1.2974892755737528,Z20J04,2022-10-20_09h15.43.177,t1_Paradigm,2021.1.4,60.070453752061105,
Z,left,Distractor,0,4,4,4,1269.9896303977002,1271.9894738463336,left,1,3,0.5175658317748457,Z20J04,2022-10-20_09h15.43.177,t1_Paradigm,2021.1.4,60.070453752061105,
L,left,Pretarget,0,5,5,5,1273.4897452447913,1275.4899316307274,left,1,3,0.5371780592249706,Z20J04,2022-10-20_09h15.43.177,t1_Paradigm,2021.1.4,60.070453752061105,
P,right,Target,0,6,6,6,1276.989839560527,1278.9899127034005,left,0,3,1.021158172050491,Z20J04,2022-10-20_09h15.43.177,t1_Paradigm,2021.1.4,60.070453752061105,
S,left,Distractor,0,7,7,7,1280.4894882824156,1282.4921323321178,left,1,3,0.639116087986622,Z20J04,2022-10-20_09h15.43.177,t1_Paradigm,2021.1.4,60.070453752061105,
L,right,Target,0,8,8,8,1283.9895591796376,1285.9898466182058,left,0,3,0.6134291547350585,Z20J04,2022-10-20_09h15.43.177,t1_Paradigm,2021.1.4,60.070453752061105,
D,left,Distractor,0,9,9,9,1287.48973786633,1289.4899120617774,left,1,3,0.5691802997025661,Z20J04,2022-10-20_09h15.43.177,t1_Paradigm,2021.1.4,60.070453752061105,
G,left,Distractor,0,10,10,10,1290.9896955204895,1292.9898325029062,left,1,3,0.7497006917838007,Z20J04,2022-10-20_09h15.43.177,t1_Paradigm,2021.1.4,60.070453752061105,
M,left,Pretarget,0,11,11,11,1294.4896685731364,1296.490451009071,left,1,3,0.6088445740169846,Z20J04,2022-10-20_09h15.43.177,t1_Paradigm,2021.1.4,60.070453752061105,
Y,left,Distractor,0,12,12,12,1297.9898883224232,1299.9909232295468,left,1,3,0.5321677742758766,Z20J04,2022-10-20_09h15.43.177,t1_Paradigm,2021.1.4,60.070453752061105,
V,left,Distractor,0,13,13,13,1301.4898286532843,1303.489462297468,left,1,3,0.5537032094434835,Z20J04,2022-10-20_09h15.43.177,t1_Paradigm,2021.1.4,60.070453752061105,
M,right,Target,0,14,14,14,1304.9897218262195,1306.9894699967117,left,0,3,0.6056984692695551,Z20J04,2022-10-20_09h15.43.177,t1_Paradigm,2021.1.4,60.070453752061105,
S,left,Pretarget,0,15,15,15,1308.4897981770919,1310.4900439113844,left,1,3,0.9133318234235048,Z20J04,2022-10-20_09h15.43.177,t1_Paradigm,2021.1.4,60.070453752061105,
Q,left,Distractor,0,16,16,16,1311.989995149488,1313.9895319115021,left,1,3,0.8696132539771497,Z20J04,2022-10-20_09h15.43.177,t1_Paradigm,2021.1.4,60.070453752061105,
R,left,Pretarget,0,17,17,17,1315.4896332849166,1317.4898276908789,left,1,3,0.9372889925143681,Z20J04,2022-10-20_09h15.43.177,t1_Paradigm,2021.1.4,60.070453752061105,
S,right,Target,0,18,18,18,1318.989648041781,1320.9908045328339,right,1,3,0.4124435228295624,Z20J04,2022-10-20_09h15.43.177,t1_Paradigm,2021.1.4,60.070453752061105,
F,left,Distractor,0,19,19,19,1322.4895675205044,1324.4913008134463,left,1,3,0.4959861259558238,Z20J04,2022-10-20_09h15.43.177,t1_Paradigm,2021.1.4,60.070453752061105,
R,right,Target,0,20,20,20,1325.9896534954314,1327.9909963724203,right,1,3,0.7081414402928203,Z20J04,2022-10-20_09h15.43.177,t1_Paradigm,2021.1.4,60.070453752061105,
P,left,Distractor,0,21,21,21,1329.489457806223,1331.491015299689,left,1,3,0.7601036575506441,Z20J04,2022-10-20_09h15.43.177,t1_Paradigm,2021.1.4,60.070453752061105,
L,left,Distractor,0,22,22,22,1332.9897292046808,1334.990769244614,left,1,3,0.7965470802155323,Z20J04,2022-10-20_09h15.43.177,t1_Paradigm,2021.1.4,60.070453752061105,
R,right,Target,0,23,23,23,1336.4895617460716,1338.4896550994017,right,1,3,1.0256179608404636,Z20J04,2022-10-20_09h15.43.177,t1_Paradigm,2021.1.4,60.070453752061105,
H,left,Pretarget,0,24,24,24,1339.9897041821387,1341.9896849340294,left,1,3,0.5816283778985962,Z20J04,2022-10-20_09h15.43.177,t1_Paradigm,2021.1.4,60.070453752061105,
G,left,Pretarget,0,25,25,25,1343.489634247322,1345.4896159616183,left,1,3,0.9535494811134413,Z20J04,2022-10-20_09h15.43.177,t1_Paradigm,2021.1.4,60.070453752061105,
T,left,Distractor,0,26,26,26,1346.9894064778928,1348.9898421269609,left,1,3,0.7974565537879243,Z20J04,2022-10-20_09h15.43.177,t1_Paradigm,2021.1.4,60.070453752061105,
H,right,Target,0,27,27,27,1350.4896239816444,1352.4896390593494,right,1,3,0.3695340158883482,Z20J04,2022-10-20_09h15.43.177,t1_Paradigm,2021.1.4,60.070453752061105,
G,right,Target,0,28,28,28,1353.9895569340442,1355.9896724227583,right,1,3,0.517363726568874,Z20J04,2022-10-20_09h15.43.177,t1_Paradigm,2021.1.4,60.070453752061105,
D,left,Distractor,0,29,29,29,1357.4897154102218,1359.4914371542982,left,1,3,0.5037225858541206,Z20J04,2022-10-20_09h15.43.177,t1_Paradigm,2021.1.4,60.070453752061105,
N,left,Pretarget,0,30,30,30,1360.9897256758413,1362.9905873499229,left,1,3,0.6844450831995346,Z20J04,2022-10-20_09h15.43.177,t1_Paradigm,2021.1.4,60.070453752061105,
V,left,Distractor,0,31,31,31,1364.4894443325466,1366.4894539566012,left,1,3,0.5138964990037493,Z20J04,2022-10-20_09h15.43.177,t1_Paradigm,2021.1.4,60.070453752061105,
R,left,Distractor,0,32,32,32,1367.9895254954463,1369.98991623224,left,1,3,0.5973633929388598,Z20J04,2022-10-20_09h15.43.177,t1_Paradigm,2021.1.4,60.070453752061105,
N,right,Target,0,33,33,33,1371.4896287936717,1373.4904336857726,None,0,3,,Z20J04,2022-10-20_09h15.43.177,t1_Paradigm,2021.1.4,60.070453752061105,
Z,left,Distractor,0,34,34,34,1374.9890237611835,1376.9898700367194,left,1,3,0.493344321846962,Z20J04,2022-10-20_09h15.43.177,t1_Paradigm,2021.1.4,60.070453752061105,
N,left,Lure,0,35,35,35,1378.4894943776308,1380.4910845929408,right,0,3,1.2484553385875188,Z20J04,2022-10-20_09h15.43.177,t1_Paradigm,2021.1.4,60.070453752061105,
Y,left,Pretarget,0,36,36,36,1381.989549555583,1383.9909681418212,left,1,3,0.6441353553091176,Z20J04,2022-10-20_09h15.43.177,t1_Paradigm,2021.1.4,60.070453752061105,
Y,left,Lure,0,37,37,37,1385.489811329986,1387.4897048237035,left,1,3,1.049811240111012,Z20J04,2022-10-20_09h15.43.177,t1_Paradigm,2021.1.4,60.070453752061105,
B,left,Distractor,0,38,38,38,1388.9898071595817,1390.9898498262046,left,1,3,0.7171877346117981,Z20J04,2022-10-20_09h15.43.177,t1_Paradigm,2021.1.4,60.070453752061105,
Y,right,Target,0,39,39,39,1392.489692633273,1394.4901744778035,right,1,3,0.7689699818729423,Z20J04,2022-10-20_09h15.43.177,t1_Paradigm,2021.1.4,60.070453752061105,
J,left,Distractor,0,40,40,40,1395.9895133049577,1397.9906027484103,left,1,3,0.5488302277517505,Z20J04,2022-10-20_09h15.43.177,t1_Paradigm,2021.1.4,60.070453752061105,
X,left,Distractor,0,41,41,41,1399.4894648638438,1401.489807480364,left,1,3,0.5213144025765359,Z20J04,2022-10-20_09h15.43.177,t1_Paradigm,2021.1.4,60.070453752061105,
W,left,Pretarget,0,42,42,42,1402.9895014353096,1404.9894221972208,left,1,3,0.605758780031465,Z20J04,2022-10-20_09h15.43.177,t1_Paradigm,2021.1.4,60.070453752061105,
S,left,Pretarget,0,43,43,43,1406.4898931344505,1408.4896987284883,left,1,3,0.6575083055649884,Z20J04,2022-10-20_09h15.43.177,t1_Paradigm,2021.1.4,60.070453752061105,
R,left,Distractor,0,44,44,44,1409.9895084929303,1411.9904769940185,left,1,3,0.7727204775437713,Z20J04,2022-10-20_09h15.43.177,t1_Paradigm,2021.1.4,60.070453752061105,
W,right,Target,0,45,45,45,1413.4896393801318,1415.4906450942508,right,1,3,0.5843699513352476,Z20J04,2022-10-20_09h15.43.177,t1_Paradigm,2021.1.4,60.070453752061105,
S,right,Target,0,46,46,46,1416.9896121119382,1418.9896303977002,right,1,3,0.5415537978406064,Z20J04,2022-10-20_09h15.43.177,t1_Paradigm,2021.1.4,60.070453752061105,
D,left,Distractor,0,47,47,47,1420.489676913945,1422.4898491846398,left,1,3,0.5134720780188218,Z20J04,2022-10-20_09h15.43.177,t1_Paradigm,2021.1.4,60.070453752061105,
T,left,Distractor,0,48,48,48,1423.9893978162436,1425.9896303977002,left,1,3,0.6614192021661438,Z20J04,2022-10-20_09h15.43.177,t1_Paradigm,2021.1.4,60.070453752061105,
S,right,Target,0,49,49,49,1427.4896169240237,1429.490027229709,right,1,3,1.001052871986758,Z20J04,2022-10-20_09h15.43.177,t1_Paradigm,2021.1.4,60.070453752061105,
K,left,Distractor,0,50,50,50,1430.9898896056693,1432.9894417661126,left,1,3,0.541746599774342,Z20J04,2022-10-20_09h15.43.177,t1_Paradigm,2021.1.4,60.070453752061105,
S,left,Lure,0,51,51,51,1434.4895819565863,1436.4894780167378,right,0,3,0.9456166904419661,Z20J04,2022-10-20_09h15.43.177,t1_Paradigm,2021.1.4,60.070453752061105,
T,left,Pretarget,0,52,52,52,1437.9896730643231,1439.990292853734,right,0,3,0.6771779565606266,Z20J04,2022-10-20_09h15.43.177,t1_Paradigm,2021.1.4,60.070453752061105,
V,left,Distractor,0,53,53,53,1441.4889602424228,1443.4896826883778,left,1,3,0.5214741620002314,Z20J04,2022-10-20_09h15.43.177,t1_Paradigm,2021.1.4,60.070453752061105,
B,left,Distractor,0,54,54,54,1444.9896490041865,1446.9896826883778,left,1,3,0.6694180780905299,Z20J04,2022-10-20_09h15.43.177,t1_Paradigm,2021.1.4,60.070453752061105,
T,right,Target,0,55,55,55,1448.4898963425076,1450.4894228387857,right,1,3,0.7696321171242744,Z20J04,2022-10-20_09h15.43.177,t1_Paradigm,2021.1.4,60.070453752061105,
Y,left,Pretarget,0,56,56,56,1451.989520041796,1453.990246337431,left,1,3,0.5328212478780188,Z20J04,2022-10-20_09h15.43.177,t1_Paradigm,2021.1.4,60.070453752061105,
T,left,Lure,0,57,57,57,1455.489865224692,1457.4898642622866,right,0,3,1.0172293105279095,Z20J04,2022-10-20_09h15.43.177,t1_Paradigm,2021.1.4,60.070453752061105,
P,left,Pretarget,0,58,58,58,1458.989445936575,1460.9897413951694,left,1,3,0.7172602358041331,Z20J04,2022-10-20_09h15.43.177,t1_Paradigm,2021.1.4,60.070453752061105,
Y,right,Target,0,59,59,59,1462.4895681621274,1464.4913319312618,left,0,3,0.6718638722086325,Z20J04,2022-10-20_09h15.43.177,t1_Paradigm,2021.1.4,60.070453752061105,
R,left,Distractor,0,60,60,60,1465.9894436909235,1467.9913547081524,left,1,3,0.8677532442379743,Z20J04,2022-10-20_09h15.43.177,t1_Paradigm,2021.1.4,60.070453752061105,
P,right,Target,0,61,61,61,1469.4898479013937,1471.4893214653712,right,1,3,1.1617140191956423,Z20J04,2022-10-20_09h15.43.177,t1_Paradigm,2021.1.4,60.070453752061105,
L,left,Distractor,0,62,62,62,1472.989651891403,1474.991238257091,left,1,3,0.5399635825888254,Z20J04,2022-10-20_09h15.43.177,t1_Paradigm,2021.1.4,60.070453752061105,
V,left,Distractor,0,63,63,63,1476.489877735963,1478.4896586282412,left,1,3,0.6094967643730342,Z20J04,2022-10-20_09h15.43.177,t1_Paradigm,2021.1.4,60.070453752061105,
H,left,Lure,0,0,0,0,1487.929012622917,1489.9231413055677,None,0,3,,Z20J04,2022-10-20_09h15.43.177,t1_Paradigm,2021.1.4,60.070453752061105,
B,left,Distractor,0,1,1,1,1491.422886909626,1493.423690518539,None,0,3,,Z20J04,2022-10-20_09h15.43.177,t1_Paradigm,2021.1.4,60.070453752061105,
T,left,Distractor,0,2,2,2,1494.9229254058446,1496.9227050149348,None,0,3,,Z20J04,2022-10-20_09h15.43.177,t1_Paradigm,2021.1.4,60.070453752061105,
R,left,Distractor,0,3,3,3,1498.4227309998823,1500.4231765937875,left,1,3,0.611925556033384,Z20J04,2022-10-20_09h15.43.177,t1_Paradigm,2021.1.4,60.070453752061105,
H,left,Pretarget,0,4,4,4,1501.922912573791,1503.9238377666334,left,1,3,1.3192367608426139,Z20J04,2022-10-20_09h15.43.177,t1_Paradigm,2021.1.4,60.070453752061105,
K,left,Distractor,0,5,5,5,1505.4227877818048,1507.4231214158935,left,1,3,0.571978013496846,Z20J04,2022-10-20_09h15.43.177,t1_Paradigm,2021.1.4,60.070453752061105,
G,left,Distractor,0,6,6,6,1508.9228067091317,1510.9231935963035,left,1,3,0.6879594685742632,Z20J04,2022-10-20_09h15.43.177,t1_Paradigm,2021.1.4,60.070453752061105,
H,right,Target,0,7,7,7,1512.4229051953298,1514.4421799391275,right,1,3,0.9610360363149084,Z20J04,2022-10-20_09h15.43.177,t1_Paradigm,2021.1.4,60.070453752061105,
Y,left,Pretarget,0,8,8,8,1515.9228246740531,1517.923292403284,left,1,3,0.7599336324492469,Z20J04,2022-10-20_09h15.43.177,t1_Paradigm,2021.1.4,60.070453752061105,
S,left,Distractor,0,9,9,9,1519.4228557918686,1521.4232253556838,left,1,3,0.8278727494180202,Z20J04,2022-10-20_09h15.43.177,t1_Paradigm,2021.1.4,60.070453752061105,
P,left,Distractor,0,10,10,10,1522.9229831502307,1524.9230460274266,left,1,3,0.6560720752459019,Z20J04,2022-10-20_09h15.43.177,t1_Paradigm,2021.1.4,60.070453752061105,
Y,right,Target,0,11,11,11,1526.422816654027,1528.423178197816,right,1,3,0.43574433110188693,Z20J04,2022-10-20_09h15.43.177,t1_Paradigm,2021.1.4,60.070453752061105,
H,left,Lure,0,12,12,12,1529.9229921326623,1531.923410458432,left,1,3,0.8078072288190015,Z20J04,2022-10-20_09h15.43.177,t1_Paradigm,2021.1.4,60.070453752061105,
Q,left,Distractor,0,13,13,13,1533.422917065036,1535.423544874473,left,1,3,0.6035426801536232,Z20J04,2022-10-20_09h15.43.177,t1_Paradigm,2021.1.4,60.070453752061105,
V,left,Pretarget,0,14,14,14,1536.922753135208,1538.92325294466,left,1,3,0.6559716641786508,Z20J04,2022-10-20_09h15.43.177,t1_Paradigm,2021.1.4,60.070453752061105,
G,left,Distractor,0,15,15,15,1540.4232073907624,1542.4231214158935,right,0,3,0.9163986900821328,Z20J04,2022-10-20_09h15.43.177,t1_Paradigm,2021.1.4,60.070453752061105,
Z,left,Pretarget,0,16,16,16,1543.9227441527764,1545.922684162797,left,1,3,0.5523025881266221,Z20J04,2022-10-20_09h15.43.177,t1_Paradigm,2021.1.4,60.070453752061105,
V,right,Target,0,17,17,17,1547.4230858068331,1549.4227534560487,right,1,3,0.7002872460871004,Z20J04,2022-10-20_09h15.43.177,t1_Paradigm,2021.1.4,60.070453752061105,
N,left,Distractor,0,18,18,18,1550.9228958921158,1552.923601335613,left,1,3,0.49564094305969775,Z20J04,2022-10-20_09h15.43.177,t1_Paradigm,2021.1.4,60.070453752061105,
Z,right,Target,0,19,19,19,1554.4229003833025,1556.423088373267,right,1,3,0.7720692495931871,Z20J04,2022-10-20_09h15.43.177,t1_Paradigm,2021.1.4,60.070453752061105,
R,left,Distractor,0,20,20,20,1557.9230521226418,1559.924938438111,left,1,3,0.9179873013636097,Z20J04,2022-10-20_09h15.43.177,t1_Paradigm,2021.1.4,60.070453752061105,
P,left,Distractor,0,21,21,21,1561.4227502479916,1563.4231522128684,left,1,3,0.9720042551052757,Z20J04,2022-10-20_09h15.43.177,t1_Paradigm,2021.1.4,60.070453752061105,
Z,right,Target,0,22,22,22,1564.9231939170859,1566.9228484134073,right,1,3,0.49650197551818565,Z20J04,2022-10-20_09h15.43.177,t1_Paradigm,2021.1.4,60.070453752061105,
D,left,Pretarget,0,23,23,23,1568.4231429095962,1570.4235394208226,left,1,3,0.41942385252332315,Z20J04,2022-10-20_09h15.43.177,t1_Paradigm,2021.1.4,60.070453752061105,
K,left,Distractor,0,24,24,24,1571.922826598864,1573.9238156313077,left,1,3,0.9991200402146205,Z20J04,2022-10-20_09h15.43.177,t1_Paradigm,2021.1.4,60.070453752061105,
W,left,Distractor,0,25,25,25,1575.4227733457228,1577.4226668394986,left,1,3,0.6044280934729613,Z20J04,2022-10-20_09h15.43.177,t1_Paradigm,2021.1.4,60.070453752061105,
D,right,Target,0,26,26,26,1578.9228079923778,1580.923234017333,right,1,3,0.9918772945529781,Z20J04,2022-10-20_09h15.43.177,t1_Paradigm,2021.1.4,60.070453752061105,
G,left,Pretarget,0,27,27,27,1582.4229510700097,1584.423148042406,left,1,3,1.108087481406983,Z20J04,2022-10-20_09h15.43.177,t1_Paradigm,2021.1.4,60.070453752061105,
V,left,Distractor,0,28,28,28,1585.9229112906032,1587.9230428193696,left,1,3,0.7443740961607546,Z20J04,2022-10-20_09h15.43.177,t1_Paradigm,2021.1.4,60.070453752061105,
D,right,Target,0,29,29,29,1589.4231814058148,1591.435935849906,left,0,3,0.7832629921613261,Z20J04,2022-10-20_09h15.43.177,t1_Paradigm,2021.1.4,60.070453752061105,
G,right,Target,0,30,30,30,1592.9229449747945,1594.9228769647889,right,1,3,0.8644836307503283,Z20J04,2022-10-20_09h15.43.177,t1_Paradigm,2021.1.4,60.070453752061105,
B,left,Pretarget,0,31,31,31,1596.4226832003915,1598.4245512301568,left,1,3,0.6264729622052982,Z20J04,2022-10-20_09h15.43.177,t1_Paradigm,2021.1.4,60.070453752061105,
N,left,Distractor,0,32,32,32,1599.922874398355,1601.922711751773,left,1,3,0.5203491094871424,Z20J04,2022-10-20_09h15.43.177,t1_Paradigm,2021.1.4,60.070453752061105,
F,left,Distractor,0,33,33,33,1603.4229751301464,1605.4242884933483,left,1,3,0.6827072990126908,Z20J04,2022-10-20_09h15.43.177,t1_Paradigm,2021.1.4,60.070453752061105,
B,right,Target,0,34,34,34,1606.9227114309906,1608.923686027294,left,0,3,0.5595087623805739,Z20J04,2022-10-20_09h15.43.177,t1_Paradigm,2021.1.4,60.070453752061105,
Q,left,Pretarget,0,35,35,35,1610.4227842530236,1612.4245056763175,left,1,3,0.5947315336670727,Z20J04,2022-10-20_09h15.43.177,t1_Paradigm,2021.1.4,60.070453752061105,
S,left,Pretarget,0,36,36,36,1613.922711751773,1615.9225481427857,left,1,3,0.552418076840695,Z20J04,2022-10-20_09h15.43.177,t1_Paradigm,2021.1.4,60.070453752061105,
W,left,Distractor,0,37,37,37,1617.422740623937,1619.4229529948207,left,1,3,0.5721454721060582,Z20J04,2022-10-20_09h15.43.177,t1_Paradigm,2021.1.4,60.070453752061105,
Q,right,Target,0,38,38,38,1620.9227967642946,1622.923720032326,left,0,3,0.5753403388080187,Z20J04,2022-10-20_09h15.43.177,t1_Paradigm,2021.1.4,60.070453752061105,
S,right,Target,0,39,39,39,1624.4229699973366,1626.4230216464493,left,0,3,0.7561225052922964,Z20J04,2022-10-20_09h15.43.177,t1_Paradigm,2021.1.4,60.070453752061105,
T,left,Distractor,0,40,40,40,1627.9228673407342,1629.923719390703,left,1,3,0.7272782392101362,Z20J04,2022-10-20_09h15.43.177,t1_Paradigm,2021.1.4,60.070453752061105,
G,left,Distractor,0,41,41,41,1631.423397305538,1633.4236433606711,left,1,3,0.5395170262199827,Z20J04,2022-10-20_09h15.43.177,t1_Paradigm,2021.1.4,60.070453752061105,
D,left,Distractor,0,42,42,42,1634.9231130750268,1636.9232166940346,left,1,3,0.671868042612914,Z20J04,2022-10-20_09h15.43.177,t1_Paradigm,2021.1.4,60.070453752061105,
S,left,Lure,0,43,43,43,1638.4228144083754,1640.4232744384208,right,0,3,0.8357096203253604,Z20J04,2022-10-20_09h15.43.177,t1_Paradigm,2021.1.4,60.070453752061105,
Z,left,Pretarget,0,44,44,44,1641.9228496965952,1643.9238679219852,left,1,3,0.5991355028818361,Z20J04,2022-10-20_09h15.43.177,t1_Paradigm,2021.1.4,60.070453752061105,
J,left,Distractor,0,45,45,45,1645.4228939673048,1647.4220672606607,left,1,3,0.5890411486034282,Z20J04,2022-10-20_09h15.43.177,t1_Paradigm,2021.1.4,60.070453752061105,
M,left,Pretarget,0,46,46,46,1648.9229385587387,1650.9226761427708,left,1,3,0.5283287373022176,Z20J04,2022-10-20_09h15.43.177,t1_Paradigm,2021.1.4,60.070453752061105,
Z,right,Target,0,47,47,47,1652.4228153707809,1654.4230514810188,right,1,3,0.4999069674522616,Z20J04,2022-10-20_09h15.43.177,t1_Paradigm,2021.1.4,60.070453752061105,
P,left,Distractor,0,48,48,48,1655.92276757129,1657.9233681125916,left,1,3,0.47170719248242676,Z20J04,2022-10-20_09h15.43.177,t1_Paradigm,2021.1.4,60.070453752061105,
M,right,Target,0,49,49,49,1659.4226568946615,1661.4226398921455,left,0,3,0.7645894312299788,Z20J04,2022-10-20_09h15.43.177,t1_Paradigm,2021.1.4,60.070453752061105,
K,left,Distractor,0,50,50,50,1662.9228737567319,1664.9237078418373,left,1,3,1.0073797281365842,Z20J04,2022-10-20_09h15.43.177,t1_Paradigm,2021.1.4,60.070453752061105,
Y,left,Distractor,0,51,51,51,1666.4231669697328,1668.4231791602215,left,1,3,0.6119027790264226,Z20J04,2022-10-20_09h15.43.177,t1_Paradigm,2021.1.4,60.070453752061105,
X,left,Distractor,0,52,52,52,1669.9228221076191,1671.9231105085928,left,1,3,0.5199686384294182,Z20J04,2022-10-20_09h15.43.177,t1_Paradigm,2021.1.4,60.070453752061105,
F,left,Pretarget,0,53,53,53,1673.4232545486884,1675.423684102483,left,1,3,0.6673463390325196,Z20J04,2022-10-20_09h15.43.177,t1_Paradigm,2021.1.4,60.070453752061105,
M,left,Lure,0,54,54,54,1676.9228615663014,1678.9227101477445,left,1,3,0.6564233533572406,Z20J04,2022-10-20_09h15.43.177,t1_Paradigm,2021.1.4,60.070453752061105,
V,left,Distractor,0,55,55,55,1680.4228776063537,1682.4246837213868,left,1,3,0.8823478083941154,Z20J04,2022-10-20_09h15.43.177,t1_Paradigm,2021.1.4,60.070453752061105,
F,right,Target,0,56,56,56,1683.9229664684972,1685.9230226088548,right,1,3,0.9518447395530529,Z20J04,2022-10-20_09h15.43.177,t1_Paradigm,2021.1.4,60.070453752061105,
S,left,Distractor,0,57,57,57,1687.422756343265,1689.4235092654126,left,1,3,0.6035513417446055,Z20J04,2022-10-20_09h15.43.177,t1_Paradigm,2021.1.4,60.070453752061105,
D,left,Distractor,0,58,58,58,1690.9228352605132,1692.9243661274668,left,1,3,0.6227705868077464,Z20J04,2022-10-20_09h15.43.177,t1_Paradigm,2021.1.4,60.070453752061105,
F,right,Target,0,59,59,59,1694.4227354911272,1696.4231339271646,right,1,3,0.86779719410697,Z20J04,2022-10-20_09h15.43.177,t1_Paradigm,2021.1.4,60.070453752061105,
V,left,Pretarget,0,60,60,60,1697.9398496337235,1699.9233501476701,left,1,3,0.5516577761736698,Z20J04,2022-10-20_09h15.43.177,t1_Paradigm,2021.1.4,60.070453752061105,
J,left,Distractor,0,61,61,61,1701.4229619773105,1703.4244274006342,left,1,3,0.49067557038506493,Z20J04,2022-10-20_09h15.43.177,t1_Paradigm,2021.1.4,60.070453752061105,
V,left,Lure,0,62,62,62,1704.9226463081432,1706.9223774761194,right,0,3,0.7207165560685098,Z20J04,2022-10-20_09h15.43.177,t1_Paradigm,2021.1.4,60.070453752061105,
V,right,Target,0,63,63,63,1708.422681596363,1710.422697315691,left,0,3,0.8043598910444416,Z20J04,2022-10-20_09h15.43.177,t1_Paradigm,2021.1.4,60.070453752061105,
R,left,Distractor,0,0,0,0,1754.7460980858887,1756.7403666381724,None,0,4,,Z20J04,2022-10-20_09h15.43.177,t1_Paradigm,2021.1.4,60.070453752061105,
F,left,Distractor,0,1,1,1,1758.2395040016854,1760.2398581670714,None,0,4,,Z20J04,2022-10-20_09h15.43.177,t1_Paradigm,2021.1.4,60.070453752061105,
P,left,Pretarget,0,2,2,2,1761.7395633500419,1763.7401545880712,None,0,4,,Z20J04,2022-10-20_09h15.43.177,t1_Paradigm,2021.1.4,60.070453752061105,
H,left,Distractor,0,3,3,3,1765.239882868831,1767.2398918512627,None,0,4,,Z20J04,2022-10-20_09h15.43.177,t1_Paradigm,2021.1.4,60.070453752061105,
Z,left,Distractor,0,4,4,4,1768.7394045530818,1770.7394462573575,left,1,4,0.5837007585214451,Z20J04,2022-10-20_09h15.43.177,t1_Paradigm,2021.1.4,60.070453752061105,
T,left,Distractor,0,5,5,5,1772.239449786197,1774.2393394302926,left,1,4,0.7318762936047278,Z20J04,2022-10-20_09h15.43.177,t1_Paradigm,2021.1.4,60.070453752061105,
P,right,Target,0,6,6,6,1775.7393541872152,1777.7396271896432,right,1,4,0.5916027522180229,Z20J04,2022-10-20_09h15.43.177,t1_Paradigm,2021.1.4,60.070453752061105,
G,left,Distractor,0,7,7,7,1779.2394109691377,1781.255918154493,left,1,4,0.4672724262927659,Z20J04,2022-10-20_09h15.43.177,t1_Paradigm,2021.1.4,60.070453752061105,
L,left,Distractor,0,8,8,8,1782.7393317310489,1784.7406784576597,left,1,4,0.6465150641743094,Z20J04,2022-10-20_09h15.43.177,t1_Paradigm,2021.1.4,60.070453752061105,
P,left,Lure,0,9,9,9,1786.2393333350774,1788.240156512882,left,1,4,0.9069635838386603,Z20J04,2022-10-20_09h15.43.177,t1_Paradigm,2021.1.4,60.070453752061105,
Q,left,Pretarget,0,10,10,10,1789.7394205931923,1791.740819610539,left,1,4,0.6862409324967302,Z20J04,2022-10-20_09h15.43.177,t1_Paradigm,2021.1.4,60.070453752061105,
D,left,Distractor,0,11,11,11,1793.2392861772096,1795.23979432747,left,1,4,0.659265337861143,Z20J04,2022-10-20_09h15.43.177,t1_Paradigm,2021.1.4,60.070453752061105,
M,left,Pretarget,0,12,12,12,1796.7392897059908,1798.7415673998767,left,1,4,0.5978263100842014,Z20J04,2022-10-20_09h15.43.177,t1_Paradigm,2021.1.4,60.070453752061105,
C,left,Distractor,0,13,13,13,1800.2395383274998,1802.2397179765976,left,1,4,0.6351211412111297,Z20J04,2022-10-20_09h15.43.177,t1_Paradigm,2021.1.4,60.070453752061105,
Q,right,Target,0,14,14,14,1803.73934424232,1805.7392954804236,right,1,4,0.6558070927858353,Z20J04,2022-10-20_09h15.43.177,t1_Paradigm,2021.1.4,60.070453752061105,
R,left,Distractor,0,15,15,15,1807.2394254052197,1809.2408779964899,left,1,4,0.7221505408524536,Z20J04,2022-10-20_09h15.43.177,t1_Paradigm,2021.1.4,60.070453752061105,
M,right,Target,0,16,16,16,1810.7396278312663,1812.7401420768,right,1,4,0.5508153502596542,Z20J04,2022-10-20_09h15.43.177,t1_Paradigm,2021.1.4,60.070453752061105,
S,left,Distractor,0,17,17,17,1814.2392932348303,1816.2399127034005,left,1,4,0.7952173561207019,Z20J04,2022-10-20_09h15.43.177,t1_Paradigm,2021.1.4,60.070453752061105,
Z,left,Distractor,0,18,18,18,1817.7396368136979,1819.7393288438325,left,1,4,0.8000627488363534,Z20J04,2022-10-20_09h15.43.177,t1_Paradigm,2021.1.4,60.070453752061105,
L,left,Pretarget,0,19,19,19,1821.2396226984565,1823.2397879114142,left,1,4,0.6271020547719672,Z20J04,2022-10-20_09h15.43.177,t1_Paradigm,2021.1.4,60.070453752061105,
M,right,Target,0,20,20,20,1824.7396968036774,1826.7398001019028,right,1,4,1.0473811653791927,Z20J04,2022-10-20_09h15.43.177,t1_Paradigm,2021.1.4,60.070453752061105,
P,left,Distractor,0,21,21,21,1828.2394090443267,1830.2397705881158,left,1,4,0.8592218370758928,Z20J04,2022-10-20_09h15.43.177,t1_Paradigm,2021.1.4,60.070453752061105,
F,left,Distractor,0,22,22,22,1831.7394196307869,1833.7412950390135,left,1,4,0.8459338993998244,Z20J04,2022-10-20_09h15.43.177,t1_Paradigm,2021.1.4,60.070453752061105,
L,right,Target,0,23,23,23,1835.2389846233418,1837.2392650042311,right,1,4,0.7717625629156828,Z20J04,2022-10-20_09h15.43.177,t1_Paradigm,2021.1.4,60.070453752061105,
L,left,Lure,0,24,24,24,1838.7390359516721,1840.7393532248097,left,1,4,0.7917918328894302,Z20J04,2022-10-20_09h15.43.177,t1_Paradigm,2021.1.4,60.070453752061105,
V,left,Pretarget,0,25,25,25,1842.2393833801616,1844.2399005129118,left,1,4,1.22740431438433,Z20J04,2022-10-20_09h15.43.177,t1_Paradigm,2021.1.4,60.070453752061105,
Z,left,Distractor,0,26,26,26,1845.739361886459,1847.7396429089713,left,1,4,0.8154557890375145,Z20J04,2022-10-20_09h15.43.177,t1_Paradigm,2021.1.4,60.070453752061105,
H,left,Distractor,0,27,27,27,1849.2395623876364,1851.2397526231944,left,1,4,1.0434731559362262,Z20J04,2022-10-20_09h15.43.177,t1_Paradigm,2021.1.4,60.070453752061105,
X,left,Distractor,0,28,28,28,1852.739325956616,1854.740012793627,left,1,4,0.6471765578608029,Z20J04,2022-10-20_09h15.43.177,t1_Paradigm,2021.1.4,60.070453752061105,
V,right,Target,0,29,29,29,1856.2394016658654,1858.2394270092482,right,1,4,0.8597190801519901,Z20J04,2022-10-20_09h15.43.177,t1_Paradigm,2021.1.4,60.070453752061105,
C,left,Distractor,0,30,30,30,1859.739367340051,1861.7393333350774,left,1,4,0.44786743697477505,Z20J04,2022-10-20_09h15.43.177,t1_Paradigm,2021.1.4,60.070453752061105,
S,left,Pretarget,0,31,31,31,1863.2394744879566,1865.2411455453257,right,0,4,0.6579064207617193,Z20J04,2022-10-20_09h15.43.177,t1_Paradigm,2021.1.4,60.070453752061105,
D,left,Distractor,0,32,32,32,1866.7394000618951,1868.7392053350923,left,1,4,0.6001235729199834,Z20J04,2022-10-20_09h15.43.177,t1_Paradigm,2021.1.4,60.070453752061105,
V,left,Distractor,0,33,33,33,1870.2393776057288,1872.2398616959108,right,0,4,0.8111480603693053,Z20J04,2022-10-20_09h15.43.177,t1_Paradigm,2021.1.4,60.070453752061105,
R,left,Distractor,0,34,34,34,1873.7397086733836,1875.7396987284883,left,1,4,0.9113380392664112,Z20J04,2022-10-20_09h15.43.177,t1_Paradigm,2021.1.4,60.070453752061105,
S,right,Target,0,35,35,35,1877.2395511596114,1879.239561425231,right,1,4,1.0435870406217873,Z20J04,2022-10-20_09h15.43.177,t1_Paradigm,2021.1.4,60.070453752061105,
Y,left,Distractor,0,36,36,36,1880.739620452805,1882.739649966592,left,1,4,0.5998011669144034,Z20J04,2022-10-20_09h15.43.177,t1_Paradigm,2021.1.4,60.070453752061105,
N,left,Pretarget,0,37,37,37,1884.2397625680896,1886.2396961620543,left,1,4,0.6995118677732535,Z20J04,2022-10-20_09h15.43.177,t1_Paradigm,2021.1.4,60.070453752061105,
Z,left,Pretarget,0,38,38,38,1887.7392197711742,1889.7395004729042,left,1,4,0.6875286315334961,Z20J04,2022-10-20_09h15.43.177,t1_Paradigm,2021.1.4,60.070453752061105,
P,left,Pretarget,0,39,39,39,1891.2394648638438,1893.2397638512775,left,1,4,0.579384689044673,Z20J04,2022-10-20_09h15.43.177,t1_Paradigm,2021.1.4,60.070453752061105,
M,left,Distractor,0,40,40,40,1894.7393432799145,1896.7397728337673,left,1,4,0.6794569336343557,Z20J04,2022-10-20_09h15.43.177,t1_Paradigm,2021.1.4,60.070453752061105,
N,right,Target,0,41,41,41,1898.2397080317605,1900.2395572548267,left,0,4,0.7475663963705301,Z20J04,2022-10-20_09h15.43.177,t1_Paradigm,2021.1.4,60.070453752061105,
Z,right,Target,0,42,42,42,1901.7393413551035,1903.7398754903697,right,1,4,1.0392485149786808,Z20J04,2022-10-20_09h15.43.177,t1_Paradigm,2021.1.4,60.070453752061105,
P,right,Target,0,43,43,43,1905.2393487335648,1907.240520623105,left,0,4,0.5786096315132454,Z20J04,2022-10-20_09h15.43.177,t1_Paradigm,2021.1.4,60.070453752061105,
X,left,Pretarget,0,44,44,44,1908.7394809039542,1910.7398414853378,left,1,4,0.8072583366883919,Z20J04,2022-10-20_09h15.43.177,t1_Paradigm,2021.1.4,60.070453752061105,
Z,left,Lure,0,45,45,45,1912.2394125731662,1914.2396907084621,right,0,4,0.7315538876573555,Z20J04,2022-10-20_09h15.43.177,t1_Paradigm,2021.1.4,60.070453752061105,
R,left,Pretarget,0,46,46,46,1915.7393840217846,1917.7402225980768,left,1,4,0.5589143163524568,Z20J04,2022-10-20_09h15.43.177,t1_Paradigm,2021.1.4,60.070453752061105,
K,left,Distractor,0,47,47,47,1919.2393163325614,1921.241353104182,left,1,4,0.6256513883708976,Z20J04,2022-10-20_09h15.43.177,t1_Paradigm,2021.1.4,60.070453752061105,
X,right,Target,0,48,48,48,1922.7394606934395,1924.7393211445888,right,1,4,0.7918338579474948,Z20J04,2022-10-20_09h15.43.177,t1_Paradigm,2021.1.4,60.070453752061105,
B,left,Distractor,0,49,49,49,1926.2397237510304,1928.239680122002,left,1,4,0.4434381243772805,Z20J04,2022-10-20_09h15.43.177,t1_Paradigm,2021.1.4,60.070453752061105,
R,right,Target,0,50,50,50,1929.7395110593643,1931.7407589789364,left,0,4,0.6863942758645862,Z20J04,2022-10-20_09h15.43.177,t1_Paradigm,2021.1.4,60.070453752061105,
Y,left,Pretarget,0,51,51,51,1933.2396951996488,1935.239708352543,right,0,4,0.7233464904711582,Z20J04,2022-10-20_09h15.43.177,t1_Paradigm,2021.1.4,60.070453752061105,
W,left,Pretarget,0,52,52,52,1936.7393930042163,1938.7396666483255,left,1,4,0.5513619967387058,Z20J04,2022-10-20_09h15.43.177,t1_Paradigm,2021.1.4,60.070453752061105,
Z,left,Distractor,0,53,53,53,1940.2222531974548,1942.2224482450401,right,0,4,0.7807004261994734,Z20J04,2022-10-20_09h15.43.177,t1_Paradigm,2021.1.4,60.070453752061105,
Q,left,Distractor,0,54,54,54,1943.7226022299728,1945.7235341596534,left,1,4,0.8159956986783072,Z20J04,2022-10-20_09h15.43.177,t1_Paradigm,2021.1.4,60.070453752061105,
Y,right,Target,0,55,55,55,1947.2228251873166,1949.2234947010293,right,1,4,0.8994751038844697,Z20J04,2022-10-20_09h15.43.177,t1_Paradigm,2021.1.4,60.070453752061105,
W,right,Target,0,56,56,56,1950.7227770670434,1952.7226631823578,right,1,4,0.776452366670128,Z20J04,2022-10-20_09h15.43.177,t1_Paradigm,2021.1.4,60.070453752061105,
H,left,Pretarget,0,57,57,57,1954.2227982399636,1956.222793748777,left,1,4,0.4763033220660873,Z20J04,2022-10-20_09h15.43.177,t1_Paradigm,2021.1.4,60.070453752061105,
M,left,Distractor,0,58,58,58,1957.7231649166206,1959.7237612874596,left,1,4,0.815717242541723,Z20J04,2022-10-20_09h15.43.177,t1_Paradigm,2021.1.4,60.070453752061105,
R,left,Pretarget,0,59,59,59,1961.222937468032,1963.2228880645125,left,1,4,0.6920946058235131,Z20J04,2022-10-20_09h15.43.177,t1_Paradigm,2021.1.4,60.070453752061105,
J,left,Distractor,0,60,60,60,1964.7228059392073,1966.722791823966,left,1,4,0.8882890605018474,Z20J04,2022-10-20_09h15.43.177,t1_Paradigm,2021.1.4,60.070453752061105,
H,right,Target,0,61,61,61,1968.2228633627528,1970.2226959041436,right,1,4,0.7484915892127901,Z20J04,2022-10-20_09h15.43.177,t1_Paradigm,2021.1.4,60.070453752061105,
Z,left,Distractor,0,62,62,62,1971.7228976885672,1973.7243874928681,left,1,4,0.6866852432140149,Z20J04,2022-10-20_09h15.43.177,t1_Paradigm,2021.1.4,60.070453752061105,
R,right,Target,0,63,63,63,1975.2397603224963,1977.239434708492,right,1,4,0.7876137082930654,Z20J04,2022-10-20_09h15.43.177,t1_Paradigm,2021.1.4,60.070453752061105,
J,left,Pretarget,0,0,0,0,1986.1869444512413,1988.1911405408173,None,0,4,,Z20J04,2022-10-20_09h15.43.177,t1_Paradigm,2021.1.4,60.070453752061105,
G,left,Pretarget,0,1,1,1,1989.6892426764243,1991.6896670974093,None,0,4,,Z20J04,2022-10-20_09h15.43.177,t1_Paradigm,2021.1.4,60.070453752061105,
Z,left,Distractor,0,2,2,2,1993.1897537139594,1995.1892539045075,None,0,4,,Z20J04,2022-10-20_09h15.43.177,t1_Paradigm,2021.1.4,60.070453752061105,
F,left,Distractor,0,3,3,3,1996.6893613731372,1998.6910269769141,None,0,4,,Z20J04,2022-10-20_09h15.43.177,t1_Paradigm,2021.1.4,60.070453752061105,
J,right,Target,0,4,4,4,2000.1895172828808,2002.1906169920112,right,1,4,0.46037133468780667,Z20J04,2022-10-20_09h15.43.177,t1_Paradigm,2021.1.4,60.070453752061105,
G,right,Target,0,5,5,5,2003.6897065560333,2005.6904626862379,right,1,4,0.44886448938632384,Z20J04,2022-10-20_09h15.43.177,t1_Paradigm,2021.1.4,60.070453752061105,
H,left,Distractor,0,6,6,6,2007.1894338743878,2009.1893061952433,left,1,4,0.5978596735512838,Z20J04,2022-10-20_09h15.43.177,t1_Paradigm,2021.1.4,60.070453752061105,
P,left,Distractor,0,7,7,7,2010.6894473480643,2012.690956721257,left,1,4,0.6482191642280668,Z20J04,2022-10-20_09h15.43.177,t1_Paradigm,2021.1.4,60.070453752061105,
G,left,Lure,0,8,8,8,2014.1895830472931,2016.1896978943842,left,1,4,0.8612541174516082,Z20J04,2022-10-20_09h15.43.177,t1_Paradigm,2021.1.4,60.070453752061105,
S,left,Distractor,0,9,9,9,2017.6893780548708,2019.689617052325,left,1,4,0.6575493682175875,Z20J04,2022-10-20_09h15.43.177,t1_Paradigm,2021.1.4,60.070453752061105,
R,left,Pretarget,0,10,10,10,2021.1897553179879,2023.1892202203162,left,1,4,0.5819517462514341,Z20J04,2022-10-20_09h15.43.177,t1_Paradigm,2021.1.4,60.070453752061105,
T,left,Pretarget,0,11,11,11,2024.6897235585493,2026.6906657539075,left,1,4,0.520373490464408,Z20J04,2022-10-20_09h15.43.177,t1_Paradigm,2021.1.4,60.070453752061105,
X,left,Distractor,0,12,12,12,2028.189685383113,2030.1904421549407,left,1,4,0.6524184617446736,Z20J04,2022-10-20_09h15.43.177,t1_Paradigm,2021.1.4,60.070453752061105,
F,left,Pretarget,0,13,13,13,2031.689720029768,2033.6907879794599,left,1,4,0.8965086481766775,Z20J04,2022-10-20_09h15.43.177,t1_Paradigm,2021.1.4,60.070453752061105,
R,right,Target,0,14,14,14,2035.1896725510596,2037.1892243907205,left,0,4,0.7738519460544921,Z20J04,2022-10-20_09h15.43.177,t1_Paradigm,2021.1.4,60.070453752061105,
T,right,Target,0,15,15,15,2038.6893376338412,2040.689805363072,left,0,4,0.8253480380517431,Z20J04,2022-10-20_09h15.43.177,t1_Paradigm,2021.1.4,60.070453752061105,
C,left,Distractor,0,16,16,16,2042.189672871842,2044.1912239493104,left,1,4,0.731986970291473,Z20J04,2022-10-20_09h15.43.177,t1_Paradigm,2021.1.4,60.070453752061105,
F,right,Target,0,17,17,17,2045.6896901951404,2047.6891935937456,left,0,4,0.5782031754497439,Z20J04,2022-10-20_09h15.43.177,t1_Paradigm,2021.1.4,60.070453752061105,
M,left,Distractor,0,18,18,18,2049.189456330554,2051.189986936981,left,1,4,0.5494009344256483,Z20J04,2022-10-20_09h15.43.177,t1_Paradigm,2021.1.4,60.070453752061105,
N,left,Distractor,0,19,19,19,2052.6894948267727,2054.691425733734,left,1,4,0.6957591265090741,Z20J04,2022-10-20_09h15.43.177,t1_Paradigm,2021.1.4,60.070453752061105,
R,left,Lure,0,20,20,20,2056.189266736561,2058.1894402904436,left,1,4,0.8615505384514108,Z20J04,2022-10-20_09h15.43.177,t1_Paradigm,2021.1.4,60.070453752061105,
F,right,Target,0,21,21,21,2059.689405643847,2061.689729974605,right,1,4,0.7373081122641452,Z20J04,2022-10-20_09h15.43.177,t1_Paradigm,2021.1.4,60.070453752061105,
P,left,Distractor,0,22,22,22,2063.189541022235,2065.190371578501,left,1,4,0.4685803359025158,Z20J04,2022-10-20_09h15.43.177,t1_Paradigm,2021.1.4,60.070453752061105,
L,left,Pretarget,0,23,23,23,2066.689650415734,2068.690162094834,left,1,4,0.48890827246941626,Z20J04,2022-10-20_09h15.43.177,t1_Paradigm,2021.1.4,60.070453752061105,
T,left,Distractor,0,24,24,24,2070.189342125028,2072.191237422987,left,1,4,0.5558679809910245,Z20J04,2022-10-20_09h15.43.177,t1_Paradigm,2021.1.4,60.070453752061105,
F,left,Distractor,0,25,25,25,2073.6894473480643,2075.6894114182796,right,0,4,0.8658091843826696,Z20J04,2022-10-20_09h15.43.177,t1_Paradigm,2021.1.4,60.070453752061105,
V,left,Distractor,0,26,26,26,2077.1892583957524,2079.1912970921258,left,1,4,0.6278742251452059,Z20J04,2022-10-20_09h15.43.177,t1_Paradigm,2021.1.4,60.070453752061105,
L,right,Target,0,27,27,27,2080.6891948769335,2082.6903337239055,right,1,4,1.0326432028086856,Z20J04,2022-10-20_09h15.43.177,t1_Paradigm,2021.1.4,60.070453752061105,
S,left,Pretarget,0,28,28,28,2084.1893713180325,2086.189277964644,left,1,4,0.5898004868067801,Z20J04,2022-10-20_09h15.43.177,t1_Paradigm,2021.1.4,60.070453752061105,
W,left,Distractor,0,29,29,29,2087.6896706262487,2089.6895236989367,left,1,4,0.5614220252609812,Z20J04,2022-10-20_09h15.43.177,t1_Paradigm,2021.1.4,60.070453752061105,
Q,left,Distractor,0,30,30,30,2091.189248450857,2093.1895012428286,left,1,4,0.4695244560134597,Z20J04,2022-10-20_09h15.43.177,t1_Paradigm,2021.1.4,60.070453752061105,
L,right,Target,0,31,31,31,2094.68930009997,2096.689388641331,right,1,4,0.8737195190042257,Z20J04,2022-10-20_09h15.43.177,t1_Paradigm,2021.1.4,60.070453752061105,
S,right,Target,0,32,32,32,2098.189636621217,2100.1900863855844,left,0,4,0.5890366573585197,Z20J04,2022-10-20_09h15.43.177,t1_Paradigm,2021.1.4,60.070453752061105,
Z,left,Pretarget,0,33,33,33,2101.689757563581,2103.6903869769885,left,1,4,0.6247396692051552,Z20J04,2022-10-20_09h15.43.177,t1_Paradigm,2021.1.4,60.070453752061105,
F,left,Distractor,0,34,34,34,2105.1893045912147,2107.189781623718,right,0,4,0.725208745803684,Z20J04,2022-10-20_09h15.43.177,t1_Paradigm,2021.1.4,60.070453752061105,
V,left,Distractor,0,35,35,35,2108.689673513465,2110.6895785561064,left,1,4,0.5373702195938677,Z20J04,2022-10-20_09h15.43.177,t1_Paradigm,2021.1.4,60.070453752061105,
M,left,Distractor,0,36,36,36,2112.1891817240394,2114.1894617841463,left,1,4,0.669420002901461,Z20J04,2022-10-20_09h15.43.177,t1_Paradigm,2021.1.4,60.070453752061105,
Z,right,Target,0,37,37,37,2115.6894611425814,2117.6911822450347,left,0,4,0.5760958273895085,Z20J04,2022-10-20_09h15.43.177,t1_Paradigm,2021.1.4,60.070453752061105,
H,left,Pretarget,0,38,38,38,2119.1894213631167,2121.191452681087,left,1,4,0.5636660348973237,Z20J04,2022-10-20_09h15.43.177,t1_Paradigm,2021.1.4,60.070453752061105,
L,left,Distractor,0,39,39,39,2122.6895682904287,2124.689577593701,left,1,4,0.665620424610097,Z20J04,2022-10-20_09h15.43.177,t1_Paradigm,2021.1.4,60.070453752061105,
G,left,Distractor,0,40,40,40,2126.189474616258,2128.189777132473,left,1,4,0.7654267243342474,Z20J04,2022-10-20_09h15.43.177,t1_Paradigm,2021.1.4,60.070453752061105,
K,left,Distractor,0,41,41,41,2129.6892275987193,2131.691279448045,left,1,4,0.671787842118647,Z20J04,2022-10-20_09h15.43.177,t1_Paradigm,2021.1.4,60.070453752061105,
H,right,Target,0,42,42,42,2133.189137453388,2135.1902195183793,left,0,4,0.6289210018585436,Z20J04,2022-10-20_09h15.43.177,t1_Paradigm,2021.1.4,60.070453752061105,
B,left,Distractor,0,43,43,43,2136.6892256739084,2138.6897736036917,left,1,4,0.7133541512303054,Z20J04,2022-10-20_09h15.43.177,t1_Paradigm,2021.1.4,60.070453752061105,
Z,left,Distractor,0,44,44,44,2140.1893600899493,2142.1895897841314,right,0,4,0.8935800471226685,Z20J04,2022-10-20_09h15.43.177,t1_Paradigm,2021.1.4,60.070453752061105,
T,left,Pretarget,0,45,45,45,2143.689708801685,2145.691000029561,right,0,4,1.1999831257853657,Z20J04,2022-10-20_09h15.43.177,t1_Paradigm,2021.1.4,60.070453752061105,
H,right,Target,0,46,46,46,2147.189548721479,2149.1909794982057,right,1,4,0.7560022045508958,Z20J04,2022-10-20_09h15.43.177,t1_Paradigm,2021.1.4,60.070453752061105,
F,left,Distractor,0,47,47,47,2150.689727729012,2152.6897235585493,left,1,4,0.8093871784512885,Z20J04,2022-10-20_09h15.43.177,t1_Paradigm,2021.1.4,60.070453752061105,
R,left,Distractor,0,48,48,48,2154.189375488437,2156.1894094934687,left,1,4,0.6853500654688105,Z20J04,2022-10-20_09h15.43.177,t1_Paradigm,2021.1.4,60.070453752061105,
T,right,Target,0,49,49,49,2157.6892853431054,2159.68967800471,right,1,4,0.5775298121152446,Z20J04,2022-10-20_09h15.43.177,t1_Paradigm,2021.1.4,60.070453752061105,
H,right,Target,0,50,50,50,2161.1892571125063,2163.1891599095543,right,1,4,0.6936819338006899,Z20J04,2022-10-20_09h15.43.177,t1_Paradigm,2021.1.4,60.070453752061105,
Y,left,Pretarget,0,51,51,51,2164.689659077383,2166.6907635984826,left,1,4,0.5522220667917281,Z20J04,2022-10-20_09h15.43.177,t1_Paradigm,2021.1.4,60.070453752061105,
H,left,Distractor,0,52,52,52,2168.189666776627,2170.1908768416033,right,0,4,0.6679282737895846,Z20J04,2022-10-20_09h15.43.177,t1_Paradigm,2021.1.4,60.070453752061105,
S,left,Distractor,0,53,53,53,2171.6892676989664,2173.6896552277612,left,1,4,0.7852673627785407,Z20J04,2022-10-20_09h15.43.177,t1_Paradigm,2021.1.4,60.070453752061105,
Q,left,Distractor,0,54,54,54,2175.1894579345244,2177.1903837689897,left,1,4,0.5164965988951735,Z20J04,2022-10-20_09h15.43.177,t1_Paradigm,2021.1.4,60.070453752061105,
Y,right,Target,0,55,55,55,2178.6892564709415,2180.6895791976713,right,1,4,0.9054163560504094,Z20J04,2022-10-20_09h15.43.177,t1_Paradigm,2021.1.4,60.070453752061105,
R,left,Distractor,0,56,56,56,2182.1891720999847,2184.1901887214044,left,1,4,0.5569173242547549,Z20J04,2022-10-20_09h15.43.177,t1_Paradigm,2021.1.4,60.070453752061105,
H,left,Pretarget,0,57,57,57,2185.6892349771806,2187.6898300648318,right,0,4,0.6412952956161462,Z20J04,2022-10-20_09h15.43.177,t1_Paradigm,2021.1.4,60.070453752061105,
J,left,Distractor,0,58,58,58,2189.1896093530813,2191.1894698042306,left,1,4,0.6775042121298611,Z20J04,2022-10-20_09h15.43.177,t1_Paradigm,2021.1.4,60.070453752061105,
V,left,Distractor,0,59,59,59,2192.689250375668,2194.6895445510745,left,1,4,0.6496682266588323,Z20J04,2022-10-20_09h15.43.177,t1_Paradigm,2021.1.4,60.070453752061105,
Y,left,Lure,0,60,60,60,2196.189611919457,2198.189166967175,left,1,4,0.9738296181894839,Z20J04,2022-10-20_09h15.43.177,t1_Paradigm,2021.1.4,60.070453752061105,
H,right,Target,0,61,61,61,2199.6892433180474,2201.689486485906,right,1,4,0.8014418765087612,Z20J04,2022-10-20_09h15.43.177,t1_Paradigm,2021.1.4,60.070453752061105,
L,left,Distractor,0,62,62,62,2203.1894364408217,2205.189849954564,left,1,4,0.549312072340399,Z20J04,2022-10-20_09h15.43.177,t1_Paradigm,2021.1.4,60.070453752061105,
P,left,Distractor,0,63,63,63,2206.6896199395414,2208.690887107223,right,0,4,0.7122961464338005,Z20J04,2022-10-20_09h15.43.177,t1_Paradigm,2021.1.4,60.070453752061105,
