Letter,CorrAnswer,Stimulus,nback_run.thisRepN,nback_run.thisTrialN,nback_run.thisN,nback_run.thisIndex,fixcross.started,nback_trial.started,trial_resp.keys,trial_resp.corr,currentlevel,trial_resp.rt,Participant,date,expName,psychopyVersion,frameRate,
H,left,Distractor,0,0,0,0,452.7854591568307,454.7700642116365,None,0,1,,Z23N021,2022-11-28_09h21.04.321,t1_Paradigm,2021.1.4,60.00358035896724,
Q,left,Pretarget,0,1,1,1,456.2712794078775,458.27154054033235,left,1,1,0.8967025451111112,Z23N021,2022-11-28_09h21.04.321,t1_Paradigm,2021.1.4,60.00358035896724,
Q,right,Target,0,2,2,2,459.76789880122897,461.7675504107542,right,1,1,0.5632495528025174,Z23N021,2022-11-28_09h21.04.321,t1_Paradigm,2021.1.4,60.00358035896724,
T,left,Distractor,0,3,3,3,463.26703969469963,465.2686238127135,left,1,1,1.1051982040244184,Z23N021,2022-11-28_09h21.04.321,t1_Paradigm,2021.1.4,60.00358035896724,
Q,left,Lure,0,4,4,4,466.76659506376245,468.7678606258455,left,1,1,1.4204572576859391,Z23N021,2022-11-28_09h21.04.321,t1_Paradigm,2021.1.4,60.00358035896724,
L,left,Distractor,0,5,5,5,470.2659861824359,472.2674904208661,left,1,1,1.0507905833196673,Z23N021,2022-11-28_09h21.04.321,t1_Paradigm,2021.1.4,60.00358035896724,
V,left,Pretarget,0,6,6,6,473.7655591955836,475.7672036242875,None,0,1,,Z23N021,2022-11-28_09h21.04.321,t1_Paradigm,2021.1.4,60.00358035896724,
V,right,Target,0,7,7,7,477.26548220321365,479.26464170317377,right,1,1,0.9095795190028184,Z23N021,2022-11-28_09h21.04.321,t1_Paradigm,2021.1.4,60.00358035896724,
K,left,Distractor,0,8,8,8,480.764294275104,482.76612605190803,left,1,1,0.6030010342642527,Z23N021,2022-11-28_09h21.04.321,t1_Paradigm,2021.1.4,60.00358035896724,
G,left,Pretarget,0,9,9,9,484.26346564472124,486.2654026444311,left,1,1,1.024855061863036,Z23N021,2022-11-28_09h21.04.321,t1_Paradigm,2021.1.4,60.00358035896724,
G,right,Target,0,10,10,10,487.76303127943356,489.76276629736003,right,1,1,0.8896490816096048,Z23N021,2022-11-28_09h21.04.321,t1_Paradigm,2021.1.4,60.00358035896724,
G,right,Target,0,11,11,11,491.26244902463486,493.2621795513396,right,1,1,0.8461657158109119,Z23N021,2022-11-28_09h21.04.321,t1_Paradigm,2021.1.4,60.00358035896724,
P,left,Pretarget,0,12,12,12,494.7616229606647,496.76339282277104,left,1,1,0.5031939001510182,Z23N021,2022-11-28_09h21.04.321,t1_Paradigm,2021.1.4,60.00358035896724,
P,right,Target,0,13,13,13,498.261324936032,500.2608963451721,right,1,1,0.6616095511599269,Z23N021,2022-11-28_09h21.04.321,t1_Paradigm,2021.1.4,60.00358035896724,
G,left,Lure,0,14,14,14,501.7606900697806,503.7629886128284,left,1,1,1.047472532971824,Z23N021,2022-11-28_09h21.04.321,t1_Paradigm,2021.1.4,60.00358035896724,
Y,left,Distractor,0,15,15,15,505.2602059802539,507.26306271798467,left,1,1,0.9549729371819922,Z23N021,2022-11-28_09h21.04.321,t1_Paradigm,2021.1.4,60.00358035896724,
B,left,Distractor,0,16,16,16,508.75907162600197,510.75865330079114,left,1,1,0.548677784364827,Z23N021,2022-11-28_09h21.04.321,t1_Paradigm,2021.1.4,60.00358035896724,
T,left,Pretarget,0,17,17,17,512.2588194759901,514.2595826628581,left,1,1,1.0132606525362462,Z23N021,2022-11-28_09h21.04.321,t1_Paradigm,2021.1.4,60.00358035896724,
T,right,Target,0,18,18,18,515.7582253515343,517.7581092213763,right,1,1,0.42064749300016047,Z23N021,2022-11-28_09h21.04.321,t1_Paradigm,2021.1.4,60.00358035896724,
S,left,Distractor,0,19,19,19,519.2577277883429,521.259415204453,left,1,1,1.0890763225361297,Z23N021,2022-11-28_09h21.04.321,t1_Paradigm,2021.1.4,60.00358035896724,
T,left,Lure,0,20,20,20,522.7571076789623,524.7584143036424,left,1,1,1.0462060084846598,Z23N021,2022-11-28_09h21.04.321,t1_Paradigm,2021.1.4,60.00358035896724,
J,left,Distractor,0,21,21,21,526.2566393087113,528.2575013024543,left,1,1,0.5710604287446586,Z23N021,2022-11-28_09h21.04.321,t1_Paradigm,2021.1.4,60.00358035896724,
P,left,Distractor,0,22,22,22,529.7559351493269,531.7555630195379,left,1,1,0.5494717681813199,Z23N021,2022-11-28_09h21.04.321,t1_Paradigm,2021.1.4,60.00358035896724,
F,left,Distractor,0,23,23,23,533.255299641472,535.2570592379293,left,1,1,0.6424865712474457,Z23N021,2022-11-28_09h21.04.321,t1_Paradigm,2021.1.4,60.00358035896724,
L,left,Distractor,0,24,24,24,536.7546689456408,538.7566312886725,left,1,1,0.7338623992363864,Z23N021,2022-11-28_09h21.04.321,t1_Paradigm,2021.1.4,60.00358035896724,
W,left,Pretarget,0,25,25,25,540.2543151015402,542.2577752669708,left,1,1,0.5830102861805244,Z23N021,2022-11-28_09h21.04.321,t1_Paradigm,2021.1.4,60.00358035896724,
W,right,Target,0,26,26,26,543.7527319459309,545.7533764362283,right,1,1,0.7024815924073664,Z23N021,2022-11-28_09h21.04.321,t1_Paradigm,2021.1.4,60.00358035896724,
V,left,Distractor,0,27,27,27,547.2530973388871,549.2544700486847,left,1,1,0.8654831014578122,Z23N021,2022-11-28_09h21.04.321,t1_Paradigm,2021.1.4,60.00358035896724,
W,left,Lure,0,28,28,28,550.768995300899,552.7698033999832,left,1,1,0.8637395450773511,Z23N021,2022-11-28_09h21.04.321,t1_Paradigm,2021.1.4,60.00358035896724,
R,left,Pretarget,0,29,29,29,554.2686578176767,556.2698515202142,left,1,1,0.5630545054650611,Z23N021,2022-11-28_09h21.04.321,t1_Paradigm,2021.1.4,60.00358035896724,
R,right,Target,0,30,30,30,557.768055673183,559.7675282754481,right,1,1,0.5376444569346859,Z23N021,2022-11-28_09h21.04.321,t1_Paradigm,2021.1.4,60.00358035896724,
G,left,Distractor,0,31,31,31,561.2672353836401,563.2693494658015,left,1,1,0.7694473102715165,Z23N021,2022-11-28_09h21.04.321,t1_Paradigm,2021.1.4,60.00358035896724,
R,left,Lure,0,32,32,32,564.7666755849496,566.7675491275481,left,1,1,0.7479648350181378,Z23N021,2022-11-28_09h21.04.321,t1_Paradigm,2021.1.4,60.00358035896724,
S,left,Distractor,0,33,33,33,568.2662572597387,570.2669559654973,left,1,1,0.5579653098047856,Z23N021,2022-11-28_09h21.04.321,t1_Paradigm,2021.1.4,60.00358035896724,
R,left,Lure,0,34,34,34,571.7656349047475,573.7666720561324,left,1,1,0.9013817564014062,Z23N021,2022-11-28_09h21.04.321,t1_Paradigm,2021.1.4,60.00358035896724,
P,left,Pretarget,0,35,35,35,575.2650597075831,577.2661010293882,left,1,1,0.7648598482223861,Z23N021,2022-11-28_09h21.04.321,t1_Paradigm,2021.1.4,60.00358035896724,
P,right,Target,0,36,36,36,578.7644524302641,580.7638008823324,right,1,1,0.5518566068435575,Z23N021,2022-11-28_09h21.04.321,t1_Paradigm,2021.1.4,60.00358035896724,
Y,left,Pretarget,0,37,37,37,582.2636921306098,584.2758039928244,left,1,1,0.7451728991986784,Z23N021,2022-11-28_09h21.04.321,t1_Paradigm,2021.1.4,60.00358035896724,
Y,right,Target,0,38,38,38,585.7632779758192,587.7629408133989,right,1,1,0.7549987296260952,Z23N021,2022-11-28_09h21.04.321,t1_Paradigm,2021.1.4,60.00358035896724,
J,left,Distractor,0,39,39,39,589.2625064481108,591.2645743348503,left,1,1,0.7053954328125656,Z23N021,2022-11-28_09h21.04.321,t1_Paradigm,2021.1.4,60.00358035896724,
Y,left,Lure,0,40,40,40,592.7617576973121,594.7643953275897,right,0,1,0.7269449555878964,Z23N021,2022-11-28_09h21.04.321,t1_Paradigm,2021.1.4,60.00358035896724,
T,left,Distractor,0,41,41,41,596.2614160436701,598.26249169124,left,1,1,0.65256872210648,Z23N021,2022-11-28_09h21.04.321,t1_Paradigm,2021.1.4,60.00358035896724,
V,left,Distractor,0,42,42,42,599.7609082148292,601.7623916011589,left,1,1,0.6085906803305079,Z23N021,2022-11-28_09h21.04.321,t1_Paradigm,2021.1.4,60.00358035896724,
N,left,Pretarget,0,43,43,43,603.2601386119304,605.2607106010796,left,1,1,0.5952546394319143,Z23N021,2022-11-28_09h21.04.321,t1_Paradigm,2021.1.4,60.00358035896724,
N,right,Target,0,44,44,44,606.7598325672593,608.7591123677976,left,0,1,1.388569905222539,Z23N021,2022-11-28_09h21.04.321,t1_Paradigm,2021.1.4,60.00358035896724,
N,right,Target,0,45,45,45,610.2591335406996,612.2589830847764,right,1,1,0.636379151492747,Z23N021,2022-11-28_09h21.04.321,t1_Paradigm,2021.1.4,60.00358035896724,
X,left,Distractor,0,46,46,46,613.7583129303553,615.7602034138417,left,1,1,0.5420217939731629,Z23N021,2022-11-28_09h21.04.321,t1_Paradigm,2021.1.4,60.00358035896724,
Z,left,Distractor,0,47,47,47,617.2576049213521,619.2600728476141,left,1,1,0.5718630742026107,Z23N021,2022-11-28_09h21.04.321,t1_Paradigm,2021.1.4,60.00358035896724,
H,left,Pretarget,0,48,48,48,620.7574599190552,622.7589307941248,left,1,1,0.5695350174132727,Z23N021,2022-11-28_09h21.04.321,t1_Paradigm,2021.1.4,60.00358035896724,
H,right,Target,0,49,49,49,624.2566534239791,626.256143670329,right,1,1,0.6467567605718614,Z23N021,2022-11-28_09h21.04.321,t1_Paradigm,2021.1.4,60.00358035896724,
K,left,Distractor,0,50,50,50,627.7560015552458,629.7570752780066,left,1,1,0.5043689961989912,Z23N021,2022-11-28_09h21.04.321,t1_Paradigm,2021.1.4,60.00358035896724,
V,left,Pretarget,0,51,51,51,631.2555187489252,633.2561125525795,left,1,1,0.5512814096791772,Z23N021,2022-11-28_09h21.04.321,t1_Paradigm,2021.1.4,60.00358035896724,
V,right,Target,0,52,52,52,634.7545467202535,636.7544511213937,None,0,1,,Z23N021,2022-11-28_09h21.04.321,t1_Paradigm,2021.1.4,60.00358035896724,
R,left,Distractor,0,53,53,53,638.2543362744418,640.2556547687791,left,1,1,0.6812714776633584,Z23N021,2022-11-28_09h21.04.321,t1_Paradigm,2021.1.4,60.00358035896724,
V,left,Lure,0,54,54,54,641.7536324358589,643.7692952503407,left,1,1,0.5670728655791208,Z23N021,2022-11-28_09h21.04.321,t1_Paradigm,2021.1.4,60.00358035896724,
Y,left,Distractor,0,55,55,55,645.2529119155956,647.2550683435607,left,1,1,0.5939194634147498,Z23N021,2022-11-28_09h21.04.321,t1_Paradigm,2021.1.4,60.00358035896724,
Q,left,Distractor,0,56,56,56,648.7695121121828,650.7707898647245,left,1,1,0.5708037875110676,Z23N021,2022-11-28_09h21.04.321,t1_Paradigm,2021.1.4,60.00358035896724,
Z,left,Pretarget,0,57,57,57,652.2683848155648,654.2708065464044,left,1,1,0.5352275381173968,Z23N021,2022-11-28_09h21.04.321,t1_Paradigm,2021.1.4,60.00358035896724,
Z,right,Target,0,58,58,58,655.7681198334913,657.7677297388163,right,1,1,0.5599433721117748,Z23N021,2022-11-28_09h21.04.321,t1_Paradigm,2021.1.4,60.00358035896724,
B,left,Distractor,0,59,59,59,659.2673621002491,661.2692185787723,left,1,1,0.6163842329892759,Z23N021,2022-11-28_09h21.04.321,t1_Paradigm,2021.1.4,60.00358035896724,
S,left,Pretarget,0,60,60,60,662.766938642214,664.7680341794794,left,1,1,0.6592721911256376,Z23N021,2022-11-28_09h21.04.321,t1_Paradigm,2021.1.4,60.00358035896724,
S,right,Target,0,61,61,61,666.2658931499886,668.2659146436922,left,0,1,0.5197838310891711,Z23N021,2022-11-28_09h21.04.321,t1_Paradigm,2021.1.4,60.00358035896724,
T,left,Distractor,0,62,62,62,669.7656650600925,671.7674301101761,left,1,1,0.5316576585596522,Z23N021,2022-11-28_09h21.04.321,t1_Paradigm,2021.1.4,60.00358035896724,
D,left,Distractor,0,63,63,63,673.2647222243609,675.2664369086024,left,1,1,0.521608550259316,Z23N021,2022-11-28_09h21.04.321,t1_Paradigm,2021.1.4,60.00358035896724,
R,left,Distractor,0,0,0,0,688.445576980821,690.4288792605653,None,0,1,,Z23N021,2022-11-28_09h21.04.321,t1_Paradigm,2021.1.4,60.00358035896724,
V,left,Distractor,0,1,1,1,691.9285555718093,693.9292693552402,left,1,1,0.5192214659864476,Z23N021,2022-11-28_09h21.04.321,t1_Paradigm,2021.1.4,60.00358035896724,
N,left,Pretarget,0,2,2,2,695.4280496677779,697.4300280508869,left,1,1,0.6011808063153694,Z23N021,2022-11-28_09h21.04.321,t1_Paradigm,2021.1.4,60.00358035896724,
N,right,Target,0,3,3,3,698.9272216789982,700.9267671032135,right,1,1,0.5933397750281983,Z23N021,2022-11-28_09h21.04.321,t1_Paradigm,2021.1.4,60.00358035896724,
S,left,Distractor,0,4,4,4,702.426639103398,704.4280278532729,left,1,1,0.5406744274978337,Z23N021,2022-11-28_09h21.04.321,t1_Paradigm,2021.1.4,60.00358035896724,
N,left,Lure,0,5,5,5,705.9262839760913,707.9277121845557,left,1,1,0.6032551090852394,Z23N021,2022-11-28_09h21.04.321,t1_Paradigm,2021.1.4,60.00358035896724,
Z,left,Distractor,0,6,6,6,709.4253148346334,711.4276711219586,left,1,1,0.5599106503545954,Z23N021,2022-11-28_09h21.04.321,t1_Paradigm,2021.1.4,60.00358035896724,
L,left,Pretarget,0,7,7,7,712.9247906449136,714.9261524474591,left,1,1,0.5667052270118802,Z23N021,2022-11-28_09h21.04.321,t1_Paradigm,2021.1.4,60.00358035896724,
L,right,Target,0,8,8,8,716.4245256628401,718.424093543163,right,1,1,0.6066912144005983,Z23N021,2022-11-28_09h21.04.321,t1_Paradigm,2021.1.4,60.00358035896724,
H,left,Distractor,0,9,9,9,719.9239398792247,721.9248012313647,left,1,1,0.5990696113681224,Z23N021,2022-11-28_09h21.04.321,t1_Paradigm,2021.1.4,60.00358035896724,
L,left,Lure,0,10,10,10,723.4232129429306,725.4243309363042,left,1,1,0.7189095185667611,Z23N021,2022-11-28_09h21.04.321,t1_Paradigm,2021.1.4,60.00358035896724,
X,left,Pretarget,0,11,11,11,726.921789867291,728.9237737040257,left,1,1,0.7248520463285786,Z23N021,2022-11-28_09h21.04.321,t1_Paradigm,2021.1.4,60.00358035896724,
X,right,Target,0,12,12,12,730.4217032508745,732.4215027499108,right,1,1,0.7408305295275568,Z23N021,2022-11-28_09h21.04.321,t1_Paradigm,2021.1.4,60.00358035896724,
X,right,Target,0,13,13,13,733.9213850157448,735.9211181088622,right,1,1,0.6729222967337591,Z23N021,2022-11-28_09h21.04.321,t1_Paradigm,2021.1.4,60.00358035896724,
R,left,Distractor,0,14,14,14,737.4207851168617,739.422437565604,left,1,1,0.5303892092624665,Z23N021,2022-11-28_09h21.04.321,t1_Paradigm,2021.1.4,60.00358035896724,
T,left,Distractor,0,15,15,15,740.9203026313426,742.9219268495494,left,1,1,0.5810062389482482,Z23N021,2022-11-28_09h21.04.321,t1_Paradigm,2021.1.4,60.00358035896724,
V,left,Pretarget,0,16,16,16,744.419742832652,746.4218925237842,left,1,1,0.5738186804019278,Z23N021,2022-11-28_09h21.04.321,t1_Paradigm,2021.1.4,60.00358035896724,
V,right,Target,0,17,17,17,747.9191368385391,749.9188737812751,right,1,1,0.541427669517816,Z23N021,2022-11-28_09h21.04.321,t1_Paradigm,2021.1.4,60.00358035896724,
N,left,Distractor,0,18,18,18,751.418333230677,753.4191573698381,left,1,1,0.5424760489568143,Z23N021,2022-11-28_09h21.04.321,t1_Paradigm,2021.1.4,60.00358035896724,
B,left,Distractor,0,19,19,19,754.917792359277,756.918606874392,left,1,1,0.4989910791505281,Z23N021,2022-11-28_09h21.04.321,t1_Paradigm,2021.1.4,60.00358035896724,
V,left,Lure,0,20,20,20,758.4174664249108,760.4167536038844,left,1,1,0.5754265377299816,Z23N021,2022-11-28_09h21.04.321,t1_Paradigm,2021.1.4,60.00358035896724,
P,left,Distractor,0,21,21,21,761.9166028271597,763.9181702634937,left,1,1,0.615680394406354,Z23N021,2022-11-28_09h21.04.321,t1_Paradigm,2021.1.4,60.00358035896724,
K,left,Pretarget,0,22,22,22,765.4159958706427,767.4173740340666,left,1,1,0.6464333926173822,Z23N021,2022-11-28_09h21.04.321,t1_Paradigm,2021.1.4,60.00358035896724,
K,right,Target,0,23,23,23,768.9154585280598,770.9149657768917,right,1,1,0.8988817499853212,Z23N021,2022-11-28_09h21.04.321,t1_Paradigm,2021.1.4,60.00358035896724,
J,left,Pretarget,0,24,24,24,772.4148220578008,774.4162111284772,left,1,1,0.5972878796046643,Z23N021,2022-11-28_09h21.04.321,t1_Paradigm,2021.1.4,60.00358035896724,
J,right,Target,0,25,25,25,775.9309173127608,777.9303677797197,right,1,1,0.5676512707591428,Z23N021,2022-11-28_09h21.04.321,t1_Paradigm,2021.1.4,60.00358035896724,
H,left,Distractor,0,26,26,26,779.4303161306716,781.4321912156838,left,1,1,0.6082086056935623,Z23N021,2022-11-28_09h21.04.321,t1_Paradigm,2021.1.4,60.00358035896724,
J,left,Lure,0,27,27,27,782.929950096112,784.9319037775022,left,1,1,0.7035594855883573,Z23N021,2022-11-28_09h21.04.321,t1_Paradigm,2021.1.4,60.00358035896724,
V,left,Distractor,0,28,28,28,786.4293890142153,788.428795531363,left,1,1,0.5329338070932863,Z23N021,2022-11-28_09h21.04.321,t1_Paradigm,2021.1.4,60.00358035896724,
Z,left,Pretarget,0,29,29,29,789.9282636424064,791.9304341856387,left,1,1,0.6504203141803373,Z23N021,2022-11-28_09h21.04.321,t1_Paradigm,2021.1.4,60.00358035896724,
Z,right,Target,0,30,30,30,793.4278504500203,795.4277240542128,right,1,1,0.6502143595903362,Z23N021,2022-11-28_09h21.04.321,t1_Paradigm,2021.1.4,60.00358035896724,
T,left,Distractor,0,31,31,31,796.9271360249868,798.9292764128741,left,1,1,0.6785889351699552,Z23N021,2022-11-28_09h21.04.321,t1_Paradigm,2021.1.4,60.00358035896724,
Z,left,Lure,0,32,32,32,800.4267767272595,802.4282363742755,left,1,1,1.2394898998845747,Z23N021,2022-11-28_09h21.04.321,t1_Paradigm,2021.1.4,60.00358035896724,
F,left,Distractor,0,33,33,33,803.9261922268502,805.9275460093572,left,1,1,0.5850592456285995,Z23N021,2022-11-28_09h21.04.321,t1_Paradigm,2021.1.4,60.00358035896724,
Y,left,Pretarget,0,34,34,34,807.4257334806452,809.4265364469047,left,1,1,0.5831530428667975,Z23N021,2022-11-28_09h21.04.321,t1_Paradigm,2021.1.4,60.00358035896724,
Y,right,Target,0,35,35,35,810.9248685996886,812.9245731414685,right,1,1,0.6803126018548937,Z23N021,2022-11-28_09h21.04.321,t1_Paradigm,2021.1.4,60.00358035896724,
Y,right,Target,0,36,36,36,814.4242953273329,816.4239687513632,right,1,1,0.510963071893002,Z23N021,2022-11-28_09h21.04.321,t1_Paradigm,2021.1.4,60.00358035896724,
W,left,Distractor,0,37,37,37,817.9238407515481,819.9249253815615,left,1,1,0.6296933265580265,Z23N021,2022-11-28_09h21.04.321,t1_Paradigm,2021.1.4,60.00358035896724,
Q,left,Distractor,0,38,38,38,821.4224593801086,823.4247081989174,left,1,1,0.6920131964925531,Z23N021,2022-11-28_09h21.04.321,t1_Paradigm,2021.1.4,60.00358035896724,
P,left,Pretarget,0,39,39,39,824.9226858659972,826.9249115870953,left,1,1,0.6484226829788895,Z23N021,2022-11-28_09h21.04.321,t1_Paradigm,2021.1.4,60.00358035896724,
P,right,Target,0,40,40,40,828.4218950901964,830.4216272209092,right,1,1,0.5510456205456649,Z23N021,2022-11-28_09h21.04.321,t1_Paradigm,2021.1.4,60.00358035896724,
J,left,Distractor,0,41,41,41,831.9212663191743,833.9222620871606,left,1,1,0.6540280483204697,Z23N021,2022-11-28_09h21.04.321,t1_Paradigm,2021.1.4,60.00358035896724,
P,left,Lure,0,42,42,42,835.4210751214555,837.4330660414885,left,1,1,0.9746024627293082,Z23N021,2022-11-28_09h21.04.321,t1_Paradigm,2021.1.4,60.00358035896724,
L,left,Distractor,0,43,43,43,838.9202663807682,840.9219595713066,left,1,1,0.7142444225446525,Z23N021,2022-11-28_09h21.04.321,t1_Paradigm,2021.1.4,60.00358035896724,
Z,left,Distractor,0,44,44,44,842.4199032334227,844.4213083441764,left,1,1,0.7444478877146139,Z23N021,2022-11-28_09h21.04.321,t1_Paradigm,2021.1.4,60.00358035896724,
F,left,Pretarget,0,45,45,45,845.9191663522811,847.9201518546179,left,1,1,0.6855721431338679,Z23N021,2022-11-28_09h21.04.321,t1_Paradigm,2021.1.4,60.00358035896724,
F,right,Target,0,46,46,46,849.4184949146538,851.4181240680714,right,1,1,0.4727158288615101,Z23N021,2022-11-28_09h21.04.321,t1_Paradigm,2021.1.4,60.00358035896724,
G,left,Pretarget,0,47,47,47,852.9178260434392,854.9176078983905,left,1,1,0.796635561749099,Z23N021,2022-11-28_09h21.04.321,t1_Paradigm,2021.1.4,60.00358035896724,
G,right,Target,0,48,48,48,856.4172460342515,858.4172386558157,right,1,1,0.7288809928936644,Z23N021,2022-11-28_09h21.04.321,t1_Paradigm,2021.1.4,60.00358035896724,
V,left,Distractor,0,49,49,49,859.9167770223971,861.9156692946731,left,1,1,0.5648343124198618,Z23N021,2022-11-28_09h21.04.321,t1_Paradigm,2021.1.4,60.00358035896724,
G,left,Lure,0,50,50,50,863.4159493544189,865.4176172016355,left,1,1,0.8289659411416324,Z23N021,2022-11-28_09h21.04.321,t1_Paradigm,2021.1.4,60.00358035896724,
Q,left,Pretarget,0,51,51,51,866.9159487128159,868.915129385678,left,1,1,0.8002019124905928,Z23N021,2022-11-28_09h21.04.321,t1_Paradigm,2021.1.4,60.00358035896724,
Q,right,Target,0,52,52,52,870.4148316818469,872.4145400732455,right,1,1,0.5004799191069651,Z23N021,2022-11-28_09h21.04.321,t1_Paradigm,2021.1.4,60.00358035896724,
Y,left,Distractor,0,53,53,53,873.9144390207598,875.9161710282842,left,1,1,0.8955470179571421,Z23N021,2022-11-28_09h21.04.321,t1_Paradigm,2021.1.4,60.00358035896724,
V,left,Distractor,0,54,54,54,877.4305519198047,879.4426342682773,left,1,1,0.6009860797794317,Z23N021,2022-11-28_09h21.04.321,t1_Paradigm,2021.1.4,60.00358035896724,
B,left,Distractor,0,55,55,55,880.9298057354181,882.931194485293,left,1,1,0.7076195499025744,Z23N021,2022-11-28_09h21.04.321,t1_Paradigm,2021.1.4,60.00358035896724,
J,left,Pretarget,0,56,56,56,884.4293601420768,886.4306173633195,left,1,1,0.5586393138441963,Z23N021,2022-11-28_09h21.04.321,t1_Paradigm,2021.1.4,60.00358035896724,
J,right,Target,0,57,57,57,887.9286425090272,889.9283428803874,right,1,1,0.6025179071421007,Z23N021,2022-11-28_09h21.04.321,t1_Paradigm,2021.1.4,60.00358035896724,
H,left,Distractor,0,58,58,58,891.4280586502209,893.4288186290737,left,1,1,0.477784814025199,Z23N021,2022-11-28_09h21.04.321,t1_Paradigm,2021.1.4,60.00358035896724,
J,left,Lure,0,59,59,59,894.9275508213805,896.9285029603566,right,0,1,0.6707013876589372,Z23N021,2022-11-28_09h21.04.321,t1_Paradigm,2021.1.4,60.00358035896724,
D,left,Pretarget,0,60,60,60,898.4269817194449,900.4288006641873,left,1,1,0.6675248107912921,Z23N021,2022-11-28_09h21.04.321,t1_Paradigm,2021.1.4,60.00358035896724,
D,right,Target,0,61,61,61,901.9265188028198,903.9258271546955,right,1,1,0.6268744434091786,Z23N021,2022-11-28_09h21.04.321,t1_Paradigm,2021.1.4,60.00358035896724,
R,left,Distractor,0,62,62,62,905.4256779819789,907.4274741498116,left,1,1,0.47573521297363186,Z23N021,2022-11-28_09h21.04.321,t1_Paradigm,2021.1.4,60.00358035896724,
F,left,Distractor,0,63,63,63,908.9253311955117,910.9276448162323,left,1,1,0.6030488336941744,Z23N021,2022-11-28_09h21.04.321,t1_Paradigm,2021.1.4,60.00358035896724,
F,left,Distractor,0,0,0,0,1032.0832675690172,1034.0707819730064,None,0,2,,Z23N021,2022-11-28_09h21.04.321,t1_Paradigm,2021.1.4,60.00358035896724,
N,left,Pretarget,0,1,1,1,1035.5703495325279,1037.5714835659787,None,0,2,,Z23N021,2022-11-28_09h21.04.321,t1_Paradigm,2021.1.4,60.00358035896724,
V,left,Distractor,0,2,2,2,1039.0699251120882,1041.071114323404,left,1,2,0.7041905022210813,Z23N021,2022-11-28_09h21.04.321,t1_Paradigm,2021.1.4,60.00358035896724,
N,right,Target,0,3,3,3,1042.5691693036551,1044.57181046275,right,1,2,0.6516640617583107,Z23N021,2022-11-28_09h21.04.321,t1_Paradigm,2021.1.4,60.00358035896724,
N,left,Lure,0,4,4,4,1046.0687631689034,1048.0682110694497,left,1,2,1.2517663332896518,Z23N021,2022-11-28_09h21.04.321,t1_Paradigm,2021.1.4,60.00358035896724,
X,left,Distractor,0,5,5,5,1049.5678957215341,1051.569040662237,left,1,2,1.2488268287615938,Z23N021,2022-11-28_09h21.04.321,t1_Paradigm,2021.1.4,60.00358035896724,
G,left,Pretarget,0,6,6,6,1053.0668771766386,1055.0683525429295,left,1,2,0.8674483317035993,Z23N021,2022-11-28_09h21.04.321,t1_Paradigm,2021.1.4,60.00358035896724,
H,left,Pretarget,0,7,7,7,1056.566813978735,1058.5789887180513,left,1,2,0.7646352871433919,Z23N021,2022-11-28_09h21.04.321,t1_Paradigm,2021.1.4,60.00358035896724,
G,right,Target,0,8,8,8,1060.066168846834,1062.0673092963152,right,1,2,0.46422934487191014,Z23N021,2022-11-28_09h21.04.321,t1_Paradigm,2021.1.4,60.00358035896724,
H,right,Target,0,9,9,9,1063.5656003865015,1065.566833547629,right,1,2,0.9430108892875069,Z23N021,2022-11-28_09h21.04.321,t1_Paradigm,2021.1.4,60.00358035896724,
T,left,Pretarget,0,10,10,10,1067.0651810988866,1069.0670741487852,left,1,2,0.8061165305184659,Z23N021,2022-11-28_09h21.04.321,t1_Paradigm,2021.1.4,60.00358035896724,
K,left,Distractor,0,11,11,11,1070.564542062215,1072.5663940495165,left,1,2,0.6899498009747731,Z23N021,2022-11-28_09h21.04.321,t1_Paradigm,2021.1.4,60.00358035896724,
T,right,Target,0,12,12,12,1074.0637740633238,1076.0635475774352,right,1,2,1.2281206932393616,Z23N021,2022-11-28_09h21.04.321,t1_Paradigm,2021.1.4,60.00358035896724,
T,left,Lure,0,13,13,13,1077.5633149963173,1079.563180580471,left,1,2,1.0011965897515438,Z23N021,2022-11-28_09h21.04.321,t1_Paradigm,2021.1.4,60.00358035896724,
J,left,Distractor,0,14,14,14,1081.0631353474537,1083.0645670847352,left,1,2,0.8750718595456419,Z23N021,2022-11-28_09h21.04.321,t1_Paradigm,2021.1.4,60.00358035896724,
Q,left,Pretarget,0,15,15,15,1084.562212722219,1086.5633897430766,left,1,2,0.6291675328307065,Z23N021,2022-11-28_09h21.04.321,t1_Paradigm,2021.1.4,60.00358035896724,
M,left,Distractor,0,16,16,16,1088.0617934346042,1090.0643900022842,left,1,2,0.5969763813072859,Z23N021,2022-11-28_09h21.04.321,t1_Paradigm,2021.1.4,60.00358035896724,
Q,right,Target,0,17,17,17,1091.5608621477277,1093.5622553888243,right,1,2,0.5966883015225903,Z23N021,2022-11-28_09h21.04.321,t1_Paradigm,2021.1.4,60.00358035896724,
R,left,Distractor,0,18,18,18,1095.0602166950257,1097.0613982071045,left,1,2,0.6026196012307992,Z23N021,2022-11-28_09h21.04.321,t1_Paradigm,2021.1.4,60.00358035896724,
W,left,Distractor,0,19,19,19,1098.559606209691,1100.5611851948806,left,1,2,0.6899116255908666,Z23N021,2022-11-28_09h21.04.321,t1_Paradigm,2021.1.4,60.00358035896724,
C,left,Pretarget,0,20,20,20,1102.059173769213,1104.0609750698704,left,1,2,0.711832636552117,Z23N021,2022-11-28_09h21.04.321,t1_Paradigm,2021.1.4,60.00358035896724,
T,left,Distractor,0,21,21,21,1105.5584516449421,1107.5600595022702,left,1,2,0.7914360103582112,Z23N021,2022-11-28_09h21.04.321,t1_Paradigm,2021.1.4,60.00358035896724,
C,right,Target,0,22,22,22,1109.057918151978,1111.0593203755175,right,1,2,0.8585544297557135,Z23N021,2022-11-28_09h21.04.321,t1_Paradigm,2021.1.4,60.00358035896724,
F,left,Pretarget,0,23,23,23,1112.5565913168007,1114.5592783505153,left,1,2,0.6891625539906272,Z23N021,2022-11-28_09h21.04.321,t1_Paradigm,2021.1.4,60.00358035896724,
C,right,Target,0,24,24,24,1116.0567414519223,1118.0587163062141,right,1,2,0.7442582940029752,Z23N021,2022-11-28_09h21.04.321,t1_Paradigm,2021.1.4,60.00358035896724,
F,right,Target,0,25,25,25,1119.5564905851165,1121.5581552243175,right,1,2,0.6935106980895398,Z23N021,2022-11-28_09h21.04.321,t1_Paradigm,2021.1.4,60.00358035896724,
H,left,Distractor,0,26,26,26,1123.0553969726602,1125.0569358576563,left,1,2,0.590258797019942,Z23N021,2022-11-28_09h21.04.321,t1_Paradigm,2021.1.4,60.00358035896724,
H,left,Lure,0,27,27,27,1126.5550219556576,1128.5545721918957,left,1,2,0.7728901524192224,Z23N021,2022-11-28_09h21.04.321,t1_Paradigm,2021.1.4,60.00358035896724,
P,left,Distractor,0,28,28,28,1130.054362708489,1132.0536303185686,left,1,2,0.6817302238682714,Z23N021,2022-11-28_09h21.04.321,t1_Paradigm,2021.1.4,60.00358035896724,
G,left,Pretarget,0,29,29,29,1133.5539309096134,1135.5553382659778,left,1,2,0.9016451344673442,Z23N021,2022-11-28_09h21.04.321,t1_Paradigm,2021.1.4,60.00358035896724,
K,left,Distractor,0,30,30,30,1137.069900089568,1139.0714540522367,left,1,2,0.8010834751275979,Z23N021,2022-11-28_09h21.04.321,t1_Paradigm,2021.1.4,60.00358035896724,
G,right,Target,0,31,31,31,1140.5691670580445,1142.5706334418924,left,0,2,0.8155788927983849,Z23N021,2022-11-28_09h21.04.321,t1_Paradigm,2021.1.4,60.00358035896724,
M,left,Pretarget,0,32,32,32,1144.0686460763404,1146.0698554981536,left,1,2,0.7812582606397882,Z23N021,2022-11-28_09h21.04.321,t1_Paradigm,2021.1.4,60.00358035896724,
B,left,Distractor,0,33,33,33,1147.5681927837618,1149.5694740651202,left,1,2,0.7377309450298526,Z23N021,2022-11-28_09h21.04.321,t1_Paradigm,2021.1.4,60.00358035896724,
M,right,Target,0,34,34,34,1151.066630159451,1153.07952317342,right,1,2,0.8146915557335888,Z23N021,2022-11-28_09h21.04.321,t1_Paradigm,2021.1.4,60.00358035896724,
M,left,Lure,0,35,35,35,1154.5670757527928,1156.5668043546884,left,1,2,0.9877280578157297,Z23N021,2022-11-28_09h21.04.321,t1_Paradigm,2021.1.4,60.00358035896724,
T,left,Distractor,0,36,36,36,1158.0664078439827,1160.0670953216868,left,1,2,0.7818565555153327,Z23N021,2022-11-28_09h21.04.321,t1_Paradigm,2021.1.4,60.00358035896724,
F,left,Distractor,0,37,37,37,1161.5656180305864,1163.5681873301355,left,1,2,0.7125547608234228,Z23N021,2022-11-28_09h21.04.321,t1_Paradigm,2021.1.4,60.00358035896724,
X,left,Distractor,0,38,38,38,1165.0651256002197,1167.0659468521671,left,1,2,0.6549930193586988,Z23N021,2022-11-28_09h21.04.321,t1_Paradigm,2021.1.4,60.00358035896724,
C,left,Distractor,0,39,39,39,1168.5646158465697,1170.5664521145954,left,1,2,0.6766670131323735,Z23N021,2022-11-28_09h21.04.321,t1_Paradigm,2021.1.4,60.00358035896724,
R,left,Distractor,0,40,40,40,1172.064100318492,1174.0650973696838,left,1,2,0.7858867852864933,Z23N021,2022-11-28_09h21.04.321,t1_Paradigm,2021.1.4,60.00358035896724,
B,left,Pretarget,0,41,41,41,1175.563514534876,1177.565483293939,left,1,2,0.7090878585599967,Z23N021,2022-11-28_09h21.04.321,t1_Paradigm,2021.1.4,60.00358035896724,
H,left,Distractor,0,42,42,42,1179.062944791338,1181.0643608093437,left,1,2,0.6424025212431843,Z23N021,2022-11-28_09h21.04.321,t1_Paradigm,2021.1.4,60.00358035896724,
B,right,Target,0,43,43,43,1182.562122576986,1184.561299721031,left,0,2,1.4506697052988784,Z23N021,2022-11-28_09h21.04.321,t1_Paradigm,2021.1.4,60.00358035896724,
W,left,Pretarget,0,44,44,44,1186.0616185977638,1188.06365889557,left,1,2,0.6711851563845812,Z23N021,2022-11-28_09h21.04.321,t1_Paradigm,2021.1.4,60.00358035896724,
L,left,Pretarget,0,45,45,45,1189.5610620070884,1191.5630785655808,left,1,2,0.6040105967163072,Z23N021,2022-11-28_09h21.04.321,t1_Paradigm,2021.1.4,60.00358035896724,
W,right,Target,0,46,46,46,1193.0602166950257,1195.0622839401617,right,1,2,1.038409568611769,Z23N021,2022-11-28_09h21.04.321,t1_Paradigm,2021.1.4,60.00358035896724,
L,right,Target,0,47,47,47,1196.5598830614222,1198.56119129011,right,1,2,0.9351271913951678,Z23N021,2022-11-28_09h21.04.321,t1_Paradigm,2021.1.4,60.00358035896724,
W,right,Target,0,48,48,48,1200.0589995739756,1202.0612917009926,right,1,2,1.047194398035117,Z23N021,2022-11-28_09h21.04.321,t1_Paradigm,2021.1.4,60.00358035896724,
X,left,Distractor,0,49,49,49,1203.5586970581217,1205.559878891002,left,1,2,0.7315885579073438,Z23N021,2022-11-28_09h21.04.321,t1_Paradigm,2021.1.4,60.00358035896724,
R,left,Distractor,0,50,50,50,1207.058054492633,1209.0593903102535,left,1,2,0.7537992526608832,Z23N021,2022-11-28_09h21.04.321,t1_Paradigm,2021.1.4,60.00358035896724,
V,left,Pretarget,0,51,51,51,1210.5574048695107,1212.5595439741924,left,1,2,1.0362698223275402,Z23N021,2022-11-28_09h21.04.321,t1_Paradigm,2021.1.4,60.00358035896724,
Z,left,Distractor,0,52,52,52,1214.0568399379954,1216.0576599067367,left,1,2,0.7301722190995861,Z23N021,2022-11-28_09h21.04.321,t1_Paradigm,2021.1.4,60.00358035896724,
V,right,Target,0,53,53,53,1217.5561527810928,1219.5581006880552,right,1,2,0.7187045263817708,Z23N021,2022-11-28_09h21.04.321,t1_Paradigm,2021.1.4,60.00358035896724,
V,left,Lure,0,54,54,54,1221.0556394986256,1223.0560353677283,left,1,2,1.142203303485985,Z23N021,2022-11-28_09h21.04.321,t1_Paradigm,2021.1.4,60.00358035896724,
N,left,Distractor,0,55,55,55,1224.555295278571,1226.5562881593432,left,1,2,1.1229179979927721,Z23N021,2022-11-28_09h21.04.321,t1_Paradigm,2021.1.4,60.00358035896724,
B,left,Distractor,0,56,56,56,1228.0712015814233,1230.0728315740575,left,1,2,0.6676980436241138,Z23N021,2022-11-28_09h21.04.321,t1_Paradigm,2021.1.4,60.00358035896724,
V,left,Lure,0,57,57,57,1231.5705221237577,1233.5717803074049,left,1,2,0.6011920343694328,Z23N021,2022-11-28_09h21.04.321,t1_Paradigm,2021.1.4,60.00358035896724,
J,left,Distractor,0,58,58,58,1235.0698856534982,1237.0714261425028,left,1,2,0.7214515499849767,Z23N021,2022-11-28_09h21.04.321,t1_Paradigm,2021.1.4,60.00358035896724,
H,left,Distractor,0,59,59,59,1238.5693521605344,1240.570331888443,left,1,2,0.5933474742655562,Z23N021,2022-11-28_09h21.04.321,t1_Paradigm,2021.1.4,60.00358035896724,
X,left,Pretarget,0,60,60,60,1242.0688497853198,1244.0697210823073,left,1,2,0.6080113127454752,Z23N021,2022-11-28_09h21.04.321,t1_Paradigm,2021.1.4,60.00358035896724,
P,left,Distractor,0,61,61,61,1245.5683778862513,1247.5693624261835,left,1,2,0.6589045525588517,Z23N021,2022-11-28_09h21.04.321,t1_Paradigm,2021.1.4,60.00358035896724,
X,right,Target,0,62,62,62,1249.0675325741886,1251.0690121108996,right,1,2,1.0152355068280485,Z23N021,2022-11-28_09h21.04.321,t1_Paradigm,2021.1.4,60.00358035896724,
Q,left,Distractor,0,63,63,63,1252.5670003644304,1254.5687769633696,left,1,2,0.6827134805944297,Z23N021,2022-11-28_09h21.04.321,t1_Paradigm,2021.1.4,60.00358035896724,
B,left,Pretarget,0,0,0,0,1268.2988035385692,1270.299073332666,None,0,2,,Z23N021,2022-11-28_09h21.04.321,t1_Paradigm,2021.1.4,60.00358035896724,
F,left,Distractor,0,1,1,1,1271.796173607529,1273.7981997900674,None,0,2,,Z23N021,2022-11-28_09h21.04.321,t1_Paradigm,2021.1.4,60.00358035896724,
B,right,Target,0,2,2,2,1275.296438268801,1277.2980695446413,right,1,2,0.8801780576877718,Z23N021,2022-11-28_09h21.04.321,t1_Paradigm,2021.1.4,60.00358035896724,
V,left,Distractor,0,3,3,3,1278.7959314023647,1280.7973047537657,left,1,2,0.7313710544617607,Z23N021,2022-11-28_09h21.04.321,t1_Paradigm,2021.1.4,60.00358035896724,
G,left,Pretarget,0,4,4,4,1282.2952750424101,1284.2968707092796,left,1,2,0.5863963464557855,Z23N021,2022-11-28_09h21.04.321,t1_Paradigm,2021.1.4,60.00358035896724,
B,left,Lure,0,5,5,5,1285.7939908738376,1287.7961867603922,right,0,2,0.9228770637164416,Z23N021,2022-11-28_09h21.04.321,t1_Paradigm,2021.1.4,60.00358035896724,
G,right,Target,0,6,6,6,1289.294085189491,1291.2949612985021,left,0,2,1.390587105317536,Z23N021,2022-11-28_09h21.04.321,t1_Paradigm,2021.1.4,60.00358035896724,
Y,left,Pretarget,0,7,7,7,1292.7935696614131,1294.7944233143162,left,1,2,0.8092623104380436,Z23N021,2022-11-28_09h21.04.321,t1_Paradigm,2021.1.4,60.00358035896724,
P,left,Distractor,0,8,8,8,1296.2930846094819,1298.2943177706088,left,1,2,0.733393387381966,Z23N021,2022-11-28_09h21.04.321,t1_Paradigm,2021.1.4,60.00358035896724,
Y,right,Target,0,9,9,9,1299.7925815926642,1301.7936999068393,right,1,2,1.285697512376828,Z23N021,2022-11-28_09h21.04.321,t1_Paradigm,2021.1.4,60.00358035896724,
X,left,Distractor,0,10,10,10,1303.2917186365166,1305.2910468780879,left,1,2,0.699088474499149,Z23N021,2022-11-28_09h21.04.321,t1_Paradigm,2021.1.4,60.00358035896724,
Y,right,Target,0,11,11,11,1306.791148892978,1308.7923785252883,right,1,2,0.7684457678578838,Z23N021,2022-11-28_09h21.04.321,t1_Paradigm,2021.1.4,60.00358035896724,
N,left,Distractor,0,12,12,12,1310.2906433097478,1312.292076971839,left,1,2,0.6152684852263519,Z23N021,2022-11-28_09h21.04.321,t1_Paradigm,2021.1.4,60.00358035896724,
Y,right,Target,0,13,13,13,1313.790029295597,1315.791227168554,right,1,2,0.8542017944355393,Z23N021,2022-11-28_09h21.04.321,t1_Paradigm,2021.1.4,60.00358035896724,
Y,left,Lure,0,14,14,14,1317.2894826497695,1319.2888474627166,left,1,2,0.8823482801190039,Z23N021,2022-11-28_09h21.04.321,t1_Paradigm,2021.1.4,60.00358035896724,
K,left,Distractor,0,15,15,15,1320.7886350920958,1322.7905345580252,left,1,2,0.6826194857426344,Z23N021,2022-11-28_09h21.04.321,t1_Paradigm,2021.1.4,60.00358035896724,
T,left,Pretarget,0,16,16,16,1324.2884195134598,1326.3003822029568,left,1,2,0.6743986254291485,Z23N021,2022-11-28_09h21.04.321,t1_Paradigm,2021.1.4,60.00358035896724,
J,left,Distractor,0,17,17,17,1327.787707654838,1329.787425349481,left,1,2,0.7012487520819377,Z23N021,2022-11-28_09h21.04.321,t1_Paradigm,2021.1.4,60.00358035896724,
T,right,Target,0,18,18,18,1331.287032688394,1333.286739154983,right,1,2,0.8216311346877774,Z23N021,2022-11-28_09h21.04.321,t1_Paradigm,2021.1.4,60.00358035896724,
S,left,Pretarget,0,19,19,19,1334.7865357668056,1336.7877127876627,left,1,2,0.6998757214823854,Z23N021,2022-11-28_09h21.04.321,t1_Paradigm,2021.1.4,60.00358035896724,
R,left,Distractor,0,20,20,20,1338.2848727316123,1340.2872258109223,left,1,2,0.6735205916097584,Z23N021,2022-11-28_09h21.04.321,t1_Paradigm,2021.1.4,60.00358035896724,
S,right,Target,0,21,21,21,1341.785845722689,1343.7869666032761,right,1,2,0.6143166670512983,Z23N021,2022-11-28_09h21.04.321,t1_Paradigm,2021.1.4,60.00358035896724,
Q,left,Distractor,0,22,22,22,1345.2846212232034,1347.2864914961929,left,1,2,0.5631000592838973,Z23N021,2022-11-28_09h21.04.321,t1_Paradigm,2021.1.4,60.00358035896724,
D,left,Distractor,0,23,23,23,1348.7844216846443,1350.7861742234677,left,1,2,0.8093903102535478,Z23N021,2022-11-28_09h21.04.321,t1_Paradigm,2021.1.4,60.00358035896724,
F,left,Distractor,0,24,24,24,1352.283486227348,1354.2850238291385,left,1,2,0.7097429353084408,Z23N021,2022-11-28_09h21.04.321,t1_Paradigm,2021.1.4,60.00358035896724,
Z,left,Distractor,0,25,25,25,1355.7827701983065,1357.7844868073576,left,1,2,0.5979429563531085,Z23N021,2022-11-28_09h21.04.321,t1_Paradigm,2021.1.4,60.00358035896724,
P,left,Distractor,0,26,26,26,1359.299111187248,1361.300130694548,left,1,2,0.5758291436654872,Z23N021,2022-11-28_09h21.04.321,t1_Paradigm,2021.1.4,60.00358035896724,
H,left,Distractor,0,27,27,27,1362.7977747280243,1364.7996061840272,left,1,2,0.4886625527074102,Z23N021,2022-11-28_09h21.04.321,t1_Paradigm,2021.1.4,60.00358035896724,
Z,left,Pretarget,0,28,28,28,1366.2976156104596,1368.300102143211,left,1,2,0.5997179512842195,Z23N021,2022-11-28_09h21.04.321,t1_Paradigm,2021.1.4,60.00358035896724,
J,left,Pretarget,0,29,29,29,1369.7971854155921,1371.7979999307067,left,1,2,0.6154940087103569,Z23N021,2022-11-28_09h21.04.321,t1_Paradigm,2021.1.4,60.00358035896724,
Z,right,Target,0,30,30,30,1373.2959208159136,1375.2974616257197,right,1,2,0.6301049149365099,Z23N021,2022-11-28_09h21.04.321,t1_Paradigm,2021.1.4,60.00358035896724,
J,right,Target,0,31,31,31,1376.7959105502646,1378.7977221165715,right,1,2,0.7044529178824632,Z23N021,2022-11-28_09h21.04.321,t1_Paradigm,2021.1.4,60.00358035896724,
V,left,Pretarget,0,32,32,32,1380.2955079443295,1382.2966496770168,left,1,2,0.6828087586522997,Z23N021,2022-11-28_09h21.04.321,t1_Paradigm,2021.1.4,60.00358035896724,
Z,left,Lure,0,33,33,33,1383.7948782109024,1385.7960587605767,left,1,2,0.7624968240647831,Z23N021,2022-11-28_09h21.04.321,t1_Paradigm,2021.1.4,60.00358035896724,
V,right,Target,0,34,34,34,1387.2942747832021,1389.2957010668574,right,1,2,0.9768506399350372,Z23N021,2022-11-28_09h21.04.321,t1_Paradigm,2021.1.4,60.00358035896724,
X,left,Distractor,0,35,35,35,1390.793675525922,1392.7949555240743,left,1,2,0.665416823859232,Z23N021,2022-11-28_09h21.04.321,t1_Paradigm,2021.1.4,60.00358035896724,
S,left,Distractor,0,36,36,36,1394.2932604087268,1396.2944104822545,left,1,2,0.8590648250092272,Z23N021,2022-11-28_09h21.04.321,t1_Paradigm,2021.1.4,60.00358035896724,
Q,left,Distractor,0,37,37,37,1397.7923650516232,1399.7943854597343,left,1,2,0.8161512027490971,Z23N021,2022-11-28_09h21.04.321,t1_Paradigm,2021.1.4,60.00358035896724,
P,left,Distractor,0,38,38,38,1401.29195859607,1403.2933556867847,left,1,2,0.7208920720954666,Z23N021,2022-11-28_09h21.04.321,t1_Paradigm,2021.1.4,60.00358035896724,
S,left,Lure,0,39,39,39,1404.7912794592057,1406.7923012121164,left,1,2,1.090364019925346,Z23N021,2022-11-28_09h21.04.321,t1_Paradigm,2021.1.4,60.00358035896724,
K,left,Pretarget,0,40,40,40,1408.2905987183335,1410.2917972328942,left,1,2,0.7294516988367832,Z23N021,2022-11-28_09h21.04.321,t1_Paradigm,2021.1.4,60.00358035896724,
L,left,Distractor,0,41,41,41,1411.789294018463,1413.791891869349,left,1,2,1.0326219879939345,Z23N021,2022-11-28_09h21.04.321,t1_Paradigm,2021.1.4,60.00358035896724,
K,right,Target,0,42,42,42,1415.2896282936695,1417.290688221964,right,1,2,0.6565652677154503,Z23N021,2022-11-28_09h21.04.321,t1_Paradigm,2021.1.4,60.00358035896724,
B,left,Distractor,0,43,43,43,1418.7890948007052,1420.790783500022,left,1,2,0.6863548988962975,Z23N021,2022-11-28_09h21.04.321,t1_Paradigm,2021.1.4,60.00358035896724,
N,left,Distractor,0,44,44,44,1422.2883422002878,1424.2897421782168,left,1,2,0.876220649867264,Z23N021,2022-11-28_09h21.04.321,t1_Paradigm,2021.1.4,60.00358035896724,
S,left,Pretarget,0,45,45,45,1425.7877147124718,1427.789599742332,left,1,2,1.0739062592228947,Z23N021,2022-11-28_09h21.04.321,t1_Paradigm,2021.1.4,60.00358035896724,
Z,left,Distractor,0,46,46,46,1429.2871157759932,1431.2894034117885,left,1,2,0.7781759994250024,Z23N021,2022-11-28_09h21.04.321,t1_Paradigm,2021.1.4,60.00358035896724,
S,right,Target,0,47,47,47,1432.786482192948,1434.7864574912292,right,1,2,0.66009889669931,Z23N021,2022-11-28_09h21.04.321,t1_Paradigm,2021.1.4,60.00358035896724,
C,left,Distractor,0,48,48,48,1436.2858858228815,1438.2882151628773,left,1,2,0.7295148967400564,Z23N021,2022-11-28_09h21.04.321,t1_Paradigm,2021.1.4,60.00358035896724,
T,left,Pretarget,0,49,49,49,1439.7853314778172,1441.787288367223,left,1,2,0.6748653916729381,Z23N021,2022-11-28_09h21.04.321,t1_Paradigm,2021.1.4,60.00358035896724,
S,left,Lure,0,50,50,50,1443.2846786466794,1445.2867035460117,left,1,2,1.0564581841608742,Z23N021,2022-11-28_09h21.04.321,t1_Paradigm,2021.1.4,60.00358035896724,
T,right,Target,0,51,51,51,1446.78328059356,1448.7857424245922,right,1,2,0.6476139422916276,Z23N021,2022-11-28_09h21.04.321,t1_Paradigm,2021.1.4,60.00358035896724,
N,left,Pretarget,0,52,52,52,1450.2836238512095,1452.2859291310897,left,1,2,0.693675590082421,Z23N021,2022-11-28_09h21.04.321,t1_Paradigm,2021.1.4,60.00358035896724,
B,left,Distractor,0,53,53,53,1453.7828558523183,1455.784447669569,left,1,2,0.6355976789368469,Z23N021,2022-11-28_09h21.04.321,t1_Paradigm,2021.1.4,60.00358035896724,
N,right,Target,0,54,54,54,1457.2990855231246,1459.3003119474192,right,1,2,0.6703571676048341,Z23N021,2022-11-28_09h21.04.321,t1_Paradigm,2021.1.4,60.00358035896724,
N,left,Lure,0,55,55,55,1460.798407348665,1462.7980403517013,left,1,2,0.9596701133582428,Z23N021,2022-11-28_09h21.04.321,t1_Paradigm,2021.1.4,60.00358035896724,
X,left,Distractor,0,56,56,56,1464.2982418150696,1466.2970766638691,left,1,2,0.7620736868311724,Z23N021,2022-11-28_09h21.04.321,t1_Paradigm,2021.1.4,60.00358035896724,
W,left,Distractor,0,57,57,57,1467.7974587385056,1469.7990572925892,left,1,2,0.8884002012068777,Z23N021,2022-11-28_09h21.04.321,t1_Paradigm,2021.1.4,60.00358035896724,
S,left,Distractor,0,58,58,58,1471.2967731856106,1473.2988182954405,left,1,2,0.8495540216963491,Z23N021,2022-11-28_09h21.04.321,t1_Paradigm,2021.1.4,60.00358035896724,
L,left,Distractor,0,59,59,59,1474.7957613775475,1476.7975318812573,left,1,2,0.5796312835400386,Z23N021,2022-11-28_09h21.04.321,t1_Paradigm,2021.1.4,60.00358035896724,
K,left,Pretarget,0,60,60,60,1478.295781267243,1480.3077952849872,left,1,2,0.5749347489663705,Z23N021,2022-11-28_09h21.04.321,t1_Paradigm,2021.1.4,60.00358035896724,
V,left,Pretarget,0,61,61,61,1481.794662953068,1483.7971956812412,left,1,2,0.5628273779734627,Z23N021,2022-11-28_09h21.04.321,t1_Paradigm,2021.1.4,60.00358035896724,
K,right,Target,0,62,62,62,1485.2944059910328,1487.29626118635,right,1,2,1.054766276828559,Z23N021,2022-11-28_09h21.04.321,t1_Paradigm,2021.1.4,60.00358035896724,
V,right,Target,0,63,63,63,1488.793400278199,1490.7934169598793,right,1,2,1.2593401368926607,Z23N021,2022-11-28_09h21.04.321,t1_Paradigm,2021.1.4,60.00358035896724,
R,left,Distractor,0,0,0,0,1558.5234191541617,1560.5174509622761,None,0,3,,Z23N021,2022-11-28_09h21.04.321,t1_Paradigm,2021.1.4,60.00358035896724,
P,left,Lure,0,1,1,1,1562.0155790852791,1564.0158767891103,None,0,3,,Z23N021,2022-11-28_09h21.04.321,t1_Paradigm,2021.1.4,60.00358035896724,
V,left,Distractor,0,2,2,2,1565.514234606017,1567.5158459921622,left,1,3,0.6664783561618606,Z23N021,2022-11-28_09h21.04.321,t1_Paradigm,2021.1.4,60.00358035896724,
P,left,Pretarget,0,3,3,3,1569.013302677538,1571.0151880281996,right,0,3,1.4559019784469456,Z23N021,2022-11-28_09h21.04.321,t1_Paradigm,2021.1.4,60.00358035896724,
Z,left,Distractor,0,4,4,4,1572.5129379261848,1574.515449802258,left,1,3,0.49897343506609104,Z23N021,2022-11-28_09h21.04.321,t1_Paradigm,2021.1.4,60.00358035896724,
L,left,Pretarget,0,5,5,5,1576.0124108492514,1578.0141239294853,left,1,3,0.7588207591961691,Z23N021,2022-11-28_09h21.04.321,t1_Paradigm,2021.1.4,60.00358035896724,
P,right,Target,0,6,6,6,1579.5120069601103,1581.5130636803892,right,1,3,0.8841646584492082,Z23N021,2022-11-28_09h21.04.321,t1_Paradigm,2021.1.4,60.00358035896724,
S,left,Distractor,0,7,7,7,1583.011313066375,1585.0115555923408,left,1,3,0.5329793609121225,Z23N021,2022-11-28_09h21.04.321,t1_Paradigm,2021.1.4,60.00358035896724,
L,right,Target,0,8,8,8,1586.5107596837152,1588.5119241933126,right,1,3,0.7013533333843043,Z23N021,2022-11-28_09h21.04.321,t1_Paradigm,2021.1.4,60.00358035896724,
D,left,Distractor,0,9,9,9,1590.0100266521922,1592.0117791910156,left,1,3,0.6459634183588605,Z23N021,2022-11-28_09h21.04.321,t1_Paradigm,2021.1.4,60.00358035896724,
G,left,Distractor,0,10,10,10,1593.5095871540798,1595.5086334110956,left,1,3,0.6056514966030591,Z23N021,2022-11-28_09h21.04.321,t1_Paradigm,2021.1.4,60.00358035896724,
M,left,Pretarget,0,11,11,11,1597.008699817015,1599.010980715978,left,1,3,0.6701804059553069,Z23N021,2022-11-28_09h21.04.321,t1_Paradigm,2021.1.4,60.00358035896724,
Y,left,Distractor,0,12,12,12,1600.508250694856,1602.50997211593,left,1,3,0.8279862132326343,Z23N021,2022-11-28_09h21.04.321,t1_Paradigm,2021.1.4,60.00358035896724,
V,left,Distractor,0,13,13,13,1604.0076661944468,1606.0094424725844,left,1,3,0.634219515512541,Z23N021,2022-11-28_09h21.04.321,t1_Paradigm,2021.1.4,60.00358035896724,
M,right,Target,0,14,14,14,1607.5069934736134,1609.5086924385791,right,1,3,0.8653660088953075,Z23N021,2022-11-28_09h21.04.321,t1_Paradigm,2021.1.4,60.00358035896724,
S,left,Pretarget,0,15,15,15,1611.0063374344604,1613.0076902545625,left,1,3,0.8070317773176612,Z23N021,2022-11-28_09h21.04.321,t1_Paradigm,2021.1.4,60.00358035896724,
Q,left,Distractor,0,16,16,16,1614.5057859766098,1616.5072956686658,left,1,3,0.7356242413043219,Z23N021,2022-11-28_09h21.04.321,t1_Paradigm,2021.1.4,60.00358035896724,
R,left,Pretarget,0,17,17,17,1618.0052553708592,1620.0066040205415,left,1,3,0.6159986295360795,Z23N021,2022-11-28_09h21.04.321,t1_Paradigm,2021.1.4,60.00358035896724,
S,right,Target,0,18,18,18,1621.5046272414402,1623.506140783115,right,1,3,0.7034321273758906,Z23N021,2022-11-28_09h21.04.321,t1_Paradigm,2021.1.4,60.00358035896724,
F,left,Distractor,0,19,19,19,1625.0036616287994,1627.0043673921914,left,1,3,0.7479083739467569,Z23N021,2022-11-28_09h21.04.321,t1_Paradigm,2021.1.4,60.00358035896724,
R,right,Target,0,20,20,20,1628.5036192829957,1630.5055745683935,left,0,3,1.0459525752667105,Z23N021,2022-11-28_09h21.04.321,t1_Paradigm,2021.1.4,60.00358035896724,
P,left,Distractor,0,21,21,21,1632.0030790531991,1634.0150895421266,left,1,3,0.8545813026598807,Z23N021,2022-11-28_09h21.04.321,t1_Paradigm,2021.1.4,60.00358035896724,
L,left,Distractor,0,22,22,22,1635.502359495341,1637.5036818392964,left,1,3,1.1737538143302118,Z23N021,2022-11-28_09h21.04.321,t1_Paradigm,2021.1.4,60.00358035896724,
R,right,Target,0,23,23,23,1639.0016133109543,1641.0035496690612,left,0,3,0.9679740612705245,Z23N021,2022-11-28_09h21.04.321,t1_Paradigm,2021.1.4,60.00358035896724,
H,left,Pretarget,0,24,24,24,1642.5003288215803,1644.5030027024322,left,1,3,0.6844653778143766,Z23N021,2022-11-28_09h21.04.321,t1_Paradigm,2021.1.4,60.00358035896724,
G,left,Pretarget,0,25,25,25,1645.9996140757453,1648.0029837751413,left,1,3,0.6576624089889265,Z23N021,2022-11-28_09h21.04.321,t1_Paradigm,2021.1.4,60.00358035896724,
T,left,Distractor,0,26,26,26,1649.4997905165933,1651.5011131813503,left,1,3,0.6737230173821445,Z23N021,2022-11-28_09h21.04.321,t1_Paradigm,2021.1.4,60.00358035896724,
H,right,Target,0,27,27,27,1652.9994722814636,1655.0004728614726,right,1,3,0.8715273233087828,Z23N021,2022-11-28_09h21.04.321,t1_Paradigm,2021.1.4,60.00358035896724,
G,right,Target,0,28,28,28,1656.498806618264,1658.500030796948,right,1,3,0.6535118786396197,Z23N021,2022-11-28_09h21.04.321,t1_Paradigm,2021.1.4,60.00358035896724,
D,left,Distractor,0,29,29,29,1660.0147122795129,1662.01612637271,left,1,3,0.8149950339920906,Z23N021,2022-11-28_09h21.04.321,t1_Paradigm,2021.1.4,60.00358035896724,
N,left,Pretarget,0,30,30,30,1663.5143398289229,1665.5135570731609,left,1,3,0.700762416944599,Z23N021,2022-11-28_09h21.04.321,t1_Paradigm,2021.1.4,60.00358035896724,
V,left,Distractor,0,31,31,31,1667.013686997785,1669.0157603381504,left,1,3,0.7614368957702027,Z23N021,2022-11-28_09h21.04.321,t1_Paradigm,2021.1.4,60.00358035896724,
R,left,Distractor,0,32,32,32,1670.5131028181772,1672.5140828668877,left,1,3,0.581834548529514,Z23N021,2022-11-28_09h21.04.321,t1_Paradigm,2021.1.4,60.00358035896724,
N,right,Target,0,33,33,33,1674.0123668994402,1676.0140626563907,right,1,3,0.901177726620972,Z23N021,2022-11-28_09h21.04.321,t1_Paradigm,2021.1.4,60.00358035896724,
Z,left,Distractor,0,34,34,34,1677.5119492158328,1679.513157033638,left,1,3,0.6351928273907106,Z23N021,2022-11-28_09h21.04.321,t1_Paradigm,2021.1.4,60.00358035896724,
N,left,Lure,0,35,35,35,1681.0112825902288,1683.0122562229085,right,0,3,1.4488863695273722,Z23N021,2022-11-28_09h21.04.321,t1_Paradigm,2021.1.4,60.00358035896724,
Y,left,Pretarget,0,36,36,36,1684.510560465958,1686.5127637309474,left,1,3,0.7368461743776606,Z23N021,2022-11-28_09h21.04.321,t1_Paradigm,2021.1.4,60.00358035896724,
Y,left,Lure,0,37,37,37,1688.0101848073523,1690.009954471845,left,1,3,0.9331061416810371,Z23N021,2022-11-28_09h21.04.321,t1_Paradigm,2021.1.4,60.00358035896724,
B,left,Distractor,0,38,38,38,1691.5086683784639,1693.5113576577896,left,1,3,0.7297856532418336,Z23N021,2022-11-28_09h21.04.321,t1_Paradigm,2021.1.4,60.00358035896724,
Y,right,Target,0,39,39,39,1695.0089882176007,1697.0104529974415,right,1,3,1.0827857251015303,Z23N021,2022-11-28_09h21.04.321,t1_Paradigm,2021.1.4,60.00358035896724,
J,left,Distractor,0,40,40,40,1698.5083129303553,1700.5091431647456,left,1,3,0.8619982343084303,Z23N021,2022-11-28_09h21.04.321,t1_Paradigm,2021.1.4,60.00358035896724,
X,left,Distractor,0,41,41,41,1702.0078737530444,1704.0092445380328,left,1,3,0.6806199297316198,Z23N021,2022-11-28_09h21.04.321,t1_Paradigm,2021.1.4,60.00358035896724,
W,left,Pretarget,0,42,42,42,1705.5070387066307,1707.5085801580399,left,1,3,0.6055315168268862,Z23N021,2022-11-28_09h21.04.321,t1_Paradigm,2021.1.4,60.00358035896724,
S,left,Pretarget,0,43,43,43,1709.006653423979,1711.008768468545,left,1,3,0.5333925532981993,Z23N021,2022-11-28_09h21.04.321,t1_Paradigm,2021.1.4,60.00358035896724,
R,left,Distractor,0,44,44,44,1712.5058437208872,1714.5083937723439,left,1,3,0.5151707049167271,Z23N021,2022-11-28_09h21.04.321,t1_Paradigm,2021.1.4,60.00358035896724,
W,right,Target,0,45,45,45,1716.0053827290717,1718.0071288518643,left,0,3,1.3298086867926031,Z23N021,2022-11-28_09h21.04.321,t1_Paradigm,2021.1.4,60.00358035896724,
S,right,Target,0,46,46,46,1719.5047173866737,1721.5058530241322,None,0,3,,Z23N021,2022-11-28_09h21.04.321,t1_Paradigm,2021.1.4,60.00358035896724,
D,left,Distractor,0,47,47,47,1723.0041739488615,1725.0051360326856,left,1,3,0.6829595353769946,Z23N021,2022-11-28_09h21.04.321,t1_Paradigm,2021.1.4,60.00358035896724,
T,left,Distractor,0,48,48,48,1726.5034505413846,1728.5034486165755,left,1,3,0.8374033424952358,Z23N021,2022-11-28_09h21.04.321,t1_Paradigm,2021.1.4,60.00358035896724,
S,right,Target,0,49,49,49,1730.002921539642,1732.004122620615,right,1,3,1.1732235293816302,Z23N021,2022-11-28_09h21.04.321,t1_Paradigm,2021.1.4,60.00358035896724,
K,left,Distractor,0,50,50,50,1733.5019498317715,1735.504014831297,left,1,3,0.6207881965565321,Z23N021,2022-11-28_09h21.04.321,t1_Paradigm,2021.1.4,60.00358035896724,
S,left,Lure,0,51,51,51,1737.0019267340608,1739.0026706728363,right,0,3,0.8764894815590196,Z23N021,2022-11-28_09h21.04.321,t1_Paradigm,2021.1.4,60.00358035896724,
T,left,Pretarget,0,52,52,52,1740.501097462075,1742.502350833699,right,0,3,1.0337072596107646,Z23N021,2022-11-28_09h21.04.321,t1_Paradigm,2021.1.4,60.00358035896724,
V,left,Distractor,0,53,53,53,1744.0005148864748,1746.0026369886746,left,1,3,0.6481705329670149,Z23N021,2022-11-28_09h21.04.321,t1_Paradigm,2021.1.4,60.00358035896724,
B,left,Distractor,0,54,54,54,1747.4991816352667,1749.5011664344065,left,1,3,0.6149435132642793,Z23N021,2022-11-28_09h21.04.321,t1_Paradigm,2021.1.4,60.00358035896724,
T,right,Target,0,55,55,55,1750.999196712939,1753.0003028366555,left,0,3,1.2292281001618903,Z23N021,2022-11-28_09h21.04.321,t1_Paradigm,2021.1.4,60.00358035896724,
Y,left,Pretarget,0,56,56,56,1754.5154924688632,1756.5169655895434,left,1,3,0.6069571588791405,Z23N021,2022-11-28_09h21.04.321,t1_Paradigm,2021.1.4,60.00358035896724,
T,left,Lure,0,57,57,57,1758.0147757982186,1760.015734032424,right,0,3,0.8219702219175815,Z23N021,2022-11-28_09h21.04.321,t1_Paradigm,2021.1.4,60.00358035896724,
P,left,Pretarget,0,58,58,58,1761.5141258542944,1763.5157683581892,left,1,3,0.6610035570474793,Z23N021,2022-11-28_09h21.04.321,t1_Paradigm,2021.1.4,60.00358035896724,
Y,right,Target,0,59,59,59,1765.0139086716508,1767.0151402287702,left,0,3,0.8633802473509604,Z23N021,2022-11-28_09h21.04.321,t1_Paradigm,2021.1.4,60.00358035896724,
R,left,Distractor,0,60,60,60,1768.5133129431874,1770.5152833062575,left,1,3,0.5999646476702765,Z23N021,2022-11-28_09h21.04.321,t1_Paradigm,2021.1.4,60.00358035896724,
P,right,Target,0,61,61,61,1772.013107309399,1774.0146522896248,left,0,3,0.6430489363501692,Z23N021,2022-11-28_09h21.04.321,t1_Paradigm,2021.1.4,60.00358035896724,
L,left,Distractor,0,62,62,62,1775.5117304291812,1777.5143667762522,left,1,3,0.5846771709925633,Z23N021,2022-11-28_09h21.04.321,t1_Paradigm,2021.1.4,60.00358035896724,
V,left,Distractor,0,63,63,63,1779.01126622935,1781.0236732289832,left,1,3,0.584994443717278,Z23N021,2022-11-28_09h21.04.321,t1_Paradigm,2021.1.4,60.00358035896724,
H,left,Lure,0,0,0,0,1794.9303395491838,1796.926794692146,left,1,3,1.1812734024724705,Z23N021,2022-11-28_09h21.04.321,t1_Paradigm,2021.1.4,60.00358035896724,
B,left,Distractor,0,1,1,1,1798.4239392376217,1800.4242411118726,left,1,3,0.3987964167749851,Z23N021,2022-11-28_09h21.04.321,t1_Paradigm,2021.1.4,60.00358035896724,
T,left,Distractor,0,2,2,2,1801.9241779139688,1803.9259984627192,left,1,3,0.557836026782752,Z23N021,2022-11-28_09h21.04.321,t1_Paradigm,2021.1.4,60.00358035896724,
R,left,Distractor,0,3,3,3,1805.423426275956,1807.4255576814003,left,1,3,0.5970658849373649,Z23N021,2022-11-28_09h21.04.321,t1_Paradigm,2021.1.4,60.00358035896724,
H,left,Pretarget,0,4,4,4,1808.9229723417743,1810.9241958788552,right,0,3,0.8487433561999751,Z23N021,2022-11-28_09h21.04.321,t1_Paradigm,2021.1.4,60.00358035896724,
K,left,Distractor,0,5,5,5,1812.4223839917463,1814.4243241994718,left,1,3,0.5937837643623425,Z23N021,2022-11-28_09h21.04.321,t1_Paradigm,2021.1.4,60.00358035896724,
G,left,Distractor,0,6,6,6,1815.921790508894,1817.9236100952394,left,1,3,0.6084366955901714,Z23N021,2022-11-28_09h21.04.321,t1_Paradigm,2021.1.4,60.00358035896724,
H,right,Target,0,7,7,7,1819.4211899684074,1821.422771520009,right,1,3,0.700975429168011,Z23N021,2022-11-28_09h21.04.321,t1_Paradigm,2021.1.4,60.00358035896724,
Y,left,Pretarget,0,8,8,8,1822.920595843952,1824.9331289185907,left,1,3,0.5374644872695171,Z23N021,2022-11-28_09h21.04.321,t1_Paradigm,2021.1.4,60.00358035896724,
S,left,Distractor,0,9,9,9,1826.4200107019396,1828.4217565039303,left,1,3,0.6445509291697817,Z23N021,2022-11-28_09h21.04.321,t1_Paradigm,2021.1.4,60.00358035896724,
P,left,Distractor,0,10,10,10,1829.9196504418078,1831.920840294727,left,1,3,0.7818918436851163,Z23N021,2022-11-28_09h21.04.321,t1_Paradigm,2021.1.4,60.00358035896724,
Y,right,Target,0,11,11,11,1833.4188189242113,1835.4196812387559,right,1,3,0.7320713642275223,Z23N021,2022-11-28_09h21.04.321,t1_Paradigm,2021.1.4,60.00358035896724,
H,left,Lure,0,12,12,12,1836.918441019995,1838.9201579498472,right,0,3,1.2062837322823725,Z23N021,2022-11-28_09h21.04.321,t1_Paradigm,2021.1.4,60.00358035896724,
Q,left,Distractor,0,13,13,13,1840.4179453816128,1842.4198397147175,left,1,3,0.5924537211694769,Z23N021,2022-11-28_09h21.04.321,t1_Paradigm,2021.1.4,60.00358035896724,
V,left,Pretarget,0,14,14,14,1843.9170856334804,1845.918408939841,left,1,3,0.5346661354192292,Z23N021,2022-11-28_09h21.04.321,t1_Paradigm,2021.1.4,60.00358035896724,
G,left,Distractor,0,15,15,15,1847.4164433887936,1849.4176723795003,left,1,3,0.42702214043947606,Z23N021,2022-11-28_09h21.04.321,t1_Paradigm,2021.1.4,60.00358035896724,
Z,left,Pretarget,0,16,16,16,1850.9159480712128,1852.916694576401,left,1,3,0.633301702301651,Z23N021,2022-11-28_09h21.04.321,t1_Paradigm,2021.1.4,60.00358035896724,
V,right,Target,0,17,17,17,1854.4152038116358,1856.4151896963676,right,1,3,0.8619616629325719,Z23N021,2022-11-28_09h21.04.321,t1_Paradigm,2021.1.4,60.00358035896724,
N,left,Distractor,0,18,18,18,1857.9146578074115,1859.9167641903355,left,1,3,0.8049725522200788,Z23N021,2022-11-28_09h21.04.321,t1_Paradigm,2021.1.4,60.00358035896724,
Z,right,Target,0,19,19,19,1861.4137608463002,1863.4154841921832,right,1,3,0.8448100084947328,Z23N021,2022-11-28_09h21.04.321,t1_Paradigm,2021.1.4,60.00358035896724,
R,left,Distractor,0,20,20,20,1864.9135157539222,1866.9148740276505,left,1,3,0.5577956057891242,Z23N021,2022-11-28_09h21.04.321,t1_Paradigm,2021.1.4,60.00358035896724,
P,left,Distractor,0,21,21,21,1868.4128398250732,1870.4142234421233,left,1,3,0.759741459621182,Z23N021,2022-11-28_09h21.04.321,t1_Paradigm,2021.1.4,60.00358035896724,
Z,right,Target,0,22,22,22,1871.9123316754308,1873.914237878193,right,1,3,0.8434680956452212,Z23N021,2022-11-28_09h21.04.321,t1_Paradigm,2021.1.4,60.00358035896724,
D,left,Pretarget,0,23,23,23,1875.4117481374265,1877.4138038337069,left,1,3,0.6499294878212822,Z23N021,2022-11-28_09h21.04.321,t1_Paradigm,2021.1.4,60.00358035896724,
K,left,Distractor,0,24,24,24,1878.911209832439,1880.9107340837522,left,1,3,0.7405328256973007,Z23N021,2022-11-28_09h21.04.321,t1_Paradigm,2021.1.4,60.00358035896724,
W,left,Distractor,0,25,25,25,1882.4105262043531,1884.4123105025292,left,1,3,0.7814337390827859,Z23N021,2022-11-28_09h21.04.321,t1_Paradigm,2021.1.4,60.00358035896724,
D,right,Target,0,26,26,26,1885.9268020705813,1887.9284798626454,right,1,3,0.8528444831117667,Z23N021,2022-11-28_09h21.04.321,t1_Paradigm,2021.1.4,60.00358035896724,
G,left,Pretarget,0,27,27,27,1889.42603407169,1891.4282508103447,left,1,3,0.7287154592977458,Z23N021,2022-11-28_09h21.04.321,t1_Paradigm,2021.1.4,60.00358035896724,
V,left,Distractor,0,28,28,28,1892.9256234457166,1894.9275893175654,left,1,3,1.4038535322815733,Z23N021,2022-11-28_09h21.04.321,t1_Paradigm,2021.1.4,60.00358035896724,
D,right,Target,0,29,29,29,1896.4249189655307,1898.4265589030128,right,1,3,0.6773949118310156,Z23N021,2022-11-28_09h21.04.321,t1_Paradigm,2021.1.4,60.00358035896724,
G,right,Target,0,30,30,30,1899.9241484002268,1901.9364588385956,left,0,3,0.6570246555234007,Z23N021,2022-11-28_09h21.04.321,t1_Paradigm,2021.1.4,60.00358035896724,
B,left,Pretarget,0,31,31,31,1903.4236678395173,1905.4254415512423,left,1,3,0.92268329958506,Z23N021,2022-11-28_09h21.04.321,t1_Paradigm,2021.1.4,60.00358035896724,
N,left,Distractor,0,32,32,32,1906.9222540671221,1908.9246071464318,left,1,3,0.9417796529696716,Z23N021,2022-11-28_09h21.04.321,t1_Paradigm,2021.1.4,60.00358035896724,
F,left,Distractor,0,33,33,33,1910.422448793658,1912.4214456472364,left,1,3,0.6410676660275385,Z23N021,2022-11-28_09h21.04.321,t1_Paradigm,2021.1.4,60.00358035896724,
B,right,Target,0,34,34,34,1913.9218812957301,1915.9243274074875,right,1,3,0.6358559241775765,Z23N021,2022-11-28_09h21.04.321,t1_Paradigm,2021.1.4,60.00358035896724,
Q,left,Pretarget,0,35,35,35,1917.4212566951282,1919.422106177611,left,1,3,0.6362155427063954,Z23N021,2022-11-28_09h21.04.321,t1_Paradigm,2021.1.4,60.00358035896724,
S,left,Pretarget,0,36,36,36,1920.920624395289,1922.9226014951919,left,1,3,0.5478812341366393,Z23N021,2022-11-28_09h21.04.321,t1_Paradigm,2021.1.4,60.00358035896724,
W,left,Distractor,0,37,37,37,1924.4200883359126,1926.421837345919,left,1,3,0.8078703525479796,Z23N021,2022-11-28_09h21.04.321,t1_Paradigm,2021.1.4,60.00358035896724,
Q,right,Target,0,38,38,38,1927.9195051187094,1929.9204614281057,right,1,3,1.0636059633156947,Z23N021,2022-11-28_09h21.04.321,t1_Paradigm,2021.1.4,60.00358035896724,
S,right,Target,0,39,39,39,1931.418951415248,1933.4207068412852,right,1,3,0.580354049413927,Z23N021,2022-11-28_09h21.04.321,t1_Paradigm,2021.1.4,60.00358035896724,
T,left,Distractor,0,40,40,40,1934.9182247997555,1936.9200504813307,left,1,3,0.746034251339097,Z23N021,2022-11-28_09h21.04.321,t1_Paradigm,2021.1.4,60.00358035896724,
G,left,Distractor,0,41,41,41,1938.4179569304683,1940.419978621785,left,1,3,0.6867321615095534,Z23N021,2022-11-28_09h21.04.321,t1_Paradigm,2021.1.4,60.00358035896724,
D,left,Distractor,0,42,42,42,1941.917216199708,1943.9188628740226,left,1,3,0.5224990953397537,Z23N021,2022-11-28_09h21.04.321,t1_Paradigm,2021.1.4,60.00358035896724,
S,left,Lure,0,43,43,43,1945.4164090630284,1947.4177137628994,left,1,3,0.5339093645820867,Z23N021,2022-11-28_09h21.04.321,t1_Paradigm,2021.1.4,60.00358035896724,
Z,left,Pretarget,0,44,44,44,1948.915912783043,1950.9173628060125,left,1,3,0.5980180239139372,Z23N021,2022-11-28_09h21.04.321,t1_Paradigm,2021.1.4,60.00358035896724,
J,left,Distractor,0,45,45,45,1952.4151816763292,1954.4163978349748,left,1,3,0.6456993986894304,Z23N021,2022-11-28_09h21.04.321,t1_Paradigm,2021.1.4,60.00358035896724,
M,left,Pretarget,0,46,46,46,1955.9149102782249,1957.9161918803848,left,1,3,0.545903492630714,Z23N021,2022-11-28_09h21.04.321,t1_Paradigm,2021.1.4,60.00358035896724,
Z,right,Target,0,47,47,47,1959.4142016276187,1961.4155060066882,right,1,3,0.5687349383679248,Z23N021,2022-11-28_09h21.04.321,t1_Paradigm,2021.1.4,60.00358035896724,
P,left,Distractor,0,48,48,48,1962.9137403150016,1964.9155047234817,left,1,3,0.5419897138194756,Z23N021,2022-11-28_09h21.04.321,t1_Paradigm,2021.1.4,60.00358035896724,
M,right,Target,0,49,49,49,1966.4135240947621,1968.412992847409,right,1,3,0.5383832628849632,Z23N021,2022-11-28_09h21.04.321,t1_Paradigm,2021.1.4,60.00358035896724,
K,left,Distractor,0,50,50,50,1969.9124474847877,1971.913814099356,left,1,3,0.6493209272957756,Z23N021,2022-11-28_09h21.04.321,t1_Paradigm,2021.1.4,60.00358035896724,
Y,left,Distractor,0,51,51,51,1973.4117247189138,1975.4136739090823,left,1,3,0.6112225361798664,Z23N021,2022-11-28_09h21.04.321,t1_Paradigm,2021.1.4,60.00358035896724,
X,left,Distractor,0,52,52,52,1976.927142120216,1978.9296921716723,left,1,3,0.6866689636058254,Z23N021,2022-11-28_09h21.04.321,t1_Paradigm,2021.1.4,60.00358035896724,
F,left,Pretarget,0,53,53,53,1980.410640409702,1982.4116589545974,left,1,3,0.5967444417924526,Z23N021,2022-11-28_09h21.04.321,t1_Paradigm,2021.1.4,60.00358035896724,
M,left,Lure,0,54,54,54,1983.9265826423266,1985.9287166141835,left,1,3,0.5894548683559151,Z23N021,2022-11-28_09h21.04.321,t1_Paradigm,2021.1.4,60.00358035896724,
V,left,Distractor,0,55,55,55,1987.4263378707506,1989.428051592587,left,1,3,0.6941885517476294,Z23N021,2022-11-28_09h21.04.321,t1_Paradigm,2021.1.4,60.00358035896724,
F,right,Target,0,56,56,56,1990.9256574506799,1992.926405239074,right,1,3,0.5998087381203732,Z23N021,2022-11-28_09h21.04.321,t1_Paradigm,2021.1.4,60.00358035896724,
S,left,Distractor,0,57,57,57,1994.424855767627,1996.4258104730156,left,1,3,0.5987369401691467,Z23N021,2022-11-28_09h21.04.321,t1_Paradigm,2021.1.4,60.00358035896724,
D,left,Distractor,0,58,58,58,1997.9243691116876,1999.9256991548805,left,1,3,0.6739164607120074,Z23N021,2022-11-28_09h21.04.321,t1_Paradigm,2021.1.4,60.00358035896724,
F,right,Target,0,59,59,59,2001.4236765011588,2003.4250030155345,right,1,3,0.7746029118511615,Z23N021,2022-11-28_09h21.04.321,t1_Paradigm,2021.1.4,60.00358035896724,
V,left,Pretarget,0,60,60,60,2004.9231250433081,2006.9241099040419,left,1,3,0.6020026998658068,Z23N021,2022-11-28_09h21.04.321,t1_Paradigm,2021.1.4,60.00358035896724,
J,left,Distractor,0,61,61,61,2008.4218950901964,2010.4214315319687,left,1,3,1.0922237064637557,Z23N021,2022-11-28_09h21.04.321,t1_Paradigm,2021.1.4,60.00358035896724,
V,left,Lure,0,62,62,62,2011.92192909516,2013.923936029606,left,1,3,1.2993864349709838,Z23N021,2022-11-28_09h21.04.321,t1_Paradigm,2021.1.4,60.00358035896724,
V,right,Target,0,63,63,63,2015.4213137978027,2017.4210728758449,right,1,3,0.6157166449806937,Z23N021,2022-11-28_09h21.04.321,t1_Paradigm,2021.1.4,60.00358035896724,
R,left,Distractor,0,0,0,0,2083.434328074755,2085.4284618977595,left,1,4,0.5625502054417666,Z23N021,2022-11-28_09h21.04.321,t1_Paradigm,2021.1.4,60.00358035896724,
F,left,Distractor,0,1,1,1,2086.926178432384,2088.927709938945,left,1,4,0.48773254903790075,Z23N021,2022-11-28_09h21.04.321,t1_Paradigm,2021.1.4,60.00358035896724,
P,left,Pretarget,0,2,2,2,2090.4255916863635,2092.4275549918007,left,1,4,0.5185586900006456,Z23N021,2022-11-28_09h21.04.321,t1_Paradigm,2021.1.4,60.00358035896724,
H,left,Distractor,0,3,3,3,2093.92481278022,2095.9260767382953,left,1,4,0.4813707336606967,Z23N021,2022-11-28_09h21.04.321,t1_Paradigm,2021.1.4,60.00358035896724,
Z,left,Distractor,0,4,4,4,2097.4240999591943,2099.426118121694,left,1,4,0.5448153338002157,Z23N021,2022-11-28_09h21.04.321,t1_Paradigm,2021.1.4,60.00358035896724,
T,left,Distractor,0,5,5,5,2100.9237650423843,2102.9249026046523,left,1,4,0.6170386681342279,Z23N021,2022-11-28_09h21.04.321,t1_Paradigm,2021.1.4,60.00358035896724,
P,right,Target,0,6,6,6,2104.423062166206,2106.4249324391953,right,1,4,0.6766275545423923,Z23N021,2022-11-28_09h21.04.321,t1_Paradigm,2021.1.4,60.00358035896724,
G,left,Distractor,0,7,7,7,2107.922596362367,2109.9240588965963,left,1,4,0.47514333412891574,Z23N021,2022-11-28_09h21.04.321,t1_Paradigm,2021.1.4,60.00358035896724,
L,left,Distractor,0,8,8,8,2111.4220076915376,2113.423067940634,left,1,4,0.6288608465574725,Z23N021,2022-11-28_09h21.04.321,t1_Paradigm,2021.1.4,60.00358035896724,
P,left,Lure,0,9,9,9,2114.9212278229893,2116.9234439200404,left,1,4,1.295259002333296,Z23N021,2022-11-28_09h21.04.321,t1_Paradigm,2021.1.4,60.00358035896724,
Q,left,Pretarget,0,10,10,10,2118.4207495078904,2120.421130620122,left,1,4,0.7490103272430133,Z23N021,2022-11-28_09h21.04.321,t1_Paradigm,2021.1.4,60.00358035896724,
D,left,Distractor,0,11,11,11,2121.9199680353345,2123.921683040377,left,1,4,0.5099701911203738,Z23N021,2022-11-28_09h21.04.321,t1_Paradigm,2021.1.4,60.00358035896724,
M,left,Pretarget,0,12,12,12,2125.4194188230945,2127.419947824837,left,1,4,0.6403182736257804,Z23N021,2022-11-28_09h21.04.321,t1_Paradigm,2021.1.4,60.00358035896724,
C,left,Distractor,0,13,13,13,2128.91885196677,2130.920113679234,left,1,4,0.6052357378057422,Z23N021,2022-11-28_09h21.04.321,t1_Paradigm,2021.1.4,60.00358035896724,
Q,right,Target,0,14,14,14,2132.4181891907842,2134.4193306026705,right,1,4,0.7797039771694472,Z23N021,2022-11-28_09h21.04.321,t1_Paradigm,2021.1.4,60.00358035896724,
R,left,Distractor,0,15,15,15,2135.9175607405637,2137.918824057036,left,1,4,0.7132890755528933,Z23N021,2022-11-28_09h21.04.321,t1_Paradigm,2021.1.4,60.00358035896724,
M,right,Target,0,16,16,16,2139.4171619842477,2141.419264517553,right,1,4,0.7677358340451974,Z23N021,2022-11-28_09h21.04.321,t1_Paradigm,2021.1.4,60.00358035896724,
S,left,Distractor,0,17,17,17,2142.9165665765854,2144.916116492022,left,1,4,0.5772185351424923,Z23N021,2022-11-28_09h21.04.321,t1_Paradigm,2021.1.4,60.00358035896724,
Z,left,Distractor,0,18,18,18,2146.4151143080057,2148.4168703756454,left,1,4,0.6356207766484658,Z23N021,2022-11-28_09h21.04.321,t1_Paradigm,2021.1.4,60.00358035896724,
L,left,Pretarget,0,19,19,19,2149.9152804832042,2151.915043090063,left,1,4,0.859894096995049,Z23N021,2022-11-28_09h21.04.321,t1_Paradigm,2021.1.4,60.00358035896724,
M,right,Target,0,20,20,20,2153.4147736167683,2155.415977264153,right,1,4,0.7590671347797979,Z23N021,2022-11-28_09h21.04.321,t1_Paradigm,2021.1.4,60.00358035896724,
P,left,Distractor,0,21,21,21,2156.914054058909,2158.913225107725,left,1,4,0.6576495769268149,Z23N021,2022-11-28_09h21.04.321,t1_Paradigm,2021.1.4,60.00358035896724,
F,left,Distractor,0,22,22,22,2160.4136889867546,2162.4152750295775,left,1,4,0.7230648609383934,Z23N021,2022-11-28_09h21.04.321,t1_Paradigm,2021.1.4,60.00358035896724,
L,right,Target,0,23,23,23,2163.9129187422527,2165.9149282431113,right,1,4,0.8030207956389859,Z23N021,2022-11-28_09h21.04.321,t1_Paradigm,2021.1.4,60.00358035896724,
L,left,Lure,0,24,24,24,2167.412357981157,2169.412174161874,left,1,4,0.8164918939864947,Z23N021,2022-11-28_09h21.04.321,t1_Paradigm,2021.1.4,60.00358035896724,
V,left,Pretarget,0,25,25,25,2170.9117141324627,2172.9128266722105,left,1,4,0.6462091523389972,Z23N021,2022-11-28_09h21.04.321,t1_Paradigm,2021.1.4,60.00358035896724,
Z,left,Distractor,0,26,26,26,2174.411228438928,2176.4123319962323,left,1,4,0.9422226798988049,Z23N021,2022-11-28_09h21.04.321,t1_Paradigm,2021.1.4,60.00358035896724,
H,left,Distractor,0,27,27,27,2177.9105342243915,2179.9126848779283,left,1,4,0.6262241786835148,Z23N021,2022-11-28_09h21.04.321,t1_Paradigm,2021.1.4,60.00358035896724,
X,left,Distractor,0,28,28,28,2181.4266894692405,2183.4290470397714,left,1,4,0.571321561199511,Z23N021,2022-11-28_09h21.04.321,t1_Paradigm,2021.1.4,60.00358035896724,
V,right,Target,0,29,29,29,2184.9254848594505,2186.927747793527,right,1,4,0.619244820338281,Z23N021,2022-11-28_09h21.04.321,t1_Paradigm,2021.1.4,60.00358035896724,
C,left,Distractor,0,30,30,30,2188.425454062502,2190.427615944093,left,1,4,0.544381289314515,Z23N021,2022-11-28_09h21.04.321,t1_Paradigm,2021.1.4,60.00358035896724,
S,left,Pretarget,0,31,31,31,2191.925054664583,2193.926131274557,left,1,4,0.7476081037038966,Z23N021,2022-11-28_09h21.04.321,t1_Paradigm,2021.1.4,60.00358035896724,
D,left,Distractor,0,32,32,32,2195.4243678284815,2197.425831645917,left,1,4,0.59527260431787,Z23N021,2022-11-28_09h21.04.321,t1_Paradigm,2021.1.4,60.00358035896724,
V,left,Distractor,0,33,33,33,2198.9235533133665,2200.924932118394,right,0,4,0.9612337000735351,Z23N021,2022-11-28_09h21.04.321,t1_Paradigm,2021.1.4,60.00358035896724,
R,left,Distractor,0,34,34,34,2202.423170917929,2204.4229992891037,left,1,4,0.6430707508552587,Z23N021,2022-11-28_09h21.04.321,t1_Paradigm,2021.1.4,60.00358035896724,
S,right,Target,0,35,35,35,2205.922573264656,2207.923908440673,right,1,4,0.7297150769027212,Z23N021,2022-11-28_09h21.04.321,t1_Paradigm,2021.1.4,60.00358035896724,
Y,left,Distractor,0,36,36,36,2209.4222033804785,2211.4227772944364,left,1,4,0.5968252837810724,Z23N021,2022-11-28_09h21.04.321,t1_Paradigm,2021.1.4,60.00358035896724,
N,left,Pretarget,0,37,37,37,2212.921591611938,2214.9226977356543,left,1,4,0.7375676570454743,Z23N021,2022-11-28_09h21.04.321,t1_Paradigm,2021.1.4,60.00358035896724,
Z,left,Pretarget,0,38,38,38,2216.4209166454934,2218.422311811399,None,0,4,,Z23N021,2022-11-28_09h21.04.321,t1_Paradigm,2021.1.4,60.00358035896724,
P,left,Pretarget,0,39,39,39,2219.920125548891,2221.9220667190216,left,1,4,0.8402000903379303,Z23N021,2022-11-28_09h21.04.321,t1_Paradigm,2021.1.4,60.00358035896724,
M,left,Distractor,0,40,40,40,2223.419553238941,2225.4213073817714,left,1,4,0.6104936750762135,Z23N021,2022-11-28_09h21.04.321,t1_Paradigm,2021.1.4,60.00358035896724,
N,right,Target,0,41,41,41,2226.918776899209,2228.93102125246,left,0,4,0.5785476159308018,Z23N021,2022-11-28_09h21.04.321,t1_Paradigm,2021.1.4,60.00358035896724,
Z,right,Target,0,42,42,42,2230.4182539926956,2232.4200799950727,right,1,4,0.5995103926870797,Z23N021,2022-11-28_09h21.04.321,t1_Paradigm,2021.1.4,60.00358035896724,
P,right,Target,0,43,43,43,2233.9176675674776,2235.917734935801,right,1,4,0.5431311257052585,Z23N021,2022-11-28_09h21.04.321,t1_Paradigm,2021.1.4,60.00358035896724,
X,left,Pretarget,0,44,44,44,2237.417225502953,2239.418645691379,left,1,4,0.6706410769693321,Z23N021,2022-11-28_09h21.04.321,t1_Paradigm,2021.1.4,60.00358035896724,
Z,left,Lure,0,45,45,45,2240.9167991577037,2242.918343175525,left,1,4,1.076870465470165,Z23N021,2022-11-28_09h21.04.321,t1_Paradigm,2021.1.4,60.00358035896724,
R,left,Pretarget,0,46,46,46,2244.4159166326613,2246.4170910871067,left,1,4,0.6691371593406075,Z23N021,2022-11-28_09h21.04.321,t1_Paradigm,2021.1.4,60.00358035896724,
K,left,Distractor,0,47,47,47,2247.9153128841594,2249.9167151076995,left,1,4,0.6869791786966744,Z23N021,2022-11-28_09h21.04.321,t1_Paradigm,2021.1.4,60.00358035896724,
X,right,Target,0,48,48,48,2251.414811792152,2253.4156484425725,left,0,4,0.7803321065885029,Z23N021,2022-11-28_09h21.04.321,t1_Paradigm,2021.1.4,60.00358035896724,
B,left,Distractor,0,49,49,49,2254.91423723659,2256.916693613996,left,1,4,0.7242640171025414,Z23N021,2022-11-28_09h21.04.321,t1_Paradigm,2021.1.4,60.00358035896724,
R,right,Target,0,50,50,50,2258.4136418289277,2260.415199641215,left,0,4,1.1811402698322127,Z23N021,2022-11-28_09h21.04.321,t1_Paradigm,2021.1.4,60.00358035896724,
Y,left,Pretarget,0,51,51,51,2261.912884095686,2263.9139847657766,left,1,4,1.1761123472660984,Z23N021,2022-11-28_09h21.04.321,t1_Paradigm,2021.1.4,60.00358035896724,
W,left,Pretarget,0,52,52,52,2265.4124725073075,2267.413949477607,left,1,4,0.7217726723283704,Z23N021,2022-11-28_09h21.04.321,t1_Paradigm,2021.1.4,60.00358035896724,
Z,left,Distractor,0,53,53,53,2268.9120022122474,2270.9140938383002,left,1,4,1.0051514311599021,Z23N021,2022-11-28_09h21.04.321,t1_Paradigm,2021.1.4,60.00358035896724,
Q,left,Distractor,0,54,54,54,2272.4112143236603,2274.4126370784993,left,1,4,0.7882648871163838,Z23N021,2022-11-28_09h21.04.321,t1_Paradigm,2021.1.4,60.00358035896724,
Y,right,Target,0,55,55,55,2275.910681151498,2277.9120650893497,left,0,4,1.0439488488354982,Z23N021,2022-11-28_09h21.04.321,t1_Paradigm,2021.1.4,60.00358035896724,
W,right,Target,0,56,56,56,2279.426891574212,2281.426397860639,right,1,4,0.7748608362908271,Z23N021,2022-11-28_09h21.04.321,t1_Paradigm,2021.1.4,60.00358035896724,
H,left,Pretarget,0,57,57,57,2282.926140577802,2284.9283290859207,left,1,4,0.7301564998233516,Z23N021,2022-11-28_09h21.04.321,t1_Paradigm,2021.1.4,60.00358035896724,
M,left,Distractor,0,58,58,58,2286.425468498572,2288.4264770986197,left,1,4,0.5919792556896937,Z23N021,2022-11-28_09h21.04.321,t1_Paradigm,2021.1.4,60.00358035896724,
R,left,Pretarget,0,59,59,59,2289.924872449307,2291.926705830119,left,1,4,0.6103326327029208,Z23N021,2022-11-28_09h21.04.321,t1_Paradigm,2021.1.4,60.00358035896724,
J,left,Distractor,0,60,60,60,2293.424246244697,2295.425767164807,left,1,4,0.7479430205139579,Z23N021,2022-11-28_09h21.04.321,t1_Paradigm,2021.1.4,60.00358035896724,
H,right,Target,0,61,61,61,2296.923605924819,2298.9250363788947,right,1,4,0.8730620378855747,Z23N021,2022-11-28_09h21.04.321,t1_Paradigm,2021.1.4,60.00358035896724,
Z,left,Distractor,0,62,62,62,2300.4231096448343,2302.424051838963,left,1,4,0.704834030114398,Z23N021,2022-11-28_09h21.04.321,t1_Paradigm,2021.1.4,60.00358035896724,
R,right,Target,0,63,63,63,2303.922580643092,2305.9232052436932,right,1,4,0.691560866317559,Z23N021,2022-11-28_09h21.04.321,t1_Paradigm,2021.1.4,60.00358035896724,
J,left,Pretarget,0,0,0,0,2315.4340922856213,2317.4223743677,None,0,4,,Z23N021,2022-11-28_09h21.04.321,t1_Paradigm,2021.1.4,60.00358035896724,
G,left,Pretarget,0,1,1,1,2318.9202593231344,2320.9212589407393,None,0,4,,Z23N021,2022-11-28_09h21.04.321,t1_Paradigm,2021.1.4,60.00358035896724,
Z,left,Distractor,0,2,2,2,2322.419370702863,2324.4207440542646,None,0,4,,Z23N021,2022-11-28_09h21.04.321,t1_Paradigm,2021.1.4,60.00358035896724,
F,left,Distractor,0,3,3,3,2325.918099687154,2327.92066417468,left,1,4,1.0223678875090627,Z23N021,2022-11-28_09h21.04.321,t1_Paradigm,2021.1.4,60.00358035896724,
J,right,Target,0,4,4,4,2329.418284789644,2331.4199462208294,right,1,4,0.5974627164450794,Z23N021,2022-11-28_09h21.04.321,t1_Paradigm,2021.1.4,60.00358035896724,
G,right,Target,0,5,5,5,2332.917728198969,2334.9193453595412,right,1,4,0.5715323278127471,Z23N021,2022-11-28_09h21.04.321,t1_Paradigm,2021.1.4,60.00358035896724,
H,left,Distractor,0,6,6,6,2336.416922987099,2338.4194101614526,left,1,4,0.7078707375094382,Z23N021,2022-11-28_09h21.04.321,t1_Paradigm,2021.1.4,60.00358035896724,
P,left,Distractor,0,7,7,7,2339.9164251031057,2341.917675266714,left,1,4,0.8386073106821641,Z23N021,2022-11-28_09h21.04.321,t1_Paradigm,2021.1.4,60.00358035896724,
G,left,Lure,0,8,8,8,2343.415834507467,2345.417791396873,left,1,4,0.9631912310824191,Z23N021,2022-11-28_09h21.04.321,t1_Paradigm,2021.1.4,60.00358035896724,
S,left,Distractor,0,9,9,9,2346.915328282634,2348.9166871979655,left,1,4,0.6889206696278052,Z23N021,2022-11-28_09h21.04.321,t1_Paradigm,2021.1.4,60.00358035896724,
R,left,Pretarget,0,10,10,10,2350.4146334264938,2352.416377945279,left,1,4,0.6553151041061938,Z23N021,2022-11-28_09h21.04.321,t1_Paradigm,2021.1.4,60.00358035896724,
T,left,Pretarget,0,11,11,11,2353.9141634522352,2355.9158495851393,left,1,4,0.4909190707539892,Z23N021,2022-11-28_09h21.04.321,t1_Paradigm,2021.1.4,60.00358035896724,
X,left,Distractor,0,12,12,12,2357.413529548389,2359.4148400226873,left,1,4,0.5837304856422634,Z23N021,2022-11-28_09h21.04.321,t1_Paradigm,2021.1.4,60.00358035896724,
F,left,Pretarget,0,13,13,13,2360.9129752033236,2362.9149699473114,left,1,4,0.6432080539152594,Z23N021,2022-11-28_09h21.04.321,t1_Paradigm,2021.1.4,60.00358035896724,
R,right,Target,0,14,14,14,2364.412332317034,2366.4130881254664,right,1,4,0.9203382403129581,Z23N021,2022-11-28_09h21.04.321,t1_Paradigm,2021.1.4,60.00358035896724,
T,right,Target,0,15,15,15,2367.9118642675844,2369.9129582008422,left,0,4,1.3020243860501068,Z23N021,2022-11-28_09h21.04.321,t1_Paradigm,2021.1.4,60.00358035896724,
C,left,Distractor,0,16,16,16,2371.4110908150665,2373.4123704924173,left,1,4,0.7422244122271877,Z23N021,2022-11-28_09h21.04.321,t1_Paradigm,2021.1.4,60.00358035896724,
F,right,Target,0,17,17,17,2374.9106070463417,2376.9122145828683,left,0,4,0.9485735880243737,Z23N021,2022-11-28_09h21.04.321,t1_Paradigm,2021.1.4,60.00358035896724,
M,left,Distractor,0,18,18,18,2378.410021262726,2380.4114276566856,left,1,4,0.592884878442419,Z23N021,2022-11-28_09h21.04.321,t1_Paradigm,2021.1.4,60.00358035896724,
N,left,Distractor,0,19,19,19,2381.909487769762,2383.9104075077826,left,1,4,0.7390459105499758,Z23N021,2022-11-28_09h21.04.321,t1_Paradigm,2021.1.4,60.00358035896724,
R,left,Lure,0,20,20,20,2385.408604923919,2387.4087431893836,left,1,4,0.6985636431763851,Z23N021,2022-11-28_09h21.04.321,t1_Paradigm,2021.1.4,60.00358035896724,
F,right,Target,0,21,21,21,2388.9083938365043,2390.909174667457,right,1,4,0.5248091872426812,Z23N021,2022-11-28_09h21.04.321,t1_Paradigm,2021.1.4,60.00358035896724,
P,left,Distractor,0,22,22,22,2392.4076223087955,2394.409546155643,left,1,4,0.6283844562667582,Z23N021,2022-11-28_09h21.04.321,t1_Paradigm,2021.1.4,60.00358035896724,
L,left,Pretarget,0,23,23,23,2395.906703212378,2397.9092625670796,left,1,4,0.782072134151349,Z23N021,2022-11-28_09h21.04.321,t1_Paradigm,2021.1.4,60.00358035896724,
T,left,Distractor,0,24,24,24,2399.406504315422,2401.407631932842,left,1,4,0.5858942920431218,Z23N021,2022-11-28_09h21.04.321,t1_Paradigm,2021.1.4,60.00358035896724,
F,left,Distractor,0,25,25,25,2402.906072516547,2404.907631291239,right,0,4,0.8899426150210274,Z23N021,2022-11-28_09h21.04.321,t1_Paradigm,2021.1.4,60.00358035896724,
V,left,Distractor,0,26,26,26,2406.4219262079464,2408.423126326514,left,1,4,0.7828106193010171,Z23N021,2022-11-28_09h21.04.321,t1_Paradigm,2021.1.4,60.00358035896724,
L,right,Target,0,27,27,27,2409.921312193795,2411.92259700397,left,0,4,0.6798423067939439,Z23N021,2022-11-28_09h21.04.321,t1_Paradigm,2021.1.4,60.00358035896724,
S,left,Pretarget,0,28,28,28,2413.420823933848,2415.42240131503,left,1,4,0.572172968491941,Z23N021,2022-11-28_09h21.04.321,t1_Paradigm,2021.1.4,60.00358035896724,
W,left,Distractor,0,29,29,29,2416.920136776945,2418.9215633814024,left,1,4,0.6811402698322127,Z23N021,2022-11-28_09h21.04.321,t1_Paradigm,2021.1.4,60.00358035896724,
Q,left,Distractor,0,30,30,30,2420.419632797723,2422.42108859512,left,1,4,0.6881010216893628,Z23N021,2022-11-28_09h21.04.321,t1_Paradigm,2021.1.4,60.00358035896724,
L,right,Target,0,31,31,31,2423.9190405980767,2425.931436048854,left,0,4,0.545640114564776,Z23N021,2022-11-28_09h21.04.321,t1_Paradigm,2021.1.4,60.00358035896724,
S,right,Target,0,32,32,32,2427.418588588704,2429.417883466915,right,1,4,0.8388488742439222,Z23N021,2022-11-28_09h21.04.321,t1_Paradigm,2021.1.4,60.00358035896724,
Z,left,Pretarget,0,33,33,33,2430.917836309088,2432.919536557261,left,1,4,0.7334158434896381,Z23N021,2022-11-28_09h21.04.321,t1_Paradigm,2021.1.4,60.00358035896724,
F,left,Distractor,0,34,34,34,2434.4172190869217,2436.419020387579,left,1,4,0.7811036342964144,Z23N021,2022-11-28_09h21.04.321,t1_Paradigm,2021.1.4,60.00358035896724,
V,left,Distractor,0,35,35,35,2437.9164664865043,2439.9174414023905,left,1,4,0.5365553356996315,Z23N021,2022-11-28_09h21.04.321,t1_Paradigm,2021.1.4,60.00358035896724,
M,left,Distractor,0,36,36,36,2441.4161001311436,2443.417400018992,left,1,4,0.8409648812130399,Z23N021,2022-11-28_09h21.04.321,t1_Paradigm,2021.1.4,60.00358035896724,
Z,right,Target,0,37,37,37,2444.9154421671815,2446.915885514912,None,0,4,,Z23N021,2022-11-28_09h21.04.321,t1_Paradigm,2021.1.4,60.00358035896724,
H,left,Pretarget,0,38,38,38,2448.4148804436813,2450.416189955575,left,1,4,0.7570954885031824,Z23N021,2022-11-28_09h21.04.321,t1_Paradigm,2021.1.4,60.00358035896724,
L,left,Distractor,0,39,39,39,2451.914429075912,2453.915050468499,left,1,4,0.9443781454592681,Z23N021,2022-11-28_09h21.04.321,t1_Paradigm,2021.1.4,60.00358035896724,
G,left,Distractor,0,40,40,40,2455.41365883141,2457.4146892459626,left,1,4,0.7101660725420516,Z23N021,2022-11-28_09h21.04.321,t1_Paradigm,2021.1.4,60.00358035896724,
K,left,Distractor,0,41,41,41,2458.9131266216514,2460.91381281615,left,1,4,0.526053576423692,Z23N021,2022-11-28_09h21.04.321,t1_Paradigm,2021.1.4,60.00358035896724,
H,right,Target,0,42,42,42,2462.4124240662754,2464.4126774994934,left,0,4,0.6802959201750127,Z23N021,2022-11-28_09h21.04.321,t1_Paradigm,2021.1.4,60.00358035896724,
B,left,Distractor,0,43,43,43,2465.9118058817035,2467.910743386997,left,1,4,0.4928021758041723,Z23N021,2022-11-28_09h21.04.321,t1_Paradigm,2021.1.4,60.00358035896724,
Z,left,Distractor,0,44,44,44,2469.4113102433216,2471.4125129283025,left,1,4,0.6113938442031213,Z23N021,2022-11-28_09h21.04.321,t1_Paradigm,2021.1.4,60.00358035896724,
T,left,Pretarget,0,45,45,45,2472.910643938519,2474.9130265315703,left,1,4,0.6900960864777517,Z23N021,2022-11-28_09h21.04.321,t1_Paradigm,2021.1.4,60.00358035896724,
H,right,Target,0,46,46,46,2476.410011317879,2478.411416749433,None,0,4,,Z23N021,2022-11-28_09h21.04.321,t1_Paradigm,2021.1.4,60.00358035896724,
F,left,Distractor,0,47,47,47,2479.909512471481,2481.9109268854786,left,1,4,0.6279892287675466,Z23N021,2022-11-28_09h21.04.321,t1_Paradigm,2021.1.4,60.00358035896724,
R,left,Distractor,0,48,48,48,2483.4089238006513,2485.410106595936,left,1,4,0.6109334939910696,Z23N021,2022-11-28_09h21.04.321,t1_Paradigm,2021.1.4,60.00358035896724,
T,right,Target,0,49,49,49,2486.9082199620684,2488.909956140013,right,1,4,0.8459193402268284,Z23N021,2022-11-28_09h21.04.321,t1_Paradigm,2021.1.4,60.00358035896724,
H,right,Target,0,50,50,50,2490.407748704604,2492.408457034408,right,1,4,0.5154157972938265,Z23N021,2022-11-28_09h21.04.321,t1_Paradigm,2021.1.4,60.00358035896724,
Y,left,Pretarget,0,51,51,51,2493.9071606753773,2495.908528573152,left,1,4,0.6031492445763433,Z23N021,2022-11-28_09h21.04.321,t1_Paradigm,2021.1.4,60.00358035896724,
H,left,Distractor,0,52,52,52,2497.4065097690486,2499.4057754543187,left,1,4,0.8002128197431375,Z23N021,2022-11-28_09h21.04.321,t1_Paradigm,2021.1.4,60.00358035896724,
S,left,Distractor,0,53,53,53,2500.9059952033754,2502.9078497570895,left,1,4,0.5271349984213884,Z23N021,2022-11-28_09h21.04.321,t1_Paradigm,2021.1.4,60.00358035896724,
Q,left,Distractor,0,54,54,54,2504.4226088736273,2506.4230785270843,left,1,4,0.5875839537638967,Z23N021,2022-11-28_09h21.04.321,t1_Paradigm,2021.1.4,60.00358035896724,
Y,right,Target,0,55,55,55,2507.921551190944,2509.922960472117,right,1,4,0.8998088664411625,Z23N021,2022-11-28_09h21.04.321,t1_Paradigm,2021.1.4,60.00358035896724,
R,left,Distractor,0,56,56,56,2511.420733788615,2513.4330374901515,left,1,4,0.6227091561895577,Z23N021,2022-11-28_09h21.04.321,t1_Paradigm,2021.1.4,60.00358035896724,
H,left,Pretarget,0,57,57,57,2514.9201768771377,2516.9209670113355,left,1,4,0.6207506627752082,Z23N021,2022-11-28_09h21.04.321,t1_Paradigm,2021.1.4,60.00358035896724,
J,left,Distractor,0,58,58,58,2518.4197052988716,2520.4207135781176,left,1,4,0.6685305236251224,Z23N021,2022-11-28_09h21.04.321,t1_Paradigm,2021.1.4,60.00358035896724,
V,left,Distractor,0,59,59,59,2521.919110532813,2523.9191900915953,left,1,4,0.6760026331385234,Z23N021,2022-11-28_09h21.04.321,t1_Paradigm,2021.1.4,60.00358035896724,
Y,left,Lure,0,60,60,60,2525.4184031654127,2527.4177314069843,left,1,4,0.6555637253013629,Z23N021,2022-11-28_09h21.04.321,t1_Paradigm,2021.1.4,60.00358035896724,
H,right,Target,0,61,61,61,2528.917815136187,2530.9194736801587,right,1,4,0.819439418553884,Z23N021,2022-11-28_09h21.04.321,t1_Paradigm,2021.1.4,60.00358035896724,
L,left,Distractor,0,62,62,62,2532.417324309827,2534.418633821722,left,1,4,0.6347542916837483,Z23N021,2022-11-28_09h21.04.321,t1_Paradigm,2021.1.4,60.00358035896724,
P,left,Distractor,0,63,63,63,2535.9167215237308,2537.918204589259,left,1,4,0.5605734263399427,Z23N021,2022-11-28_09h21.04.321,t1_Paradigm,2021.1.4,60.00358035896724,
