Letter,CorrAnswer,Stimulus,nback_run.thisRepN,nback_run.thisTrialN,nback_run.thisN,nback_run.thisIndex,fixcross.started,nback_trial.started,trial_resp.keys,trial_resp.corr,currentlevel,trial_resp.rt,Participant,date,expName,psychopyVersion,frameRate
H,left,Distractor,0,0,0,0,452.7854592,454.7700642,None,0,1,,Z23N02,2022-11-28_09h21.04.321,t1_Paradigm,04.01.2021,60.00358036
Q,left,Pretarget,0,1,1,1,456.2712794,458.2715405,left,1,1,0.896702545,Z23N02,2022-11-28_09h21.04.321,t1_Paradigm,04.01.2021,60.00358036
Q,right,Target,0,2,2,2,459.7678988,461.7675504,right,1,1,0.563249553,Z23N02,2022-11-28_09h21.04.321,t1_Paradigm,04.01.2021,60.00358036
T,left,Distractor,0,3,3,3,463.2670397,465.2686238,left,1,1,1.105198204,Z23N02,2022-11-28_09h21.04.321,t1_Paradigm,04.01.2021,60.00358036
Q,left,Lure,0,4,4,4,466.7665951,468.7678606,left,1,1,1.420457258,Z23N02,2022-11-28_09h21.04.321,t1_Paradigm,04.01.2021,60.00358036
L,left,Distractor,0,5,5,5,470.2659862,472.2674904,left,1,1,1.050790583,Z23N02,2022-11-28_09h21.04.321,t1_Paradigm,04.01.2021,60.00358036
V,left,Pretarget,0,6,6,6,473.7655592,475.7672036,None,0,1,,Z23N02,2022-11-28_09h21.04.321,t1_Paradigm,04.01.2021,60.00358036
V,right,Target,0,7,7,7,477.2654822,479.2646417,right,1,1,0.909579519,Z23N02,2022-11-28_09h21.04.321,t1_Paradigm,04.01.2021,60.00358036
K,left,Distractor,0,8,8,8,480.7642943,482.7661261,left,1,1,0.603001034,Z23N02,2022-11-28_09h21.04.321,t1_Paradigm,04.01.2021,60.00358036
G,left,Pretarget,0,9,9,9,484.2634656,486.2654026,left,1,1,1.024855062,Z23N02,2022-11-28_09h21.04.321,t1_Paradigm,04.01.2021,60.00358036
G,right,Target,0,10,10,10,487.7630313,489.7627663,right,1,1,0.889649082,Z23N02,2022-11-28_09h21.04.321,t1_Paradigm,04.01.2021,60.00358036
G,right,Target,0,11,11,11,491.262449,493.2621796,right,1,1,0.846165716,Z23N02,2022-11-28_09h21.04.321,t1_Paradigm,04.01.2021,60.00358036
P,left,Pretarget,0,12,12,12,494.761623,496.7633928,left,1,1,0.5031939,Z23N02,2022-11-28_09h21.04.321,t1_Paradigm,04.01.2021,60.00358036
P,right,Target,0,13,13,13,498.2613249,500.2608963,right,1,1,0.661609551,Z23N02,2022-11-28_09h21.04.321,t1_Paradigm,04.01.2021,60.00358036
G,left,Lure,0,14,14,14,501.7606901,503.7629886,left,1,1,1.047472533,Z23N02,2022-11-28_09h21.04.321,t1_Paradigm,04.01.2021,60.00358036
Y,left,Distractor,0,15,15,15,505.260206,507.2630627,left,1,1,0.954972937,Z23N02,2022-11-28_09h21.04.321,t1_Paradigm,04.01.2021,60.00358036
B,left,Distractor,0,16,16,16,508.7590716,510.7586533,left,1,1,0.548677784,Z23N02,2022-11-28_09h21.04.321,t1_Paradigm,04.01.2021,60.00358036
T,left,Pretarget,0,17,17,17,512.2588195,514.2595827,left,1,1,1.013260653,Z23N02,2022-11-28_09h21.04.321,t1_Paradigm,04.01.2021,60.00358036
T,right,Target,0,18,18,18,515.7582254,517.7581092,right,1,1,0.420647493,Z23N02,2022-11-28_09h21.04.321,t1_Paradigm,04.01.2021,60.00358036
S,left,Distractor,0,19,19,19,519.2577278,521.2594152,left,1,1,1.089076323,Z23N02,2022-11-28_09h21.04.321,t1_Paradigm,04.01.2021,60.00358036
T,left,Lure,0,20,20,20,522.7571077,524.7584143,left,1,1,1.046206008,Z23N02,2022-11-28_09h21.04.321,t1_Paradigm,04.01.2021,60.00358036
J,left,Distractor,0,21,21,21,526.2566393,528.2575013,left,1,1,0.571060429,Z23N02,2022-11-28_09h21.04.321,t1_Paradigm,04.01.2021,60.00358036
P,left,Distractor,0,22,22,22,529.7559351,531.755563,left,1,1,0.549471768,Z23N02,2022-11-28_09h21.04.321,t1_Paradigm,04.01.2021,60.00358036
F,left,Distractor,0,23,23,23,533.2552996,535.2570592,left,1,1,0.642486571,Z23N02,2022-11-28_09h21.04.321,t1_Paradigm,04.01.2021,60.00358036
L,left,Distractor,0,24,24,24,536.7546689,538.7566313,left,1,1,0.733862399,Z23N02,2022-11-28_09h21.04.321,t1_Paradigm,04.01.2021,60.00358036
W,left,Pretarget,0,25,25,25,540.2543151,542.2577753,left,1,1,0.583010286,Z23N02,2022-11-28_09h21.04.321,t1_Paradigm,04.01.2021,60.00358036
W,right,Target,0,26,26,26,543.7527319,545.7533764,right,1,1,0.702481592,Z23N02,2022-11-28_09h21.04.321,t1_Paradigm,04.01.2021,60.00358036
V,left,Distractor,0,27,27,27,547.2530973,549.25447,left,1,1,0.865483101,Z23N02,2022-11-28_09h21.04.321,t1_Paradigm,04.01.2021,60.00358036
W,left,Lure,0,28,28,28,550.7689953,552.7698034,left,1,1,0.863739545,Z23N02,2022-11-28_09h21.04.321,t1_Paradigm,04.01.2021,60.00358036
R,left,Pretarget,0,29,29,29,554.2686578,556.2698515,left,1,1,0.563054505,Z23N02,2022-11-28_09h21.04.321,t1_Paradigm,04.01.2021,60.00358036
R,right,Target,0,30,30,30,557.7680557,559.7675283,right,1,1,0.537644457,Z23N02,2022-11-28_09h21.04.321,t1_Paradigm,04.01.2021,60.00358036
G,left,Distractor,0,31,31,31,561.2672354,563.2693495,left,1,1,0.76944731,Z23N02,2022-11-28_09h21.04.321,t1_Paradigm,04.01.2021,60.00358036
R,left,Lure,0,32,32,32,564.7666756,566.7675491,left,1,1,0.747964835,Z23N02,2022-11-28_09h21.04.321,t1_Paradigm,04.01.2021,60.00358036
S,left,Distractor,0,33,33,33,568.2662573,570.266956,left,1,1,0.55796531,Z23N02,2022-11-28_09h21.04.321,t1_Paradigm,04.01.2021,60.00358036
R,left,Lure,0,34,34,34,571.7656349,573.7666721,left,1,1,0.901381756,Z23N02,2022-11-28_09h21.04.321,t1_Paradigm,04.01.2021,60.00358036
P,left,Pretarget,0,35,35,35,575.2650597,577.266101,left,1,1,0.764859848,Z23N02,2022-11-28_09h21.04.321,t1_Paradigm,04.01.2021,60.00358036
P,right,Target,0,36,36,36,578.7644524,580.7638009,right,1,1,0.551856607,Z23N02,2022-11-28_09h21.04.321,t1_Paradigm,04.01.2021,60.00358036
Y,left,Pretarget,0,37,37,37,582.2636921,584.275804,left,1,1,0.745172899,Z23N02,2022-11-28_09h21.04.321,t1_Paradigm,04.01.2021,60.00358036
Y,right,Target,0,38,38,38,585.763278,587.7629408,right,1,1,0.75499873,Z23N02,2022-11-28_09h21.04.321,t1_Paradigm,04.01.2021,60.00358036
J,left,Distractor,0,39,39,39,589.2625064,591.2645743,left,1,1,0.705395433,Z23N02,2022-11-28_09h21.04.321,t1_Paradigm,04.01.2021,60.00358036
Y,left,Lure,0,40,40,40,592.7617577,594.7643953,right,0,1,0.726944956,Z23N02,2022-11-28_09h21.04.321,t1_Paradigm,04.01.2021,60.00358036
T,left,Distractor,0,41,41,41,596.261416,598.2624917,left,1,1,0.652568722,Z23N02,2022-11-28_09h21.04.321,t1_Paradigm,04.01.2021,60.00358036
V,left,Distractor,0,42,42,42,599.7609082,601.7623916,left,1,1,0.60859068,Z23N02,2022-11-28_09h21.04.321,t1_Paradigm,04.01.2021,60.00358036
N,left,Pretarget,0,43,43,43,603.2601386,605.2607106,left,1,1,0.595254639,Z23N02,2022-11-28_09h21.04.321,t1_Paradigm,04.01.2021,60.00358036
N,right,Target,0,44,44,44,606.7598326,608.7591124,left,0,1,1.388569905,Z23N02,2022-11-28_09h21.04.321,t1_Paradigm,04.01.2021,60.00358036
N,right,Target,0,45,45,45,610.2591335,612.2589831,right,1,1,0.636379151,Z23N02,2022-11-28_09h21.04.321,t1_Paradigm,04.01.2021,60.00358036
X,left,Distractor,0,46,46,46,613.7583129,615.7602034,left,1,1,0.542021794,Z23N02,2022-11-28_09h21.04.321,t1_Paradigm,04.01.2021,60.00358036
Z,left,Distractor,0,47,47,47,617.2576049,619.2600728,left,1,1,0.571863074,Z23N02,2022-11-28_09h21.04.321,t1_Paradigm,04.01.2021,60.00358036
H,left,Pretarget,0,48,48,48,620.7574599,622.7589308,left,1,1,0.569535017,Z23N02,2022-11-28_09h21.04.321,t1_Paradigm,04.01.2021,60.00358036
H,right,Target,0,49,49,49,624.2566534,626.2561437,right,1,1,0.646756761,Z23N02,2022-11-28_09h21.04.321,t1_Paradigm,04.01.2021,60.00358036
K,left,Distractor,0,50,50,50,627.7560016,629.7570753,left,1,1,0.504368996,Z23N02,2022-11-28_09h21.04.321,t1_Paradigm,04.01.2021,60.00358036
V,left,Pretarget,0,51,51,51,631.2555187,633.2561126,left,1,1,0.55128141,Z23N02,2022-11-28_09h21.04.321,t1_Paradigm,04.01.2021,60.00358036
V,right,Target,0,52,52,52,634.7545467,636.7544511,None,0,1,,Z23N02,2022-11-28_09h21.04.321,t1_Paradigm,04.01.2021,60.00358036
R,left,Distractor,0,53,53,53,638.2543363,640.2556548,left,1,1,0.681271478,Z23N02,2022-11-28_09h21.04.321,t1_Paradigm,04.01.2021,60.00358036
V,left,Lure,0,54,54,54,641.7536324,643.7692953,left,1,1,0.567072866,Z23N02,2022-11-28_09h21.04.321,t1_Paradigm,04.01.2021,60.00358036
Y,left,Distractor,0,55,55,55,645.2529119,647.2550683,left,1,1,0.593919463,Z23N02,2022-11-28_09h21.04.321,t1_Paradigm,04.01.2021,60.00358036
Q,left,Distractor,0,56,56,56,648.7695121,650.7707899,left,1,1,0.570803788,Z23N02,2022-11-28_09h21.04.321,t1_Paradigm,04.01.2021,60.00358036
Z,left,Pretarget,0,57,57,57,652.2683848,654.2708065,left,1,1,0.535227538,Z23N02,2022-11-28_09h21.04.321,t1_Paradigm,04.01.2021,60.00358036
Z,right,Target,0,58,58,58,655.7681198,657.7677297,right,1,1,0.559943372,Z23N02,2022-11-28_09h21.04.321,t1_Paradigm,04.01.2021,60.00358036
B,left,Distractor,0,59,59,59,659.2673621,661.2692186,left,1,1,0.616384233,Z23N02,2022-11-28_09h21.04.321,t1_Paradigm,04.01.2021,60.00358036
S,left,Pretarget,0,60,60,60,662.7669386,664.7680342,left,1,1,0.659272191,Z23N02,2022-11-28_09h21.04.321,t1_Paradigm,04.01.2021,60.00358036
S,right,Target,0,61,61,61,666.2658931,668.2659146,left,0,1,0.519783831,Z23N02,2022-11-28_09h21.04.321,t1_Paradigm,04.01.2021,60.00358036
T,left,Distractor,0,62,62,62,669.7656651,671.7674301,left,1,1,0.531657659,Z23N02,2022-11-28_09h21.04.321,t1_Paradigm,04.01.2021,60.00358036
D,left,Distractor,0,63,63,63,673.2647222,675.2664369,left,1,1,0.52160855,Z23N02,2022-11-28_09h21.04.321,t1_Paradigm,04.01.2021,60.00358036
R,left,Distractor,0,0,0,0,688.445577,690.4288793,None,0,1,,Z23N02,2022-11-28_09h21.04.321,t1_Paradigm,04.01.2021,60.00358036
V,left,Distractor,0,1,1,1,691.9285556,693.9292694,left,1,1,0.519221466,Z23N02,2022-11-28_09h21.04.321,t1_Paradigm,04.01.2021,60.00358036
N,left,Pretarget,0,2,2,2,695.4280497,697.4300281,left,1,1,0.601180806,Z23N02,2022-11-28_09h21.04.321,t1_Paradigm,04.01.2021,60.00358036
N,right,Target,0,3,3,3,698.9272217,700.9267671,right,1,1,0.593339775,Z23N02,2022-11-28_09h21.04.321,t1_Paradigm,04.01.2021,60.00358036
S,left,Distractor,0,4,4,4,702.4266391,704.4280279,left,1,1,0.540674427,Z23N02,2022-11-28_09h21.04.321,t1_Paradigm,04.01.2021,60.00358036
N,left,Lure,0,5,5,5,705.926284,707.9277122,left,1,1,0.603255109,Z23N02,2022-11-28_09h21.04.321,t1_Paradigm,04.01.2021,60.00358036
Z,left,Distractor,0,6,6,6,709.4253148,711.4276711,left,1,1,0.55991065,Z23N02,2022-11-28_09h21.04.321,t1_Paradigm,04.01.2021,60.00358036
L,left,Pretarget,0,7,7,7,712.9247906,714.9261524,left,1,1,0.566705227,Z23N02,2022-11-28_09h21.04.321,t1_Paradigm,04.01.2021,60.00358036
L,right,Target,0,8,8,8,716.4245257,718.4240935,right,1,1,0.606691214,Z23N02,2022-11-28_09h21.04.321,t1_Paradigm,04.01.2021,60.00358036
H,left,Distractor,0,9,9,9,719.9239399,721.9248012,left,1,1,0.599069611,Z23N02,2022-11-28_09h21.04.321,t1_Paradigm,04.01.2021,60.00358036
L,left,Lure,0,10,10,10,723.4232129,725.4243309,left,1,1,0.718909519,Z23N02,2022-11-28_09h21.04.321,t1_Paradigm,04.01.2021,60.00358036
X,left,Pretarget,0,11,11,11,726.9217899,728.9237737,left,1,1,0.724852046,Z23N02,2022-11-28_09h21.04.321,t1_Paradigm,04.01.2021,60.00358036
X,right,Target,0,12,12,12,730.4217033,732.4215027,right,1,1,0.74083053,Z23N02,2022-11-28_09h21.04.321,t1_Paradigm,04.01.2021,60.00358036
X,right,Target,0,13,13,13,733.921385,735.9211181,right,1,1,0.672922297,Z23N02,2022-11-28_09h21.04.321,t1_Paradigm,04.01.2021,60.00358036
R,left,Distractor,0,14,14,14,737.4207851,739.4224376,left,1,1,0.530389209,Z23N02,2022-11-28_09h21.04.321,t1_Paradigm,04.01.2021,60.00358036
T,left,Distractor,0,15,15,15,740.9203026,742.9219268,left,1,1,0.581006239,Z23N02,2022-11-28_09h21.04.321,t1_Paradigm,04.01.2021,60.00358036
V,left,Pretarget,0,16,16,16,744.4197428,746.4218925,left,1,1,0.57381868,Z23N02,2022-11-28_09h21.04.321,t1_Paradigm,04.01.2021,60.00358036
V,right,Target,0,17,17,17,747.9191368,749.9188738,right,1,1,0.54142767,Z23N02,2022-11-28_09h21.04.321,t1_Paradigm,04.01.2021,60.00358036
N,left,Distractor,0,18,18,18,751.4183332,753.4191574,left,1,1,0.542476049,Z23N02,2022-11-28_09h21.04.321,t1_Paradigm,04.01.2021,60.00358036
B,left,Distractor,0,19,19,19,754.9177924,756.9186069,left,1,1,0.498991079,Z23N02,2022-11-28_09h21.04.321,t1_Paradigm,04.01.2021,60.00358036
V,left,Lure,0,20,20,20,758.4174664,760.4167536,left,1,1,0.575426538,Z23N02,2022-11-28_09h21.04.321,t1_Paradigm,04.01.2021,60.00358036
P,left,Distractor,0,21,21,21,761.9166028,763.9181703,left,1,1,0.615680394,Z23N02,2022-11-28_09h21.04.321,t1_Paradigm,04.01.2021,60.00358036
K,left,Pretarget,0,22,22,22,765.4159959,767.417374,left,1,1,0.646433393,Z23N02,2022-11-28_09h21.04.321,t1_Paradigm,04.01.2021,60.00358036
K,right,Target,0,23,23,23,768.9154585,770.9149658,right,1,1,0.89888175,Z23N02,2022-11-28_09h21.04.321,t1_Paradigm,04.01.2021,60.00358036
J,left,Pretarget,0,24,24,24,772.4148221,774.4162111,left,1,1,0.59728788,Z23N02,2022-11-28_09h21.04.321,t1_Paradigm,04.01.2021,60.00358036
J,right,Target,0,25,25,25,775.9309173,777.9303678,right,1,1,0.567651271,Z23N02,2022-11-28_09h21.04.321,t1_Paradigm,04.01.2021,60.00358036
H,left,Distractor,0,26,26,26,779.4303161,781.4321912,left,1,1,0.608208606,Z23N02,2022-11-28_09h21.04.321,t1_Paradigm,04.01.2021,60.00358036
J,left,Lure,0,27,27,27,782.9299501,784.9319038,left,1,1,0.703559486,Z23N02,2022-11-28_09h21.04.321,t1_Paradigm,04.01.2021,60.00358036
V,left,Distractor,0,28,28,28,786.429389,788.4287955,left,1,1,0.532933807,Z23N02,2022-11-28_09h21.04.321,t1_Paradigm,04.01.2021,60.00358036
Z,left,Pretarget,0,29,29,29,789.9282636,791.9304342,left,1,1,0.650420314,Z23N02,2022-11-28_09h21.04.321,t1_Paradigm,04.01.2021,60.00358036
Z,right,Target,0,30,30,30,793.4278505,795.4277241,right,1,1,0.65021436,Z23N02,2022-11-28_09h21.04.321,t1_Paradigm,04.01.2021,60.00358036
T,left,Distractor,0,31,31,31,796.927136,798.9292764,left,1,1,0.678588935,Z23N02,2022-11-28_09h21.04.321,t1_Paradigm,04.01.2021,60.00358036
Z,left,Lure,0,32,32,32,800.4267767,802.4282364,left,1,1,1.2394899,Z23N02,2022-11-28_09h21.04.321,t1_Paradigm,04.01.2021,60.00358036
F,left,Distractor,0,33,33,33,803.9261922,805.927546,left,1,1,0.585059246,Z23N02,2022-11-28_09h21.04.321,t1_Paradigm,04.01.2021,60.00358036
Y,left,Pretarget,0,34,34,34,807.4257335,809.4265364,left,1,1,0.583153043,Z23N02,2022-11-28_09h21.04.321,t1_Paradigm,04.01.2021,60.00358036
Y,right,Target,0,35,35,35,810.9248686,812.9245731,right,1,1,0.680312602,Z23N02,2022-11-28_09h21.04.321,t1_Paradigm,04.01.2021,60.00358036
Y,right,Target,0,36,36,36,814.4242953,816.4239688,right,1,1,0.510963072,Z23N02,2022-11-28_09h21.04.321,t1_Paradigm,04.01.2021,60.00358036
W,left,Distractor,0,37,37,37,817.9238408,819.9249254,left,1,1,0.629693327,Z23N02,2022-11-28_09h21.04.321,t1_Paradigm,04.01.2021,60.00358036
Q,left,Distractor,0,38,38,38,821.4224594,823.4247082,left,1,1,0.692013196,Z23N02,2022-11-28_09h21.04.321,t1_Paradigm,04.01.2021,60.00358036
P,left,Pretarget,0,39,39,39,824.9226859,826.9249116,left,1,1,0.648422683,Z23N02,2022-11-28_09h21.04.321,t1_Paradigm,04.01.2021,60.00358036
P,right,Target,0,40,40,40,828.4218951,830.4216272,right,1,1,0.551045621,Z23N02,2022-11-28_09h21.04.321,t1_Paradigm,04.01.2021,60.00358036
J,left,Distractor,0,41,41,41,831.9212663,833.9222621,left,1,1,0.654028048,Z23N02,2022-11-28_09h21.04.321,t1_Paradigm,04.01.2021,60.00358036
P,left,Lure,0,42,42,42,835.4210751,837.433066,left,1,1,0.974602463,Z23N02,2022-11-28_09h21.04.321,t1_Paradigm,04.01.2021,60.00358036
L,left,Distractor,0,43,43,43,838.9202664,840.9219596,left,1,1,0.714244423,Z23N02,2022-11-28_09h21.04.321,t1_Paradigm,04.01.2021,60.00358036
Z,left,Distractor,0,44,44,44,842.4199032,844.4213083,left,1,1,0.744447888,Z23N02,2022-11-28_09h21.04.321,t1_Paradigm,04.01.2021,60.00358036
F,left,Pretarget,0,45,45,45,845.9191664,847.9201519,left,1,1,0.685572143,Z23N02,2022-11-28_09h21.04.321,t1_Paradigm,04.01.2021,60.00358036
F,right,Target,0,46,46,46,849.4184949,851.4181241,right,1,1,0.472715829,Z23N02,2022-11-28_09h21.04.321,t1_Paradigm,04.01.2021,60.00358036
G,left,Pretarget,0,47,47,47,852.917826,854.9176079,left,1,1,0.796635562,Z23N02,2022-11-28_09h21.04.321,t1_Paradigm,04.01.2021,60.00358036
G,right,Target,0,48,48,48,856.417246,858.4172387,right,1,1,0.728880993,Z23N02,2022-11-28_09h21.04.321,t1_Paradigm,04.01.2021,60.00358036
V,left,Distractor,0,49,49,49,859.916777,861.9156693,left,1,1,0.564834312,Z23N02,2022-11-28_09h21.04.321,t1_Paradigm,04.01.2021,60.00358036
G,left,Lure,0,50,50,50,863.4159494,865.4176172,left,1,1,0.828965941,Z23N02,2022-11-28_09h21.04.321,t1_Paradigm,04.01.2021,60.00358036
Q,left,Pretarget,0,51,51,51,866.9159487,868.9151294,left,1,1,0.800201912,Z23N02,2022-11-28_09h21.04.321,t1_Paradigm,04.01.2021,60.00358036
Q,right,Target,0,52,52,52,870.4148317,872.4145401,right,1,1,0.500479919,Z23N02,2022-11-28_09h21.04.321,t1_Paradigm,04.01.2021,60.00358036
Y,left,Distractor,0,53,53,53,873.914439,875.916171,left,1,1,0.895547018,Z23N02,2022-11-28_09h21.04.321,t1_Paradigm,04.01.2021,60.00358036
V,left,Distractor,0,54,54,54,877.4305519,879.4426343,left,1,1,0.60098608,Z23N02,2022-11-28_09h21.04.321,t1_Paradigm,04.01.2021,60.00358036
B,left,Distractor,0,55,55,55,880.9298057,882.9311945,left,1,1,0.70761955,Z23N02,2022-11-28_09h21.04.321,t1_Paradigm,04.01.2021,60.00358036
J,left,Pretarget,0,56,56,56,884.4293601,886.4306174,left,1,1,0.558639314,Z23N02,2022-11-28_09h21.04.321,t1_Paradigm,04.01.2021,60.00358036
J,right,Target,0,57,57,57,887.9286425,889.9283429,right,1,1,0.602517907,Z23N02,2022-11-28_09h21.04.321,t1_Paradigm,04.01.2021,60.00358036
H,left,Distractor,0,58,58,58,891.4280587,893.4288186,left,1,1,0.477784814,Z23N02,2022-11-28_09h21.04.321,t1_Paradigm,04.01.2021,60.00358036
J,left,Lure,0,59,59,59,894.9275508,896.928503,right,0,1,0.670701388,Z23N02,2022-11-28_09h21.04.321,t1_Paradigm,04.01.2021,60.00358036
D,left,Pretarget,0,60,60,60,898.4269817,900.4288007,left,1,1,0.667524811,Z23N02,2022-11-28_09h21.04.321,t1_Paradigm,04.01.2021,60.00358036
D,right,Target,0,61,61,61,901.9265188,903.9258272,right,1,1,0.626874443,Z23N02,2022-11-28_09h21.04.321,t1_Paradigm,04.01.2021,60.00358036
R,left,Distractor,0,62,62,62,905.425678,907.4274741,left,1,1,0.475735213,Z23N02,2022-11-28_09h21.04.321,t1_Paradigm,04.01.2021,60.00358036
F,left,Distractor,0,63,63,63,908.9253312,910.9276448,left,1,1,0.603048834,Z23N02,2022-11-28_09h21.04.321,t1_Paradigm,04.01.2021,60.00358036
F,left,Distractor,0,0,0,0,1032.083268,1034.070782,None,0,2,,Z23N02,2022-11-28_09h21.04.321,t1_Paradigm,04.01.2021,60.00358036
N,left,Pretarget,0,1,1,1,1035.57035,1037.571484,None,0,2,,Z23N02,2022-11-28_09h21.04.321,t1_Paradigm,04.01.2021,60.00358036
V,left,Distractor,0,2,2,2,1039.069925,1041.071114,left,1,2,0.704190502,Z23N02,2022-11-28_09h21.04.321,t1_Paradigm,04.01.2021,60.00358036
N,right,Target,0,3,3,3,1042.569169,1044.57181,right,1,2,0.651664062,Z23N02,2022-11-28_09h21.04.321,t1_Paradigm,04.01.2021,60.00358036
N,left,Lure,0,4,4,4,1046.068763,1048.068211,left,1,2,1.251766333,Z23N02,2022-11-28_09h21.04.321,t1_Paradigm,04.01.2021,60.00358036
X,left,Distractor,0,5,5,5,1049.567896,1051.569041,left,1,2,1.248826829,Z23N02,2022-11-28_09h21.04.321,t1_Paradigm,04.01.2021,60.00358036
G,left,Pretarget,0,6,6,6,1053.066877,1055.068353,left,1,2,0.867448332,Z23N02,2022-11-28_09h21.04.321,t1_Paradigm,04.01.2021,60.00358036
H,left,Pretarget,0,7,7,7,1056.566814,1058.578989,left,1,2,0.764635287,Z23N02,2022-11-28_09h21.04.321,t1_Paradigm,04.01.2021,60.00358036
G,right,Target,0,8,8,8,1060.066169,1062.067309,right,1,2,0.464229345,Z23N02,2022-11-28_09h21.04.321,t1_Paradigm,04.01.2021,60.00358036
H,right,Target,0,9,9,9,1063.5656,1065.566834,right,1,2,0.943010889,Z23N02,2022-11-28_09h21.04.321,t1_Paradigm,04.01.2021,60.00358036
T,left,Pretarget,0,10,10,10,1067.065181,1069.067074,left,1,2,0.806116531,Z23N02,2022-11-28_09h21.04.321,t1_Paradigm,04.01.2021,60.00358036
K,left,Distractor,0,11,11,11,1070.564542,1072.566394,left,1,2,0.689949801,Z23N02,2022-11-28_09h21.04.321,t1_Paradigm,04.01.2021,60.00358036
T,right,Target,0,12,12,12,1074.063774,1076.063548,right,1,2,1.228120693,Z23N02,2022-11-28_09h21.04.321,t1_Paradigm,04.01.2021,60.00358036
T,left,Lure,0,13,13,13,1077.563315,1079.563181,left,1,2,1.00119659,Z23N02,2022-11-28_09h21.04.321,t1_Paradigm,04.01.2021,60.00358036
J,left,Distractor,0,14,14,14,1081.063135,1083.064567,left,1,2,0.87507186,Z23N02,2022-11-28_09h21.04.321,t1_Paradigm,04.01.2021,60.00358036
Q,left,Pretarget,0,15,15,15,1084.562213,1086.56339,left,1,2,0.629167533,Z23N02,2022-11-28_09h21.04.321,t1_Paradigm,04.01.2021,60.00358036
M,left,Distractor,0,16,16,16,1088.061793,1090.06439,left,1,2,0.596976381,Z23N02,2022-11-28_09h21.04.321,t1_Paradigm,04.01.2021,60.00358036
Q,right,Target,0,17,17,17,1091.560862,1093.562255,right,1,2,0.596688302,Z23N02,2022-11-28_09h21.04.321,t1_Paradigm,04.01.2021,60.00358036
R,left,Distractor,0,18,18,18,1095.060217,1097.061398,left,1,2,0.602619601,Z23N02,2022-11-28_09h21.04.321,t1_Paradigm,04.01.2021,60.00358036
W,left,Distractor,0,19,19,19,1098.559606,1100.561185,left,1,2,0.689911626,Z23N02,2022-11-28_09h21.04.321,t1_Paradigm,04.01.2021,60.00358036
C,left,Pretarget,0,20,20,20,1102.059174,1104.060975,left,1,2,0.711832637,Z23N02,2022-11-28_09h21.04.321,t1_Paradigm,04.01.2021,60.00358036
T,left,Distractor,0,21,21,21,1105.558452,1107.56006,left,1,2,0.79143601,Z23N02,2022-11-28_09h21.04.321,t1_Paradigm,04.01.2021,60.00358036
C,right,Target,0,22,22,22,1109.057918,1111.05932,right,1,2,0.85855443,Z23N02,2022-11-28_09h21.04.321,t1_Paradigm,04.01.2021,60.00358036
F,left,Pretarget,0,23,23,23,1112.556591,1114.559278,left,1,2,0.689162554,Z23N02,2022-11-28_09h21.04.321,t1_Paradigm,04.01.2021,60.00358036
C,right,Target,0,24,24,24,1116.056741,1118.058716,right,1,2,0.744258294,Z23N02,2022-11-28_09h21.04.321,t1_Paradigm,04.01.2021,60.00358036
F,right,Target,0,25,25,25,1119.556491,1121.558155,right,1,2,0.693510698,Z23N02,2022-11-28_09h21.04.321,t1_Paradigm,04.01.2021,60.00358036
H,left,Distractor,0,26,26,26,1123.055397,1125.056936,left,1,2,0.590258797,Z23N02,2022-11-28_09h21.04.321,t1_Paradigm,04.01.2021,60.00358036
H,left,Lure,0,27,27,27,1126.555022,1128.554572,left,1,2,0.772890152,Z23N02,2022-11-28_09h21.04.321,t1_Paradigm,04.01.2021,60.00358036
P,left,Distractor,0,28,28,28,1130.054363,1132.05363,left,1,2,0.681730224,Z23N02,2022-11-28_09h21.04.321,t1_Paradigm,04.01.2021,60.00358036
G,left,Pretarget,0,29,29,29,1133.553931,1135.555338,left,1,2,0.901645134,Z23N02,2022-11-28_09h21.04.321,t1_Paradigm,04.01.2021,60.00358036
K,left,Distractor,0,30,30,30,1137.0699,1139.071454,left,1,2,0.801083475,Z23N02,2022-11-28_09h21.04.321,t1_Paradigm,04.01.2021,60.00358036
G,right,Target,0,31,31,31,1140.569167,1142.570633,left,0,2,0.815578893,Z23N02,2022-11-28_09h21.04.321,t1_Paradigm,04.01.2021,60.00358036
M,left,Pretarget,0,32,32,32,1144.068646,1146.069855,left,1,2,0.781258261,Z23N02,2022-11-28_09h21.04.321,t1_Paradigm,04.01.2021,60.00358036
B,left,Distractor,0,33,33,33,1147.568193,1149.569474,left,1,2,0.737730945,Z23N02,2022-11-28_09h21.04.321,t1_Paradigm,04.01.2021,60.00358036
M,right,Target,0,34,34,34,1151.06663,1153.079523,right,1,2,0.814691556,Z23N02,2022-11-28_09h21.04.321,t1_Paradigm,04.01.2021,60.00358036
M,left,Lure,0,35,35,35,1154.567076,1156.566804,left,1,2,0.987728058,Z23N02,2022-11-28_09h21.04.321,t1_Paradigm,04.01.2021,60.00358036
T,left,Distractor,0,36,36,36,1158.066408,1160.067095,left,1,2,0.781856556,Z23N02,2022-11-28_09h21.04.321,t1_Paradigm,04.01.2021,60.00358036
F,left,Distractor,0,37,37,37,1161.565618,1163.568187,left,1,2,0.712554761,Z23N02,2022-11-28_09h21.04.321,t1_Paradigm,04.01.2021,60.00358036
X,left,Distractor,0,38,38,38,1165.065126,1167.065947,left,1,2,0.654993019,Z23N02,2022-11-28_09h21.04.321,t1_Paradigm,04.01.2021,60.00358036
C,left,Distractor,0,39,39,39,1168.564616,1170.566452,left,1,2,0.676667013,Z23N02,2022-11-28_09h21.04.321,t1_Paradigm,04.01.2021,60.00358036
R,left,Distractor,0,40,40,40,1172.0641,1174.065097,left,1,2,0.785886785,Z23N02,2022-11-28_09h21.04.321,t1_Paradigm,04.01.2021,60.00358036
B,left,Pretarget,0,41,41,41,1175.563515,1177.565483,left,1,2,0.709087859,Z23N02,2022-11-28_09h21.04.321,t1_Paradigm,04.01.2021,60.00358036
H,left,Distractor,0,42,42,42,1179.062945,1181.064361,left,1,2,0.642402521,Z23N02,2022-11-28_09h21.04.321,t1_Paradigm,04.01.2021,60.00358036
B,right,Target,0,43,43,43,1182.562123,1184.5613,left,0,2,1.450669705,Z23N02,2022-11-28_09h21.04.321,t1_Paradigm,04.01.2021,60.00358036
W,left,Pretarget,0,44,44,44,1186.061619,1188.063659,left,1,2,0.671185156,Z23N02,2022-11-28_09h21.04.321,t1_Paradigm,04.01.2021,60.00358036
L,left,Pretarget,0,45,45,45,1189.561062,1191.563079,left,1,2,0.604010597,Z23N02,2022-11-28_09h21.04.321,t1_Paradigm,04.01.2021,60.00358036
W,right,Target,0,46,46,46,1193.060217,1195.062284,right,1,2,1.038409569,Z23N02,2022-11-28_09h21.04.321,t1_Paradigm,04.01.2021,60.00358036
L,right,Target,0,47,47,47,1196.559883,1198.561191,right,1,2,0.935127191,Z23N02,2022-11-28_09h21.04.321,t1_Paradigm,04.01.2021,60.00358036
W,right,Target,0,48,48,48,1200.059,1202.061292,right,1,2,1.047194398,Z23N02,2022-11-28_09h21.04.321,t1_Paradigm,04.01.2021,60.00358036
X,left,Distractor,0,49,49,49,1203.558697,1205.559879,left,1,2,0.731588558,Z23N02,2022-11-28_09h21.04.321,t1_Paradigm,04.01.2021,60.00358036
R,left,Distractor,0,50,50,50,1207.058054,1209.05939,left,1,2,0.753799253,Z23N02,2022-11-28_09h21.04.321,t1_Paradigm,04.01.2021,60.00358036
V,left,Pretarget,0,51,51,51,1210.557405,1212.559544,left,1,2,1.036269822,Z23N02,2022-11-28_09h21.04.321,t1_Paradigm,04.01.2021,60.00358036
Z,left,Distractor,0,52,52,52,1214.05684,1216.05766,left,1,2,0.730172219,Z23N02,2022-11-28_09h21.04.321,t1_Paradigm,04.01.2021,60.00358036
V,right,Target,0,53,53,53,1217.556153,1219.558101,right,1,2,0.718704526,Z23N02,2022-11-28_09h21.04.321,t1_Paradigm,04.01.2021,60.00358036
V,left,Lure,0,54,54,54,1221.055639,1223.056035,left,1,2,1.142203303,Z23N02,2022-11-28_09h21.04.321,t1_Paradigm,04.01.2021,60.00358036
N,left,Distractor,0,55,55,55,1224.555295,1226.556288,left,1,2,1.122917998,Z23N02,2022-11-28_09h21.04.321,t1_Paradigm,04.01.2021,60.00358036
B,left,Distractor,0,56,56,56,1228.071202,1230.072832,left,1,2,0.667698044,Z23N02,2022-11-28_09h21.04.321,t1_Paradigm,04.01.2021,60.00358036
V,left,Lure,0,57,57,57,1231.570522,1233.57178,left,1,2,0.601192034,Z23N02,2022-11-28_09h21.04.321,t1_Paradigm,04.01.2021,60.00358036
J,left,Distractor,0,58,58,58,1235.069886,1237.071426,left,1,2,0.72145155,Z23N02,2022-11-28_09h21.04.321,t1_Paradigm,04.01.2021,60.00358036
H,left,Distractor,0,59,59,59,1238.569352,1240.570332,left,1,2,0.593347474,Z23N02,2022-11-28_09h21.04.321,t1_Paradigm,04.01.2021,60.00358036
X,left,Pretarget,0,60,60,60,1242.06885,1244.069721,left,1,2,0.608011313,Z23N02,2022-11-28_09h21.04.321,t1_Paradigm,04.01.2021,60.00358036
P,left,Distractor,0,61,61,61,1245.568378,1247.569362,left,1,2,0.658904553,Z23N02,2022-11-28_09h21.04.321,t1_Paradigm,04.01.2021,60.00358036
X,right,Target,0,62,62,62,1249.067533,1251.069012,right,1,2,1.015235507,Z23N02,2022-11-28_09h21.04.321,t1_Paradigm,04.01.2021,60.00358036
Q,left,Distractor,0,63,63,63,1252.567,1254.568777,left,1,2,0.682713481,Z23N02,2022-11-28_09h21.04.321,t1_Paradigm,04.01.2021,60.00358036
B,left,Pretarget,0,0,0,0,1268.298804,1270.299073,None,0,2,,Z23N02,2022-11-28_09h21.04.321,t1_Paradigm,04.01.2021,60.00358036
F,left,Distractor,0,1,1,1,1271.796174,1273.7982,None,0,2,,Z23N02,2022-11-28_09h21.04.321,t1_Paradigm,04.01.2021,60.00358036
B,right,Target,0,2,2,2,1275.296438,1277.29807,right,1,2,0.880178058,Z23N02,2022-11-28_09h21.04.321,t1_Paradigm,04.01.2021,60.00358036
V,left,Distractor,0,3,3,3,1278.795931,1280.797305,left,1,2,0.731371054,Z23N02,2022-11-28_09h21.04.321,t1_Paradigm,04.01.2021,60.00358036
G,left,Pretarget,0,4,4,4,1282.295275,1284.296871,left,1,2,0.586396346,Z23N02,2022-11-28_09h21.04.321,t1_Paradigm,04.01.2021,60.00358036
B,left,Lure,0,5,5,5,1285.793991,1287.796187,right,0,2,0.922877064,Z23N02,2022-11-28_09h21.04.321,t1_Paradigm,04.01.2021,60.00358036
G,right,Target,0,6,6,6,1289.294085,1291.294961,left,0,2,1.390587105,Z23N02,2022-11-28_09h21.04.321,t1_Paradigm,04.01.2021,60.00358036
Y,left,Pretarget,0,7,7,7,1292.79357,1294.794423,left,1,2,0.80926231,Z23N02,2022-11-28_09h21.04.321,t1_Paradigm,04.01.2021,60.00358036
P,left,Distractor,0,8,8,8,1296.293085,1298.294318,left,1,2,0.733393387,Z23N02,2022-11-28_09h21.04.321,t1_Paradigm,04.01.2021,60.00358036
Y,right,Target,0,9,9,9,1299.792582,1301.7937,right,1,2,1.285697512,Z23N02,2022-11-28_09h21.04.321,t1_Paradigm,04.01.2021,60.00358036
X,left,Distractor,0,10,10,10,1303.291719,1305.291047,left,1,2,0.699088474,Z23N02,2022-11-28_09h21.04.321,t1_Paradigm,04.01.2021,60.00358036
Y,right,Target,0,11,11,11,1306.791149,1308.792379,right,1,2,0.768445768,Z23N02,2022-11-28_09h21.04.321,t1_Paradigm,04.01.2021,60.00358036
N,left,Distractor,0,12,12,12,1310.290643,1312.292077,left,1,2,0.615268485,Z23N02,2022-11-28_09h21.04.321,t1_Paradigm,04.01.2021,60.00358036
Y,right,Target,0,13,13,13,1313.790029,1315.791227,right,1,2,0.854201794,Z23N02,2022-11-28_09h21.04.321,t1_Paradigm,04.01.2021,60.00358036
Y,left,Lure,0,14,14,14,1317.289483,1319.288847,left,1,2,0.88234828,Z23N02,2022-11-28_09h21.04.321,t1_Paradigm,04.01.2021,60.00358036
K,left,Distractor,0,15,15,15,1320.788635,1322.790535,left,1,2,0.682619486,Z23N02,2022-11-28_09h21.04.321,t1_Paradigm,04.01.2021,60.00358036
T,left,Pretarget,0,16,16,16,1324.28842,1326.300382,left,1,2,0.674398625,Z23N02,2022-11-28_09h21.04.321,t1_Paradigm,04.01.2021,60.00358036
J,left,Distractor,0,17,17,17,1327.787708,1329.787425,left,1,2,0.701248752,Z23N02,2022-11-28_09h21.04.321,t1_Paradigm,04.01.2021,60.00358036
T,right,Target,0,18,18,18,1331.287033,1333.286739,right,1,2,0.821631135,Z23N02,2022-11-28_09h21.04.321,t1_Paradigm,04.01.2021,60.00358036
S,left,Pretarget,0,19,19,19,1334.786536,1336.787713,left,1,2,0.699875721,Z23N02,2022-11-28_09h21.04.321,t1_Paradigm,04.01.2021,60.00358036
R,left,Distractor,0,20,20,20,1338.284873,1340.287226,left,1,2,0.673520592,Z23N02,2022-11-28_09h21.04.321,t1_Paradigm,04.01.2021,60.00358036
S,right,Target,0,21,21,21,1341.785846,1343.786967,right,1,2,0.614316667,Z23N02,2022-11-28_09h21.04.321,t1_Paradigm,04.01.2021,60.00358036
Q,left,Distractor,0,22,22,22,1345.284621,1347.286491,left,1,2,0.563100059,Z23N02,2022-11-28_09h21.04.321,t1_Paradigm,04.01.2021,60.00358036
D,left,Distractor,0,23,23,23,1348.784422,1350.786174,left,1,2,0.80939031,Z23N02,2022-11-28_09h21.04.321,t1_Paradigm,04.01.2021,60.00358036
F,left,Distractor,0,24,24,24,1352.283486,1354.285024,left,1,2,0.709742935,Z23N02,2022-11-28_09h21.04.321,t1_Paradigm,04.01.2021,60.00358036
Z,left,Distractor,0,25,25,25,1355.78277,1357.784487,left,1,2,0.597942956,Z23N02,2022-11-28_09h21.04.321,t1_Paradigm,04.01.2021,60.00358036
P,left,Distractor,0,26,26,26,1359.299111,1361.300131,left,1,2,0.575829144,Z23N02,2022-11-28_09h21.04.321,t1_Paradigm,04.01.2021,60.00358036
H,left,Distractor,0,27,27,27,1362.797775,1364.799606,left,1,2,0.488662553,Z23N02,2022-11-28_09h21.04.321,t1_Paradigm,04.01.2021,60.00358036
Z,left,Pretarget,0,28,28,28,1366.297616,1368.300102,left,1,2,0.599717951,Z23N02,2022-11-28_09h21.04.321,t1_Paradigm,04.01.2021,60.00358036
J,left,Pretarget,0,29,29,29,1369.797185,1371.798,left,1,2,0.615494009,Z23N02,2022-11-28_09h21.04.321,t1_Paradigm,04.01.2021,60.00358036
Z,right,Target,0,30,30,30,1373.295921,1375.297462,right,1,2,0.630104915,Z23N02,2022-11-28_09h21.04.321,t1_Paradigm,04.01.2021,60.00358036
J,right,Target,0,31,31,31,1376.795911,1378.797722,right,1,2,0.704452918,Z23N02,2022-11-28_09h21.04.321,t1_Paradigm,04.01.2021,60.00358036
V,left,Pretarget,0,32,32,32,1380.295508,1382.29665,left,1,2,0.682808759,Z23N02,2022-11-28_09h21.04.321,t1_Paradigm,04.01.2021,60.00358036
Z,left,Lure,0,33,33,33,1383.794878,1385.796059,left,1,2,0.762496824,Z23N02,2022-11-28_09h21.04.321,t1_Paradigm,04.01.2021,60.00358036
V,right,Target,0,34,34,34,1387.294275,1389.295701,right,1,2,0.97685064,Z23N02,2022-11-28_09h21.04.321,t1_Paradigm,04.01.2021,60.00358036
X,left,Distractor,0,35,35,35,1390.793676,1392.794956,left,1,2,0.665416824,Z23N02,2022-11-28_09h21.04.321,t1_Paradigm,04.01.2021,60.00358036
S,left,Distractor,0,36,36,36,1394.29326,1396.29441,left,1,2,0.859064825,Z23N02,2022-11-28_09h21.04.321,t1_Paradigm,04.01.2021,60.00358036
Q,left,Distractor,0,37,37,37,1397.792365,1399.794385,left,1,2,0.816151203,Z23N02,2022-11-28_09h21.04.321,t1_Paradigm,04.01.2021,60.00358036
P,left,Distractor,0,38,38,38,1401.291959,1403.293356,left,1,2,0.720892072,Z23N02,2022-11-28_09h21.04.321,t1_Paradigm,04.01.2021,60.00358036
S,left,Lure,0,39,39,39,1404.791279,1406.792301,left,1,2,1.09036402,Z23N02,2022-11-28_09h21.04.321,t1_Paradigm,04.01.2021,60.00358036
K,left,Pretarget,0,40,40,40,1408.290599,1410.291797,left,1,2,0.729451699,Z23N02,2022-11-28_09h21.04.321,t1_Paradigm,04.01.2021,60.00358036
L,left,Distractor,0,41,41,41,1411.789294,1413.791892,left,1,2,1.032621988,Z23N02,2022-11-28_09h21.04.321,t1_Paradigm,04.01.2021,60.00358036
K,right,Target,0,42,42,42,1415.289628,1417.290688,right,1,2,0.656565268,Z23N02,2022-11-28_09h21.04.321,t1_Paradigm,04.01.2021,60.00358036
B,left,Distractor,0,43,43,43,1418.789095,1420.790784,left,1,2,0.686354899,Z23N02,2022-11-28_09h21.04.321,t1_Paradigm,04.01.2021,60.00358036
N,left,Distractor,0,44,44,44,1422.288342,1424.289742,left,1,2,0.87622065,Z23N02,2022-11-28_09h21.04.321,t1_Paradigm,04.01.2021,60.00358036
S,left,Pretarget,0,45,45,45,1425.787715,1427.7896,left,1,2,1.073906259,Z23N02,2022-11-28_09h21.04.321,t1_Paradigm,04.01.2021,60.00358036
Z,left,Distractor,0,46,46,46,1429.287116,1431.289403,left,1,2,0.778175999,Z23N02,2022-11-28_09h21.04.321,t1_Paradigm,04.01.2021,60.00358036
S,right,Target,0,47,47,47,1432.786482,1434.786457,right,1,2,0.660098897,Z23N02,2022-11-28_09h21.04.321,t1_Paradigm,04.01.2021,60.00358036
C,left,Distractor,0,48,48,48,1436.285886,1438.288215,left,1,2,0.729514897,Z23N02,2022-11-28_09h21.04.321,t1_Paradigm,04.01.2021,60.00358036
T,left,Pretarget,0,49,49,49,1439.785331,1441.787288,left,1,2,0.674865392,Z23N02,2022-11-28_09h21.04.321,t1_Paradigm,04.01.2021,60.00358036
S,left,Lure,0,50,50,50,1443.284679,1445.286704,left,1,2,1.056458184,Z23N02,2022-11-28_09h21.04.321,t1_Paradigm,04.01.2021,60.00358036
T,right,Target,0,51,51,51,1446.783281,1448.785742,right,1,2,0.647613942,Z23N02,2022-11-28_09h21.04.321,t1_Paradigm,04.01.2021,60.00358036
N,left,Pretarget,0,52,52,52,1450.283624,1452.285929,left,1,2,0.69367559,Z23N02,2022-11-28_09h21.04.321,t1_Paradigm,04.01.2021,60.00358036
B,left,Distractor,0,53,53,53,1453.782856,1455.784448,left,1,2,0.635597679,Z23N02,2022-11-28_09h21.04.321,t1_Paradigm,04.01.2021,60.00358036
N,right,Target,0,54,54,54,1457.299086,1459.300312,right,1,2,0.670357168,Z23N02,2022-11-28_09h21.04.321,t1_Paradigm,04.01.2021,60.00358036
N,left,Lure,0,55,55,55,1460.798407,1462.79804,left,1,2,0.959670113,Z23N02,2022-11-28_09h21.04.321,t1_Paradigm,04.01.2021,60.00358036
X,left,Distractor,0,56,56,56,1464.298242,1466.297077,left,1,2,0.762073687,Z23N02,2022-11-28_09h21.04.321,t1_Paradigm,04.01.2021,60.00358036
W,left,Distractor,0,57,57,57,1467.797459,1469.799057,left,1,2,0.888400201,Z23N02,2022-11-28_09h21.04.321,t1_Paradigm,04.01.2021,60.00358036
S,left,Distractor,0,58,58,58,1471.296773,1473.298818,left,1,2,0.849554022,Z23N02,2022-11-28_09h21.04.321,t1_Paradigm,04.01.2021,60.00358036
L,left,Distractor,0,59,59,59,1474.795761,1476.797532,left,1,2,0.579631284,Z23N02,2022-11-28_09h21.04.321,t1_Paradigm,04.01.2021,60.00358036
K,left,Pretarget,0,60,60,60,1478.295781,1480.307795,left,1,2,0.574934749,Z23N02,2022-11-28_09h21.04.321,t1_Paradigm,04.01.2021,60.00358036
V,left,Pretarget,0,61,61,61,1481.794663,1483.797196,left,1,2,0.562827378,Z23N02,2022-11-28_09h21.04.321,t1_Paradigm,04.01.2021,60.00358036
K,right,Target,0,62,62,62,1485.294406,1487.296261,right,1,2,1.054766277,Z23N02,2022-11-28_09h21.04.321,t1_Paradigm,04.01.2021,60.00358036
V,right,Target,0,63,63,63,1488.7934,1490.793417,right,1,2,1.259340137,Z23N02,2022-11-28_09h21.04.321,t1_Paradigm,04.01.2021,60.00358036
R,left,Distractor,0,0,0,0,1558.523419,1560.517451,None,0,3,,Z23N02,2022-11-28_09h21.04.321,t1_Paradigm,04.01.2021,60.00358036
P,left,Lure,0,1,1,1,1562.015579,1564.015877,None,0,3,,Z23N02,2022-11-28_09h21.04.321,t1_Paradigm,04.01.2021,60.00358036
V,left,Distractor,0,2,2,2,1565.514235,1567.515846,left,1,3,0.666478356,Z23N02,2022-11-28_09h21.04.321,t1_Paradigm,04.01.2021,60.00358036
P,left,Pretarget,0,3,3,3,1569.013303,1571.015188,right,0,3,1.455901978,Z23N02,2022-11-28_09h21.04.321,t1_Paradigm,04.01.2021,60.00358036
Z,left,Distractor,0,4,4,4,1572.512938,1574.51545,left,1,3,0.498973435,Z23N02,2022-11-28_09h21.04.321,t1_Paradigm,04.01.2021,60.00358036
L,left,Pretarget,0,5,5,5,1576.012411,1578.014124,left,1,3,0.758820759,Z23N02,2022-11-28_09h21.04.321,t1_Paradigm,04.01.2021,60.00358036
P,right,Target,0,6,6,6,1579.512007,1581.513064,right,1,3,0.884164658,Z23N02,2022-11-28_09h21.04.321,t1_Paradigm,04.01.2021,60.00358036
S,left,Distractor,0,7,7,7,1583.011313,1585.011556,left,1,3,0.532979361,Z23N02,2022-11-28_09h21.04.321,t1_Paradigm,04.01.2021,60.00358036
L,right,Target,0,8,8,8,1586.51076,1588.511924,right,1,3,0.701353333,Z23N02,2022-11-28_09h21.04.321,t1_Paradigm,04.01.2021,60.00358036
D,left,Distractor,0,9,9,9,1590.010027,1592.011779,left,1,3,0.645963418,Z23N02,2022-11-28_09h21.04.321,t1_Paradigm,04.01.2021,60.00358036
G,left,Distractor,0,10,10,10,1593.509587,1595.508633,left,1,3,0.605651497,Z23N02,2022-11-28_09h21.04.321,t1_Paradigm,04.01.2021,60.00358036
M,left,Pretarget,0,11,11,11,1597.0087,1599.010981,left,1,3,0.670180406,Z23N02,2022-11-28_09h21.04.321,t1_Paradigm,04.01.2021,60.00358036
Y,left,Distractor,0,12,12,12,1600.508251,1602.509972,left,1,3,0.827986213,Z23N02,2022-11-28_09h21.04.321,t1_Paradigm,04.01.2021,60.00358036
V,left,Distractor,0,13,13,13,1604.007666,1606.009442,left,1,3,0.634219516,Z23N02,2022-11-28_09h21.04.321,t1_Paradigm,04.01.2021,60.00358036
M,right,Target,0,14,14,14,1607.506993,1609.508692,right,1,3,0.865366009,Z23N02,2022-11-28_09h21.04.321,t1_Paradigm,04.01.2021,60.00358036
S,left,Pretarget,0,15,15,15,1611.006337,1613.00769,left,1,3,0.807031777,Z23N02,2022-11-28_09h21.04.321,t1_Paradigm,04.01.2021,60.00358036
Q,left,Distractor,0,16,16,16,1614.505786,1616.507296,left,1,3,0.735624241,Z23N02,2022-11-28_09h21.04.321,t1_Paradigm,04.01.2021,60.00358036
R,left,Pretarget,0,17,17,17,1618.005255,1620.006604,left,1,3,0.61599863,Z23N02,2022-11-28_09h21.04.321,t1_Paradigm,04.01.2021,60.00358036
S,right,Target,0,18,18,18,1621.504627,1623.506141,right,1,3,0.703432127,Z23N02,2022-11-28_09h21.04.321,t1_Paradigm,04.01.2021,60.00358036
F,left,Distractor,0,19,19,19,1625.003662,1627.004367,left,1,3,0.747908374,Z23N02,2022-11-28_09h21.04.321,t1_Paradigm,04.01.2021,60.00358036
R,right,Target,0,20,20,20,1628.503619,1630.505575,left,0,3,1.045952575,Z23N02,2022-11-28_09h21.04.321,t1_Paradigm,04.01.2021,60.00358036
P,left,Distractor,0,21,21,21,1632.003079,1634.01509,left,1,3,0.854581303,Z23N02,2022-11-28_09h21.04.321,t1_Paradigm,04.01.2021,60.00358036
L,left,Distractor,0,22,22,22,1635.502359,1637.503682,left,1,3,1.173753814,Z23N02,2022-11-28_09h21.04.321,t1_Paradigm,04.01.2021,60.00358036
R,right,Target,0,23,23,23,1639.001613,1641.00355,left,0,3,0.967974061,Z23N02,2022-11-28_09h21.04.321,t1_Paradigm,04.01.2021,60.00358036
H,left,Pretarget,0,24,24,24,1642.500329,1644.503003,left,1,3,0.684465378,Z23N02,2022-11-28_09h21.04.321,t1_Paradigm,04.01.2021,60.00358036
G,left,Pretarget,0,25,25,25,1645.999614,1648.002984,left,1,3,0.657662409,Z23N02,2022-11-28_09h21.04.321,t1_Paradigm,04.01.2021,60.00358036
T,left,Distractor,0,26,26,26,1649.499791,1651.501113,left,1,3,0.673723017,Z23N02,2022-11-28_09h21.04.321,t1_Paradigm,04.01.2021,60.00358036
H,right,Target,0,27,27,27,1652.999472,1655.000473,right,1,3,0.871527323,Z23N02,2022-11-28_09h21.04.321,t1_Paradigm,04.01.2021,60.00358036
G,right,Target,0,28,28,28,1656.498807,1658.500031,right,1,3,0.653511879,Z23N02,2022-11-28_09h21.04.321,t1_Paradigm,04.01.2021,60.00358036
D,left,Distractor,0,29,29,29,1660.014712,1662.016126,left,1,3,0.814995034,Z23N02,2022-11-28_09h21.04.321,t1_Paradigm,04.01.2021,60.00358036
N,left,Pretarget,0,30,30,30,1663.51434,1665.513557,left,1,3,0.700762417,Z23N02,2022-11-28_09h21.04.321,t1_Paradigm,04.01.2021,60.00358036
V,left,Distractor,0,31,31,31,1667.013687,1669.01576,left,1,3,0.761436896,Z23N02,2022-11-28_09h21.04.321,t1_Paradigm,04.01.2021,60.00358036
R,left,Distractor,0,32,32,32,1670.513103,1672.514083,left,1,3,0.581834549,Z23N02,2022-11-28_09h21.04.321,t1_Paradigm,04.01.2021,60.00358036
N,right,Target,0,33,33,33,1674.012367,1676.014063,right,1,3,0.901177727,Z23N02,2022-11-28_09h21.04.321,t1_Paradigm,04.01.2021,60.00358036
Z,left,Distractor,0,34,34,34,1677.511949,1679.513157,left,1,3,0.635192827,Z23N02,2022-11-28_09h21.04.321,t1_Paradigm,04.01.2021,60.00358036
N,left,Lure,0,35,35,35,1681.011283,1683.012256,right,0,3,1.44888637,Z23N02,2022-11-28_09h21.04.321,t1_Paradigm,04.01.2021,60.00358036
Y,left,Pretarget,0,36,36,36,1684.51056,1686.512764,left,1,3,0.736846174,Z23N02,2022-11-28_09h21.04.321,t1_Paradigm,04.01.2021,60.00358036
Y,left,Lure,0,37,37,37,1688.010185,1690.009954,left,1,3,0.933106142,Z23N02,2022-11-28_09h21.04.321,t1_Paradigm,04.01.2021,60.00358036
B,left,Distractor,0,38,38,38,1691.508668,1693.511358,left,1,3,0.729785653,Z23N02,2022-11-28_09h21.04.321,t1_Paradigm,04.01.2021,60.00358036
Y,right,Target,0,39,39,39,1695.008988,1697.010453,right,1,3,1.082785725,Z23N02,2022-11-28_09h21.04.321,t1_Paradigm,04.01.2021,60.00358036
J,left,Distractor,0,40,40,40,1698.508313,1700.509143,left,1,3,0.861998234,Z23N02,2022-11-28_09h21.04.321,t1_Paradigm,04.01.2021,60.00358036
X,left,Distractor,0,41,41,41,1702.007874,1704.009245,left,1,3,0.68061993,Z23N02,2022-11-28_09h21.04.321,t1_Paradigm,04.01.2021,60.00358036
W,left,Pretarget,0,42,42,42,1705.507039,1707.50858,left,1,3,0.605531517,Z23N02,2022-11-28_09h21.04.321,t1_Paradigm,04.01.2021,60.00358036
S,left,Pretarget,0,43,43,43,1709.006653,1711.008768,left,1,3,0.533392553,Z23N02,2022-11-28_09h21.04.321,t1_Paradigm,04.01.2021,60.00358036
R,left,Distractor,0,44,44,44,1712.505844,1714.508394,left,1,3,0.515170705,Z23N02,2022-11-28_09h21.04.321,t1_Paradigm,04.01.2021,60.00358036
W,right,Target,0,45,45,45,1716.005383,1718.007129,left,0,3,1.329808687,Z23N02,2022-11-28_09h21.04.321,t1_Paradigm,04.01.2021,60.00358036
S,right,Target,0,46,46,46,1719.504717,1721.505853,None,0,3,,Z23N02,2022-11-28_09h21.04.321,t1_Paradigm,04.01.2021,60.00358036
D,left,Distractor,0,47,47,47,1723.004174,1725.005136,left,1,3,0.682959535,Z23N02,2022-11-28_09h21.04.321,t1_Paradigm,04.01.2021,60.00358036
T,left,Distractor,0,48,48,48,1726.503451,1728.503449,left,1,3,0.837403342,Z23N02,2022-11-28_09h21.04.321,t1_Paradigm,04.01.2021,60.00358036
S,right,Target,0,49,49,49,1730.002922,1732.004123,right,1,3,1.173223529,Z23N02,2022-11-28_09h21.04.321,t1_Paradigm,04.01.2021,60.00358036
K,left,Distractor,0,50,50,50,1733.50195,1735.504015,left,1,3,0.620788197,Z23N02,2022-11-28_09h21.04.321,t1_Paradigm,04.01.2021,60.00358036
S,left,Lure,0,51,51,51,1737.001927,1739.002671,right,0,3,0.876489482,Z23N02,2022-11-28_09h21.04.321,t1_Paradigm,04.01.2021,60.00358036
T,left,Pretarget,0,52,52,52,1740.501097,1742.502351,right,0,3,1.03370726,Z23N02,2022-11-28_09h21.04.321,t1_Paradigm,04.01.2021,60.00358036
V,left,Distractor,0,53,53,53,1744.000515,1746.002637,left,1,3,0.648170533,Z23N02,2022-11-28_09h21.04.321,t1_Paradigm,04.01.2021,60.00358036
B,left,Distractor,0,54,54,54,1747.499182,1749.501166,left,1,3,0.614943513,Z23N02,2022-11-28_09h21.04.321,t1_Paradigm,04.01.2021,60.00358036
T,right,Target,0,55,55,55,1750.999197,1753.000303,left,0,3,1.2292281,Z23N02,2022-11-28_09h21.04.321,t1_Paradigm,04.01.2021,60.00358036
Y,left,Pretarget,0,56,56,56,1754.515492,1756.516966,left,1,3,0.606957159,Z23N02,2022-11-28_09h21.04.321,t1_Paradigm,04.01.2021,60.00358036
T,left,Lure,0,57,57,57,1758.014776,1760.015734,right,0,3,0.821970222,Z23N02,2022-11-28_09h21.04.321,t1_Paradigm,04.01.2021,60.00358036
P,left,Pretarget,0,58,58,58,1761.514126,1763.515768,left,1,3,0.661003557,Z23N02,2022-11-28_09h21.04.321,t1_Paradigm,04.01.2021,60.00358036
Y,right,Target,0,59,59,59,1765.013909,1767.01514,left,0,3,0.863380247,Z23N02,2022-11-28_09h21.04.321,t1_Paradigm,04.01.2021,60.00358036
R,left,Distractor,0,60,60,60,1768.513313,1770.515283,left,1,3,0.599964648,Z23N02,2022-11-28_09h21.04.321,t1_Paradigm,04.01.2021,60.00358036
P,right,Target,0,61,61,61,1772.013107,1774.014652,left,0,3,0.643048936,Z23N02,2022-11-28_09h21.04.321,t1_Paradigm,04.01.2021,60.00358036
L,left,Distractor,0,62,62,62,1775.51173,1777.514367,left,1,3,0.584677171,Z23N02,2022-11-28_09h21.04.321,t1_Paradigm,04.01.2021,60.00358036
V,left,Distractor,0,63,63,63,1779.011266,1781.023673,left,1,3,0.584994444,Z23N02,2022-11-28_09h21.04.321,t1_Paradigm,04.01.2021,60.00358036
H,left,Lure,0,0,0,0,1794.93034,1796.926795,left,1,3,1.181273402,Z23N02,2022-11-28_09h21.04.321,t1_Paradigm,04.01.2021,60.00358036
B,left,Distractor,0,1,1,1,1798.423939,1800.424241,left,1,3,0.398796417,Z23N02,2022-11-28_09h21.04.321,t1_Paradigm,04.01.2021,60.00358036
T,left,Distractor,0,2,2,2,1801.924178,1803.925998,left,1,3,0.557836027,Z23N02,2022-11-28_09h21.04.321,t1_Paradigm,04.01.2021,60.00358036
R,left,Distractor,0,3,3,3,1805.423426,1807.425558,left,1,3,0.597065885,Z23N02,2022-11-28_09h21.04.321,t1_Paradigm,04.01.2021,60.00358036
H,left,Pretarget,0,4,4,4,1808.922972,1810.924196,right,0,3,0.848743356,Z23N02,2022-11-28_09h21.04.321,t1_Paradigm,04.01.2021,60.00358036
K,left,Distractor,0,5,5,5,1812.422384,1814.424324,left,1,3,0.593783764,Z23N02,2022-11-28_09h21.04.321,t1_Paradigm,04.01.2021,60.00358036
G,left,Distractor,0,6,6,6,1815.921791,1817.92361,left,1,3,0.608436696,Z23N02,2022-11-28_09h21.04.321,t1_Paradigm,04.01.2021,60.00358036
H,right,Target,0,7,7,7,1819.42119,1821.422772,right,1,3,0.700975429,Z23N02,2022-11-28_09h21.04.321,t1_Paradigm,04.01.2021,60.00358036
Y,left,Pretarget,0,8,8,8,1822.920596,1824.933129,left,1,3,0.537464487,Z23N02,2022-11-28_09h21.04.321,t1_Paradigm,04.01.2021,60.00358036
S,left,Distractor,0,9,9,9,1826.420011,1828.421757,left,1,3,0.644550929,Z23N02,2022-11-28_09h21.04.321,t1_Paradigm,04.01.2021,60.00358036
P,left,Distractor,0,10,10,10,1829.91965,1831.92084,left,1,3,0.781891844,Z23N02,2022-11-28_09h21.04.321,t1_Paradigm,04.01.2021,60.00358036
Y,right,Target,0,11,11,11,1833.418819,1835.419681,right,1,3,0.732071364,Z23N02,2022-11-28_09h21.04.321,t1_Paradigm,04.01.2021,60.00358036
H,left,Lure,0,12,12,12,1836.918441,1838.920158,right,0,3,1.206283732,Z23N02,2022-11-28_09h21.04.321,t1_Paradigm,04.01.2021,60.00358036
Q,left,Distractor,0,13,13,13,1840.417945,1842.41984,left,1,3,0.592453721,Z23N02,2022-11-28_09h21.04.321,t1_Paradigm,04.01.2021,60.00358036
V,left,Pretarget,0,14,14,14,1843.917086,1845.918409,left,1,3,0.534666135,Z23N02,2022-11-28_09h21.04.321,t1_Paradigm,04.01.2021,60.00358036
G,left,Distractor,0,15,15,15,1847.416443,1849.417672,left,1,3,0.42702214,Z23N02,2022-11-28_09h21.04.321,t1_Paradigm,04.01.2021,60.00358036
Z,left,Pretarget,0,16,16,16,1850.915948,1852.916695,left,1,3,0.633301702,Z23N02,2022-11-28_09h21.04.321,t1_Paradigm,04.01.2021,60.00358036
V,right,Target,0,17,17,17,1854.415204,1856.41519,right,1,3,0.861961663,Z23N02,2022-11-28_09h21.04.321,t1_Paradigm,04.01.2021,60.00358036
N,left,Distractor,0,18,18,18,1857.914658,1859.916764,left,1,3,0.804972552,Z23N02,2022-11-28_09h21.04.321,t1_Paradigm,04.01.2021,60.00358036
Z,right,Target,0,19,19,19,1861.413761,1863.415484,right,1,3,0.844810008,Z23N02,2022-11-28_09h21.04.321,t1_Paradigm,04.01.2021,60.00358036
R,left,Distractor,0,20,20,20,1864.913516,1866.914874,left,1,3,0.557795606,Z23N02,2022-11-28_09h21.04.321,t1_Paradigm,04.01.2021,60.00358036
P,left,Distractor,0,21,21,21,1868.41284,1870.414223,left,1,3,0.75974146,Z23N02,2022-11-28_09h21.04.321,t1_Paradigm,04.01.2021,60.00358036
Z,right,Target,0,22,22,22,1871.912332,1873.914238,right,1,3,0.843468096,Z23N02,2022-11-28_09h21.04.321,t1_Paradigm,04.01.2021,60.00358036
D,left,Pretarget,0,23,23,23,1875.411748,1877.413804,left,1,3,0.649929488,Z23N02,2022-11-28_09h21.04.321,t1_Paradigm,04.01.2021,60.00358036
K,left,Distractor,0,24,24,24,1878.91121,1880.910734,left,1,3,0.740532826,Z23N02,2022-11-28_09h21.04.321,t1_Paradigm,04.01.2021,60.00358036
W,left,Distractor,0,25,25,25,1882.410526,1884.412311,left,1,3,0.781433739,Z23N02,2022-11-28_09h21.04.321,t1_Paradigm,04.01.2021,60.00358036
D,right,Target,0,26,26,26,1885.926802,1887.92848,right,1,3,0.852844483,Z23N02,2022-11-28_09h21.04.321,t1_Paradigm,04.01.2021,60.00358036
G,left,Pretarget,0,27,27,27,1889.426034,1891.428251,left,1,3,0.728715459,Z23N02,2022-11-28_09h21.04.321,t1_Paradigm,04.01.2021,60.00358036
V,left,Distractor,0,28,28,28,1892.925623,1894.927589,left,1,3,1.403853532,Z23N02,2022-11-28_09h21.04.321,t1_Paradigm,04.01.2021,60.00358036
D,right,Target,0,29,29,29,1896.424919,1898.426559,right,1,3,0.677394912,Z23N02,2022-11-28_09h21.04.321,t1_Paradigm,04.01.2021,60.00358036
G,right,Target,0,30,30,30,1899.924148,1901.936459,left,0,3,0.657024656,Z23N02,2022-11-28_09h21.04.321,t1_Paradigm,04.01.2021,60.00358036
B,left,Pretarget,0,31,31,31,1903.423668,1905.425442,left,1,3,0.9226833,Z23N02,2022-11-28_09h21.04.321,t1_Paradigm,04.01.2021,60.00358036
N,left,Distractor,0,32,32,32,1906.922254,1908.924607,left,1,3,0.941779653,Z23N02,2022-11-28_09h21.04.321,t1_Paradigm,04.01.2021,60.00358036
F,left,Distractor,0,33,33,33,1910.422449,1912.421446,left,1,3,0.641067666,Z23N02,2022-11-28_09h21.04.321,t1_Paradigm,04.01.2021,60.00358036
B,right,Target,0,34,34,34,1913.921881,1915.924327,right,1,3,0.635855924,Z23N02,2022-11-28_09h21.04.321,t1_Paradigm,04.01.2021,60.00358036
Q,left,Pretarget,0,35,35,35,1917.421257,1919.422106,left,1,3,0.636215543,Z23N02,2022-11-28_09h21.04.321,t1_Paradigm,04.01.2021,60.00358036
S,left,Pretarget,0,36,36,36,1920.920624,1922.922601,left,1,3,0.547881234,Z23N02,2022-11-28_09h21.04.321,t1_Paradigm,04.01.2021,60.00358036
W,left,Distractor,0,37,37,37,1924.420088,1926.421837,left,1,3,0.807870353,Z23N02,2022-11-28_09h21.04.321,t1_Paradigm,04.01.2021,60.00358036
Q,right,Target,0,38,38,38,1927.919505,1929.920461,right,1,3,1.063605963,Z23N02,2022-11-28_09h21.04.321,t1_Paradigm,04.01.2021,60.00358036
S,right,Target,0,39,39,39,1931.418951,1933.420707,right,1,3,0.580354049,Z23N02,2022-11-28_09h21.04.321,t1_Paradigm,04.01.2021,60.00358036
T,left,Distractor,0,40,40,40,1934.918225,1936.92005,left,1,3,0.746034251,Z23N02,2022-11-28_09h21.04.321,t1_Paradigm,04.01.2021,60.00358036
G,left,Distractor,0,41,41,41,1938.417957,1940.419979,left,1,3,0.686732162,Z23N02,2022-11-28_09h21.04.321,t1_Paradigm,04.01.2021,60.00358036
D,left,Distractor,0,42,42,42,1941.917216,1943.918863,left,1,3,0.522499095,Z23N02,2022-11-28_09h21.04.321,t1_Paradigm,04.01.2021,60.00358036
S,left,Lure,0,43,43,43,1945.416409,1947.417714,left,1,3,0.533909365,Z23N02,2022-11-28_09h21.04.321,t1_Paradigm,04.01.2021,60.00358036
Z,left,Pretarget,0,44,44,44,1948.915913,1950.917363,left,1,3,0.598018024,Z23N02,2022-11-28_09h21.04.321,t1_Paradigm,04.01.2021,60.00358036
J,left,Distractor,0,45,45,45,1952.415182,1954.416398,left,1,3,0.645699399,Z23N02,2022-11-28_09h21.04.321,t1_Paradigm,04.01.2021,60.00358036
M,left,Pretarget,0,46,46,46,1955.91491,1957.916192,left,1,3,0.545903493,Z23N02,2022-11-28_09h21.04.321,t1_Paradigm,04.01.2021,60.00358036
Z,right,Target,0,47,47,47,1959.414202,1961.415506,right,1,3,0.568734938,Z23N02,2022-11-28_09h21.04.321,t1_Paradigm,04.01.2021,60.00358036
P,left,Distractor,0,48,48,48,1962.91374,1964.915505,left,1,3,0.541989714,Z23N02,2022-11-28_09h21.04.321,t1_Paradigm,04.01.2021,60.00358036
M,right,Target,0,49,49,49,1966.413524,1968.412993,right,1,3,0.538383263,Z23N02,2022-11-28_09h21.04.321,t1_Paradigm,04.01.2021,60.00358036
K,left,Distractor,0,50,50,50,1969.912447,1971.913814,left,1,3,0.649320927,Z23N02,2022-11-28_09h21.04.321,t1_Paradigm,04.01.2021,60.00358036
Y,left,Distractor,0,51,51,51,1973.411725,1975.413674,left,1,3,0.611222536,Z23N02,2022-11-28_09h21.04.321,t1_Paradigm,04.01.2021,60.00358036
X,left,Distractor,0,52,52,52,1976.927142,1978.929692,left,1,3,0.686668964,Z23N02,2022-11-28_09h21.04.321,t1_Paradigm,04.01.2021,60.00358036
F,left,Pretarget,0,53,53,53,1980.41064,1982.411659,left,1,3,0.596744442,Z23N02,2022-11-28_09h21.04.321,t1_Paradigm,04.01.2021,60.00358036
M,left,Lure,0,54,54,54,1983.926583,1985.928717,left,1,3,0.589454868,Z23N02,2022-11-28_09h21.04.321,t1_Paradigm,04.01.2021,60.00358036
V,left,Distractor,0,55,55,55,1987.426338,1989.428052,left,1,3,0.694188552,Z23N02,2022-11-28_09h21.04.321,t1_Paradigm,04.01.2021,60.00358036
F,right,Target,0,56,56,56,1990.925657,1992.926405,right,1,3,0.599808738,Z23N02,2022-11-28_09h21.04.321,t1_Paradigm,04.01.2021,60.00358036
S,left,Distractor,0,57,57,57,1994.424856,1996.42581,left,1,3,0.59873694,Z23N02,2022-11-28_09h21.04.321,t1_Paradigm,04.01.2021,60.00358036
D,left,Distractor,0,58,58,58,1997.924369,1999.925699,left,1,3,0.673916461,Z23N02,2022-11-28_09h21.04.321,t1_Paradigm,04.01.2021,60.00358036
F,right,Target,0,59,59,59,2001.423677,2003.425003,right,1,3,0.774602912,Z23N02,2022-11-28_09h21.04.321,t1_Paradigm,04.01.2021,60.00358036
V,left,Pretarget,0,60,60,60,2004.923125,2006.92411,left,1,3,0.6020027,Z23N02,2022-11-28_09h21.04.321,t1_Paradigm,04.01.2021,60.00358036
J,left,Distractor,0,61,61,61,2008.421895,2010.421432,left,1,3,1.092223706,Z23N02,2022-11-28_09h21.04.321,t1_Paradigm,04.01.2021,60.00358036
V,left,Lure,0,62,62,62,2011.921929,2013.923936,left,1,3,1.299386435,Z23N02,2022-11-28_09h21.04.321,t1_Paradigm,04.01.2021,60.00358036
V,right,Target,0,63,63,63,2015.421314,2017.421073,right,1,3,0.615716645,Z23N02,2022-11-28_09h21.04.321,t1_Paradigm,04.01.2021,60.00358036
R,left,Distractor,0,0,0,0,2083.434328,2085.428462,left,1,4,0.562550205,Z23N02,2022-11-28_09h21.04.321,t1_Paradigm,04.01.2021,60.00358036
F,left,Distractor,0,1,1,1,2086.926178,2088.92771,left,1,4,0.487732549,Z23N02,2022-11-28_09h21.04.321,t1_Paradigm,04.01.2021,60.00358036
P,left,Pretarget,0,2,2,2,2090.425592,2092.427555,left,1,4,0.51855869,Z23N02,2022-11-28_09h21.04.321,t1_Paradigm,04.01.2021,60.00358036
H,left,Distractor,0,3,3,3,2093.924813,2095.926077,left,1,4,0.481370734,Z23N02,2022-11-28_09h21.04.321,t1_Paradigm,04.01.2021,60.00358036
Z,left,Distractor,0,4,4,4,2097.4241,2099.426118,left,1,4,0.544815334,Z23N02,2022-11-28_09h21.04.321,t1_Paradigm,04.01.2021,60.00358036
T,left,Distractor,0,5,5,5,2100.923765,2102.924903,left,1,4,0.617038668,Z23N02,2022-11-28_09h21.04.321,t1_Paradigm,04.01.2021,60.00358036
P,right,Target,0,6,6,6,2104.423062,2106.424932,right,1,4,0.676627555,Z23N02,2022-11-28_09h21.04.321,t1_Paradigm,04.01.2021,60.00358036
G,left,Distractor,0,7,7,7,2107.922596,2109.924059,left,1,4,0.475143334,Z23N02,2022-11-28_09h21.04.321,t1_Paradigm,04.01.2021,60.00358036
L,left,Distractor,0,8,8,8,2111.422008,2113.423068,left,1,4,0.628860847,Z23N02,2022-11-28_09h21.04.321,t1_Paradigm,04.01.2021,60.00358036
P,left,Lure,0,9,9,9,2114.921228,2116.923444,left,1,4,1.295259002,Z23N02,2022-11-28_09h21.04.321,t1_Paradigm,04.01.2021,60.00358036
Q,left,Pretarget,0,10,10,10,2118.42075,2120.421131,left,1,4,0.749010327,Z23N02,2022-11-28_09h21.04.321,t1_Paradigm,04.01.2021,60.00358036
D,left,Distractor,0,11,11,11,2121.919968,2123.921683,left,1,4,0.509970191,Z23N02,2022-11-28_09h21.04.321,t1_Paradigm,04.01.2021,60.00358036
M,left,Pretarget,0,12,12,12,2125.419419,2127.419948,left,1,4,0.640318274,Z23N02,2022-11-28_09h21.04.321,t1_Paradigm,04.01.2021,60.00358036
C,left,Distractor,0,13,13,13,2128.918852,2130.920114,left,1,4,0.605235738,Z23N02,2022-11-28_09h21.04.321,t1_Paradigm,04.01.2021,60.00358036
Q,right,Target,0,14,14,14,2132.418189,2134.419331,right,1,4,0.779703977,Z23N02,2022-11-28_09h21.04.321,t1_Paradigm,04.01.2021,60.00358036
R,left,Distractor,0,15,15,15,2135.917561,2137.918824,left,1,4,0.713289076,Z23N02,2022-11-28_09h21.04.321,t1_Paradigm,04.01.2021,60.00358036
M,right,Target,0,16,16,16,2139.417162,2141.419265,right,1,4,0.767735834,Z23N02,2022-11-28_09h21.04.321,t1_Paradigm,04.01.2021,60.00358036
S,left,Distractor,0,17,17,17,2142.916567,2144.916116,left,1,4,0.577218535,Z23N02,2022-11-28_09h21.04.321,t1_Paradigm,04.01.2021,60.00358036
Z,left,Distractor,0,18,18,18,2146.415114,2148.41687,left,1,4,0.635620777,Z23N02,2022-11-28_09h21.04.321,t1_Paradigm,04.01.2021,60.00358036
L,left,Pretarget,0,19,19,19,2149.91528,2151.915043,left,1,4,0.859894097,Z23N02,2022-11-28_09h21.04.321,t1_Paradigm,04.01.2021,60.00358036
M,right,Target,0,20,20,20,2153.414774,2155.415977,right,1,4,0.759067135,Z23N02,2022-11-28_09h21.04.321,t1_Paradigm,04.01.2021,60.00358036
P,left,Distractor,0,21,21,21,2156.914054,2158.913225,left,1,4,0.657649577,Z23N02,2022-11-28_09h21.04.321,t1_Paradigm,04.01.2021,60.00358036
F,left,Distractor,0,22,22,22,2160.413689,2162.415275,left,1,4,0.723064861,Z23N02,2022-11-28_09h21.04.321,t1_Paradigm,04.01.2021,60.00358036
L,right,Target,0,23,23,23,2163.912919,2165.914928,right,1,4,0.803020796,Z23N02,2022-11-28_09h21.04.321,t1_Paradigm,04.01.2021,60.00358036
L,left,Lure,0,24,24,24,2167.412358,2169.412174,left,1,4,0.816491894,Z23N02,2022-11-28_09h21.04.321,t1_Paradigm,04.01.2021,60.00358036
V,left,Pretarget,0,25,25,25,2170.911714,2172.912827,left,1,4,0.646209152,Z23N02,2022-11-28_09h21.04.321,t1_Paradigm,04.01.2021,60.00358036
Z,left,Distractor,0,26,26,26,2174.411228,2176.412332,left,1,4,0.94222268,Z23N02,2022-11-28_09h21.04.321,t1_Paradigm,04.01.2021,60.00358036
H,left,Distractor,0,27,27,27,2177.910534,2179.912685,left,1,4,0.626224179,Z23N02,2022-11-28_09h21.04.321,t1_Paradigm,04.01.2021,60.00358036
X,left,Distractor,0,28,28,28,2181.426689,2183.429047,left,1,4,0.571321561,Z23N02,2022-11-28_09h21.04.321,t1_Paradigm,04.01.2021,60.00358036
V,right,Target,0,29,29,29,2184.925485,2186.927748,right,1,4,0.61924482,Z23N02,2022-11-28_09h21.04.321,t1_Paradigm,04.01.2021,60.00358036
C,left,Distractor,0,30,30,30,2188.425454,2190.427616,left,1,4,0.544381289,Z23N02,2022-11-28_09h21.04.321,t1_Paradigm,04.01.2021,60.00358036
S,left,Pretarget,0,31,31,31,2191.925055,2193.926131,left,1,4,0.747608104,Z23N02,2022-11-28_09h21.04.321,t1_Paradigm,04.01.2021,60.00358036
D,left,Distractor,0,32,32,32,2195.424368,2197.425832,left,1,4,0.595272604,Z23N02,2022-11-28_09h21.04.321,t1_Paradigm,04.01.2021,60.00358036
V,left,Distractor,0,33,33,33,2198.923553,2200.924932,right,0,4,0.9612337,Z23N02,2022-11-28_09h21.04.321,t1_Paradigm,04.01.2021,60.00358036
R,left,Distractor,0,34,34,34,2202.423171,2204.422999,left,1,4,0.643070751,Z23N02,2022-11-28_09h21.04.321,t1_Paradigm,04.01.2021,60.00358036
S,right,Target,0,35,35,35,2205.922573,2207.923908,right,1,4,0.729715077,Z23N02,2022-11-28_09h21.04.321,t1_Paradigm,04.01.2021,60.00358036
Y,left,Distractor,0,36,36,36,2209.422203,2211.422777,left,1,4,0.596825284,Z23N02,2022-11-28_09h21.04.321,t1_Paradigm,04.01.2021,60.00358036
N,left,Pretarget,0,37,37,37,2212.921592,2214.922698,left,1,4,0.737567657,Z23N02,2022-11-28_09h21.04.321,t1_Paradigm,04.01.2021,60.00358036
Z,left,Pretarget,0,38,38,38,2216.420917,2218.422312,None,0,4,,Z23N02,2022-11-28_09h21.04.321,t1_Paradigm,04.01.2021,60.00358036
P,left,Pretarget,0,39,39,39,2219.920126,2221.922067,left,1,4,0.84020009,Z23N02,2022-11-28_09h21.04.321,t1_Paradigm,04.01.2021,60.00358036
M,left,Distractor,0,40,40,40,2223.419553,2225.421307,left,1,4,0.610493675,Z23N02,2022-11-28_09h21.04.321,t1_Paradigm,04.01.2021,60.00358036
N,right,Target,0,41,41,41,2226.918777,2228.931021,left,0,4,0.578547616,Z23N02,2022-11-28_09h21.04.321,t1_Paradigm,04.01.2021,60.00358036
Z,right,Target,0,42,42,42,2230.418254,2232.42008,right,1,4,0.599510393,Z23N02,2022-11-28_09h21.04.321,t1_Paradigm,04.01.2021,60.00358036
P,right,Target,0,43,43,43,2233.917668,2235.917735,right,1,4,0.543131126,Z23N02,2022-11-28_09h21.04.321,t1_Paradigm,04.01.2021,60.00358036
X,left,Pretarget,0,44,44,44,2237.417226,2239.418646,left,1,4,0.670641077,Z23N02,2022-11-28_09h21.04.321,t1_Paradigm,04.01.2021,60.00358036
Z,left,Lure,0,45,45,45,2240.916799,2242.918343,left,1,4,1.076870465,Z23N02,2022-11-28_09h21.04.321,t1_Paradigm,04.01.2021,60.00358036
R,left,Pretarget,0,46,46,46,2244.415917,2246.417091,left,1,4,0.669137159,Z23N02,2022-11-28_09h21.04.321,t1_Paradigm,04.01.2021,60.00358036
K,left,Distractor,0,47,47,47,2247.915313,2249.916715,left,1,4,0.686979179,Z23N02,2022-11-28_09h21.04.321,t1_Paradigm,04.01.2021,60.00358036
X,right,Target,0,48,48,48,2251.414812,2253.415648,left,0,4,0.780332107,Z23N02,2022-11-28_09h21.04.321,t1_Paradigm,04.01.2021,60.00358036
B,left,Distractor,0,49,49,49,2254.914237,2256.916694,left,1,4,0.724264017,Z23N02,2022-11-28_09h21.04.321,t1_Paradigm,04.01.2021,60.00358036
R,right,Target,0,50,50,50,2258.413642,2260.4152,left,0,4,1.18114027,Z23N02,2022-11-28_09h21.04.321,t1_Paradigm,04.01.2021,60.00358036
Y,left,Pretarget,0,51,51,51,2261.912884,2263.913985,left,1,4,1.176112347,Z23N02,2022-11-28_09h21.04.321,t1_Paradigm,04.01.2021,60.00358036
W,left,Pretarget,0,52,52,52,2265.412473,2267.413949,left,1,4,0.721772672,Z23N02,2022-11-28_09h21.04.321,t1_Paradigm,04.01.2021,60.00358036
Z,left,Distractor,0,53,53,53,2268.912002,2270.914094,left,1,4,1.005151431,Z23N02,2022-11-28_09h21.04.321,t1_Paradigm,04.01.2021,60.00358036
Q,left,Distractor,0,54,54,54,2272.411214,2274.412637,left,1,4,0.788264887,Z23N02,2022-11-28_09h21.04.321,t1_Paradigm,04.01.2021,60.00358036
Y,right,Target,0,55,55,55,2275.910681,2277.912065,left,0,4,1.043948849,Z23N02,2022-11-28_09h21.04.321,t1_Paradigm,04.01.2021,60.00358036
W,right,Target,0,56,56,56,2279.426892,2281.426398,right,1,4,0.774860836,Z23N02,2022-11-28_09h21.04.321,t1_Paradigm,04.01.2021,60.00358036
H,left,Pretarget,0,57,57,57,2282.926141,2284.928329,left,1,4,0.7301565,Z23N02,2022-11-28_09h21.04.321,t1_Paradigm,04.01.2021,60.00358036
M,left,Distractor,0,58,58,58,2286.425468,2288.426477,left,1,4,0.591979256,Z23N02,2022-11-28_09h21.04.321,t1_Paradigm,04.01.2021,60.00358036
R,left,Pretarget,0,59,59,59,2289.924872,2291.926706,left,1,4,0.610332633,Z23N02,2022-11-28_09h21.04.321,t1_Paradigm,04.01.2021,60.00358036
J,left,Distractor,0,60,60,60,2293.424246,2295.425767,left,1,4,0.747943021,Z23N02,2022-11-28_09h21.04.321,t1_Paradigm,04.01.2021,60.00358036
H,right,Target,0,61,61,61,2296.923606,2298.925036,right,1,4,0.873062038,Z23N02,2022-11-28_09h21.04.321,t1_Paradigm,04.01.2021,60.00358036
Z,left,Distractor,0,62,62,62,2300.42311,2302.424052,left,1,4,0.70483403,Z23N02,2022-11-28_09h21.04.321,t1_Paradigm,04.01.2021,60.00358036
R,right,Target,0,63,63,63,2303.922581,2305.923205,right,1,4,0.691560866,Z23N02,2022-11-28_09h21.04.321,t1_Paradigm,04.01.2021,60.00358036
J,left,Pretarget,0,0,0,0,2315.434092,2317.422374,None,0,4,,Z23N02,2022-11-28_09h21.04.321,t1_Paradigm,04.01.2021,60.00358036
G,left,Pretarget,0,1,1,1,2318.920259,2320.921259,None,0,4,,Z23N02,2022-11-28_09h21.04.321,t1_Paradigm,04.01.2021,60.00358036
Z,left,Distractor,0,2,2,2,2322.419371,2324.420744,None,0,4,,Z23N02,2022-11-28_09h21.04.321,t1_Paradigm,04.01.2021,60.00358036
F,left,Distractor,0,3,3,3,2325.9181,2327.920664,left,1,4,1.022367888,Z23N02,2022-11-28_09h21.04.321,t1_Paradigm,04.01.2021,60.00358036
J,right,Target,0,4,4,4,2329.418285,2331.419946,right,1,4,0.597462716,Z23N02,2022-11-28_09h21.04.321,t1_Paradigm,04.01.2021,60.00358036
G,right,Target,0,5,5,5,2332.917728,2334.919345,right,1,4,0.571532328,Z23N02,2022-11-28_09h21.04.321,t1_Paradigm,04.01.2021,60.00358036
H,left,Distractor,0,6,6,6,2336.416923,2338.41941,left,1,4,0.707870738,Z23N02,2022-11-28_09h21.04.321,t1_Paradigm,04.01.2021,60.00358036
P,left,Distractor,0,7,7,7,2339.916425,2341.917675,left,1,4,0.838607311,Z23N02,2022-11-28_09h21.04.321,t1_Paradigm,04.01.2021,60.00358036
G,left,Lure,0,8,8,8,2343.415835,2345.417791,left,1,4,0.963191231,Z23N02,2022-11-28_09h21.04.321,t1_Paradigm,04.01.2021,60.00358036
S,left,Distractor,0,9,9,9,2346.915328,2348.916687,left,1,4,0.68892067,Z23N02,2022-11-28_09h21.04.321,t1_Paradigm,04.01.2021,60.00358036
R,left,Pretarget,0,10,10,10,2350.414633,2352.416378,left,1,4,0.655315104,Z23N02,2022-11-28_09h21.04.321,t1_Paradigm,04.01.2021,60.00358036
T,left,Pretarget,0,11,11,11,2353.914163,2355.91585,left,1,4,0.490919071,Z23N02,2022-11-28_09h21.04.321,t1_Paradigm,04.01.2021,60.00358036
X,left,Distractor,0,12,12,12,2357.41353,2359.41484,left,1,4,0.583730486,Z23N02,2022-11-28_09h21.04.321,t1_Paradigm,04.01.2021,60.00358036
F,left,Pretarget,0,13,13,13,2360.912975,2362.91497,left,1,4,0.643208054,Z23N02,2022-11-28_09h21.04.321,t1_Paradigm,04.01.2021,60.00358036
R,right,Target,0,14,14,14,2364.412332,2366.413088,right,1,4,0.92033824,Z23N02,2022-11-28_09h21.04.321,t1_Paradigm,04.01.2021,60.00358036
T,right,Target,0,15,15,15,2367.911864,2369.912958,left,0,4,1.302024386,Z23N02,2022-11-28_09h21.04.321,t1_Paradigm,04.01.2021,60.00358036
C,left,Distractor,0,16,16,16,2371.411091,2373.41237,left,1,4,0.742224412,Z23N02,2022-11-28_09h21.04.321,t1_Paradigm,04.01.2021,60.00358036
F,right,Target,0,17,17,17,2374.910607,2376.912215,left,0,4,0.948573588,Z23N02,2022-11-28_09h21.04.321,t1_Paradigm,04.01.2021,60.00358036
M,left,Distractor,0,18,18,18,2378.410021,2380.411428,left,1,4,0.592884878,Z23N02,2022-11-28_09h21.04.321,t1_Paradigm,04.01.2021,60.00358036
N,left,Distractor,0,19,19,19,2381.909488,2383.910408,left,1,4,0.739045911,Z23N02,2022-11-28_09h21.04.321,t1_Paradigm,04.01.2021,60.00358036
R,left,Lure,0,20,20,20,2385.408605,2387.408743,left,1,4,0.698563643,Z23N02,2022-11-28_09h21.04.321,t1_Paradigm,04.01.2021,60.00358036
F,right,Target,0,21,21,21,2388.908394,2390.909175,right,1,4,0.524809187,Z23N02,2022-11-28_09h21.04.321,t1_Paradigm,04.01.2021,60.00358036
P,left,Distractor,0,22,22,22,2392.407622,2394.409546,left,1,4,0.628384456,Z23N02,2022-11-28_09h21.04.321,t1_Paradigm,04.01.2021,60.00358036
L,left,Pretarget,0,23,23,23,2395.906703,2397.909263,left,1,4,0.782072134,Z23N02,2022-11-28_09h21.04.321,t1_Paradigm,04.01.2021,60.00358036
T,left,Distractor,0,24,24,24,2399.406504,2401.407632,left,1,4,0.585894292,Z23N02,2022-11-28_09h21.04.321,t1_Paradigm,04.01.2021,60.00358036
F,left,Distractor,0,25,25,25,2402.906073,2404.907631,right,0,4,0.889942615,Z23N02,2022-11-28_09h21.04.321,t1_Paradigm,04.01.2021,60.00358036
V,left,Distractor,0,26,26,26,2406.421926,2408.423126,left,1,4,0.782810619,Z23N02,2022-11-28_09h21.04.321,t1_Paradigm,04.01.2021,60.00358036
L,right,Target,0,27,27,27,2409.921312,2411.922597,left,0,4,0.679842307,Z23N02,2022-11-28_09h21.04.321,t1_Paradigm,04.01.2021,60.00358036
S,left,Pretarget,0,28,28,28,2413.420824,2415.422401,left,1,4,0.572172968,Z23N02,2022-11-28_09h21.04.321,t1_Paradigm,04.01.2021,60.00358036
W,left,Distractor,0,29,29,29,2416.920137,2418.921563,left,1,4,0.68114027,Z23N02,2022-11-28_09h21.04.321,t1_Paradigm,04.01.2021,60.00358036
Q,left,Distractor,0,30,30,30,2420.419633,2422.421089,left,1,4,0.688101022,Z23N02,2022-11-28_09h21.04.321,t1_Paradigm,04.01.2021,60.00358036
L,right,Target,0,31,31,31,2423.919041,2425.931436,left,0,4,0.545640115,Z23N02,2022-11-28_09h21.04.321,t1_Paradigm,04.01.2021,60.00358036
S,right,Target,0,32,32,32,2427.418589,2429.417883,right,1,4,0.838848874,Z23N02,2022-11-28_09h21.04.321,t1_Paradigm,04.01.2021,60.00358036
Z,left,Pretarget,0,33,33,33,2430.917836,2432.919537,left,1,4,0.733415843,Z23N02,2022-11-28_09h21.04.321,t1_Paradigm,04.01.2021,60.00358036
F,left,Distractor,0,34,34,34,2434.417219,2436.41902,left,1,4,0.781103634,Z23N02,2022-11-28_09h21.04.321,t1_Paradigm,04.01.2021,60.00358036
V,left,Distractor,0,35,35,35,2437.916466,2439.917441,left,1,4,0.536555336,Z23N02,2022-11-28_09h21.04.321,t1_Paradigm,04.01.2021,60.00358036
M,left,Distractor,0,36,36,36,2441.4161,2443.4174,left,1,4,0.840964881,Z23N02,2022-11-28_09h21.04.321,t1_Paradigm,04.01.2021,60.00358036
Z,right,Target,0,37,37,37,2444.915442,2446.915886,None,0,4,,Z23N02,2022-11-28_09h21.04.321,t1_Paradigm,04.01.2021,60.00358036
H,left,Pretarget,0,38,38,38,2448.41488,2450.41619,left,1,4,0.757095489,Z23N02,2022-11-28_09h21.04.321,t1_Paradigm,04.01.2021,60.00358036
L,left,Distractor,0,39,39,39,2451.914429,2453.91505,left,1,4,0.944378145,Z23N02,2022-11-28_09h21.04.321,t1_Paradigm,04.01.2021,60.00358036
G,left,Distractor,0,40,40,40,2455.413659,2457.414689,left,1,4,0.710166073,Z23N02,2022-11-28_09h21.04.321,t1_Paradigm,04.01.2021,60.00358036
K,left,Distractor,0,41,41,41,2458.913127,2460.913813,left,1,4,0.526053576,Z23N02,2022-11-28_09h21.04.321,t1_Paradigm,04.01.2021,60.00358036
H,right,Target,0,42,42,42,2462.412424,2464.412677,left,0,4,0.68029592,Z23N02,2022-11-28_09h21.04.321,t1_Paradigm,04.01.2021,60.00358036
B,left,Distractor,0,43,43,43,2465.911806,2467.910743,left,1,4,0.492802176,Z23N02,2022-11-28_09h21.04.321,t1_Paradigm,04.01.2021,60.00358036
Z,left,Distractor,0,44,44,44,2469.41131,2471.412513,left,1,4,0.611393844,Z23N02,2022-11-28_09h21.04.321,t1_Paradigm,04.01.2021,60.00358036
T,left,Pretarget,0,45,45,45,2472.910644,2474.913027,left,1,4,0.690096086,Z23N02,2022-11-28_09h21.04.321,t1_Paradigm,04.01.2021,60.00358036
H,right,Target,0,46,46,46,2476.410011,2478.411417,None,0,4,,Z23N02,2022-11-28_09h21.04.321,t1_Paradigm,04.01.2021,60.00358036
F,left,Distractor,0,47,47,47,2479.909512,2481.910927,left,1,4,0.627989229,Z23N02,2022-11-28_09h21.04.321,t1_Paradigm,04.01.2021,60.00358036
R,left,Distractor,0,48,48,48,2483.408924,2485.410107,left,1,4,0.610933494,Z23N02,2022-11-28_09h21.04.321,t1_Paradigm,04.01.2021,60.00358036
T,right,Target,0,49,49,49,2486.90822,2488.909956,right,1,4,0.84591934,Z23N02,2022-11-28_09h21.04.321,t1_Paradigm,04.01.2021,60.00358036
H,right,Target,0,50,50,50,2490.407749,2492.408457,right,1,4,0.515415797,Z23N02,2022-11-28_09h21.04.321,t1_Paradigm,04.01.2021,60.00358036
Y,left,Pretarget,0,51,51,51,2493.907161,2495.908529,left,1,4,0.603149245,Z23N02,2022-11-28_09h21.04.321,t1_Paradigm,04.01.2021,60.00358036
H,left,Distractor,0,52,52,52,2497.40651,2499.405775,left,1,4,0.80021282,Z23N02,2022-11-28_09h21.04.321,t1_Paradigm,04.01.2021,60.00358036
S,left,Distractor,0,53,53,53,2500.905995,2502.90785,left,1,4,0.527134998,Z23N02,2022-11-28_09h21.04.321,t1_Paradigm,04.01.2021,60.00358036
Q,left,Distractor,0,54,54,54,2504.422609,2506.423079,left,1,4,0.587583954,Z23N02,2022-11-28_09h21.04.321,t1_Paradigm,04.01.2021,60.00358036
Y,right,Target,0,55,55,55,2507.921551,2509.92296,right,1,4,0.899808866,Z23N02,2022-11-28_09h21.04.321,t1_Paradigm,04.01.2021,60.00358036
R,left,Distractor,0,56,56,56,2511.420734,2513.433037,left,1,4,0.622709156,Z23N02,2022-11-28_09h21.04.321,t1_Paradigm,04.01.2021,60.00358036
H,left,Pretarget,0,57,57,57,2514.920177,2516.920967,left,1,4,0.620750663,Z23N02,2022-11-28_09h21.04.321,t1_Paradigm,04.01.2021,60.00358036
J,left,Distractor,0,58,58,58,2518.419705,2520.420714,left,1,4,0.668530524,Z23N02,2022-11-28_09h21.04.321,t1_Paradigm,04.01.2021,60.00358036
V,left,Distractor,0,59,59,59,2521.919111,2523.91919,left,1,4,0.676002633,Z23N02,2022-11-28_09h21.04.321,t1_Paradigm,04.01.2021,60.00358036
Y,left,Lure,0,60,60,60,2525.418403,2527.417731,left,1,4,0.655563725,Z23N02,2022-11-28_09h21.04.321,t1_Paradigm,04.01.2021,60.00358036
H,right,Target,0,61,61,61,2528.917815,2530.919474,right,1,4,0.819439419,Z23N02,2022-11-28_09h21.04.321,t1_Paradigm,04.01.2021,60.00358036
L,left,Distractor,0,62,62,62,2532.417324,2534.418634,left,1,4,0.634754292,Z23N02,2022-11-28_09h21.04.321,t1_Paradigm,04.01.2021,60.00358036
P,left,Distractor,0,63,63,63,2535.916722,2537.918205,left,1,4,0.560573426,Z23N02,2022-11-28_09h21.04.321,t1_Paradigm,04.01.2021,60.00358036
