Letter,CorrAnswer,Stimulus,finaln_nback_run.thisRepN,finaln_nback_run.thisTrialN,finaln_nback_run.thisN,finaln_nback_run.thisIndex,finaln_fixcross.started,finaln_nback_trial.started,finaln_trial_resp.keys,finaln_trial_resp.corr,finaln_trial_resp.rt,finaln_level,finaln_money,Participant,date,expName,psychopyVersion,frameRate,
T,left,Distractor,0,0,0,0,2696.387131658852,2698.3784273310694,left,1,1.2998776139365873,0,1.47,Ö27K03,2023-01-20_16h11.12.936,t1_Paradigm,2021.1.4,60.02343413028604,
F,left,Distractor,0,1,1,1,2699.8783363836283,2701.891172965352,left,1,1.0351102035970143,0,1.47,Ö27K03,2023-01-20_16h11.12.936,t1_Paradigm,2021.1.4,60.02343413028604,
G,left,Distractor,0,2,2,2,2703.3782319624916,2705.3802517335353,left,1,0.47395133750478635,0,1.47,Ö27K03,2023-01-20_16h11.12.936,t1_Paradigm,2021.1.4,60.02343413028604,
V,left,Distractor,0,3,3,3,2706.878357235775,2708.87968664035,left,1,0.47853592263572864,0,1.47,Ö27K03,2023-01-20_16h11.12.936,t1_Paradigm,2021.1.4,60.02343413028604,
H,left,Distractor,0,4,4,4,2710.3779794911115,2712.381267393498,left,1,0.7528799221090594,0,1.47,Ö27K03,2023-01-20_16h11.12.936,t1_Paradigm,2021.1.4,60.02343413028604,
C,left,Pretarget,0,5,5,5,2713.8784236418433,2715.879735723096,left,1,0.6305455082065237,0,1.47,Ö27K03,2023-01-20_16h11.12.936,t1_Paradigm,2021.1.4,60.02343413028604,
C,right,Target,0,6,6,6,2717.3784366343352,2719.3780680325353,right,1,0.5241713276559494,0,1.47,Ö27K03,2023-01-20_16h11.12.936,t1_Paradigm,2021.1.4,60.02343413028604,
C,right,Target,0,7,7,7,2720.8784441731887,2722.8784557220697,right,1,0.5276825084170014,0,1.47,Ö27K03,2023-01-20_16h11.12.936,t1_Paradigm,2021.1.4,60.02343413028604,
W,left,Distractor,0,8,8,8,2724.3779586389646,2726.3806520947583,left,1,0.8494776537168036,0,1.47,Ö27K03,2023-01-20_16h11.12.936,t1_Paradigm,2021.1.4,60.02343413028604,
R,left,Pretarget,0,9,9,9,2727.87836782225,2729.8800975880486,left,1,0.6781708496610008,0,1.47,Ö27K03,2023-01-20_16h11.12.936,t1_Paradigm,2021.1.4,60.02343413028604,
R,right,Target,0,10,10,10,2731.3784051957136,2733.3783070302215,right,1,0.8759066272937162,0,1.47,Ö27K03,2023-01-20_16h11.12.936,t1_Paradigm,2021.1.4,60.02343413028604,
Z,left,Distractor,0,11,11,11,2734.8781281829597,2736.880690109827,left,1,0.6374934436039439,0,1.47,Ö27K03,2023-01-20_16h11.12.936,t1_Paradigm,2021.1.4,60.02343413028604,
R,left,Lure,0,12,12,12,2738.3783147294753,2740.3781078120164,left,1,0.9801837234554114,0,1.47,Ö27K03,2023-01-20_16h11.12.936,t1_Paradigm,2021.1.4,60.02343413028604,
H,left,Pretarget,0,13,13,13,2741.8782090251298,2743.8800398436406,left,1,0.5980886601209932,0,1.47,Ö27K03,2023-01-20_16h11.12.936,t1_Paradigm,2021.1.4,60.02343413028604,
H,right,Target,0,14,14,14,2745.3783208247187,2747.378385947578,right,1,0.49189829926672246,0,1.47,Ö27K03,2023-01-20_16h11.12.936,t1_Paradigm,2021.1.4,60.02343413028604,
K,left,Distractor,0,15,15,15,2748.878344082883,2750.8788214366486,left,1,0.6553175380995526,0,1.47,Ö27K03,2023-01-20_16h11.12.936,t1_Paradigm,2021.1.4,60.02343413028604,
J,left,Distractor,0,16,16,16,2752.378349055318,2754.3797066904917,left,1,0.5950657404036974,0,1.47,Ö27K03,2023-01-20_16h11.12.936,t1_Paradigm,2021.1.4,60.02343413028604,
H,left,Lure,0,17,17,17,2755.877492032074,2757.878434869923,left,1,1.0160455667532915,0,1.47,Ö27K03,2023-01-20_16h11.12.936,t1_Paradigm,2021.1.4,60.02343413028604,
S,left,Distractor,0,18,18,18,2759.3780712405587,2761.3798840941427,left,1,0.5224008199706986,0,1.47,Ö27K03,2023-01-20_16h11.12.936,t1_Paradigm,2021.1.4,60.02343413028604,
T,left,Pretarget,0,19,19,19,2762.8781686040447,2764.8789446247174,left,1,0.5111762696151345,0,1.47,Ö27K03,2023-01-20_16h11.12.936,t1_Paradigm,2021.1.4,60.02343413028604,
T,right,Target,0,20,20,20,2766.3774883428478,2768.378331731996,right,1,0.6759374243106322,0,1.47,Ö27K03,2023-01-20_16h11.12.936,t1_Paradigm,2021.1.4,60.02343413028604,
X,left,Pretarget,0,21,21,21,2769.8783771255157,2771.878960344028,left,1,0.4871950172992001,0,1.47,Ö27K03,2023-01-20_16h11.12.936,t1_Paradigm,2021.1.4,60.02343413028604,
X,right,Target,0,22,22,22,2773.3784728849905,2775.3783785691257,left,0,1.147936359247069,0,1.47,Ö27K03,2023-01-20_16h11.12.936,t1_Paradigm,2021.1.4,60.02343413028604,
W,left,Distractor,0,23,23,23,2776.8779065085964,2778.8794973670156,left,1,1.1986138134243447,0,1.47,Ö27K03,2023-01-20_16h11.12.936,t1_Paradigm,2021.1.4,60.02343413028604,
K,left,Distractor,0,24,24,24,2780.3784000628775,2782.3788369955582,left,1,0.6594667945596484,0,1.47,Ö27K03,2023-01-20_16h11.12.936,t1_Paradigm,2021.1.4,60.02343413028604,
F,left,Pretarget,0,25,25,25,2783.878178228113,2785.8803356233266,left,1,0.757640627681667,0,1.47,Ö27K03,2023-01-20_16h11.12.936,t1_Paradigm,2021.1.4,60.02343413028604,
F,right,Target,0,26,26,26,2787.3784035917024,2789.3783561129676,right,1,0.8599197673543131,0,1.47,Ö27K03,2023-01-20_16h11.12.936,t1_Paradigm,2021.1.4,60.02343413028604,
Z,left,Distractor,0,27,27,27,2790.8783893160016,2792.8803882348975,left,1,0.7016766730239397,0,1.47,Ö27K03,2023-01-20_16h11.12.936,t1_Paradigm,2021.1.4,60.02343413028604,
F,left,Lure,0,28,28,28,2794.3783349400182,2796.3795992217338,left,1,0.7706453097907797,0,1.47,Ö27K03,2023-01-20_16h11.12.936,t1_Paradigm,2021.1.4,60.02343413028604,
P,left,Distractor,0,29,29,29,2797.878463100522,2799.8803782900277,left,1,0.5657251654938591,0,1.47,Ö27K03,2023-01-20_16h11.12.936,t1_Paradigm,2021.1.4,60.02343413028604,
F,left,Lure,0,30,30,30,2801.378337506436,2803.3802482047104,left,1,0.7621363505854788,0,1.47,Ö27K03,2023-01-20_16h11.12.936,t1_Paradigm,2021.1.4,60.02343413028604,
R,left,Distractor,0,31,31,31,2804.8784987095733,2806.878991141046,left,1,0.5753001506168403,0,1.47,Ö27K03,2023-01-20_16h11.12.936,t1_Paradigm,2021.1.4,60.02343413028604,
V,left,Distractor,0,32,32,32,2808.378187691779,2810.3789935470622,left,1,0.7073413993712165,0,1.47,Ö27K03,2023-01-20_16h11.12.936,t1_Paradigm,2021.1.4,60.02343413028604,
M,left,Pretarget,0,33,33,33,2811.878162188,2813.880454320164,left,1,0.5978512664473783,0,1.47,Ö27K03,2023-01-20_16h11.12.936,t1_Paradigm,2021.1.4,60.02343413028604,
M,right,Target,0,34,34,34,2815.377559240148,2817.3782650051244,right,1,0.7163129554387524,0,1.47,Ö27K03,2023-01-20_16h11.12.936,t1_Paradigm,2021.1.4,60.02343413028604,
M,right,Target,0,35,35,35,2818.8781605839886,2820.878232443695,right,1,0.640060182504385,0,1.47,Ö27K03,2023-01-20_16h11.12.936,t1_Paradigm,2021.1.4,60.02343413028604,
D,left,Distractor,0,36,36,36,2822.378174538887,2824.3794721840377,left,1,0.7068970882382928,0,1.47,Ö27K03,2023-01-20_16h11.12.936,t1_Paradigm,2021.1.4,60.02343413028604,
M,left,Lure,0,37,37,37,2825.8785076920367,2827.8795050662693,left,1,1.1107053318942235,0,1.47,Ö27K03,2023-01-20_16h11.12.936,t1_Paradigm,2021.1.4,60.02343413028604,
F,left,Distractor,0,38,38,38,2829.3782977269557,2831.3799094375217,left,1,0.7465187340499142,0,1.47,Ö27K03,2023-01-20_16h11.12.936,t1_Paradigm,2021.1.4,60.02343413028604,
T,left,Pretarget,0,39,39,39,2832.8785189201153,2834.8783431204756,left,1,0.6399164630906853,0,1.47,Ö27K03,2023-01-20_16h11.12.936,t1_Paradigm,2021.1.4,60.02343413028604,
T,right,Target,0,40,40,40,2836.3783971756566,2838.3785226093414,right,1,0.9638151088242921,0,1.47,Ö27K03,2023-01-20_16h11.12.936,t1_Paradigm,2021.1.4,60.02343413028604,
Z,left,Distractor,0,41,41,41,2839.8783373460346,2841.880248044309,left,1,0.5659461982522771,0,1.47,Ö27K03,2023-01-20_16h11.12.936,t1_Paradigm,2021.1.4,60.02343413028604,
S,left,Distractor,0,42,42,42,2843.3780067593034,2845.378975261334,left,1,0.5233795876729346,0,1.47,Ö27K03,2023-01-20_16h11.12.936,t1_Paradigm,2021.1.4,60.02343413028604,
D,left,Distractor,0,43,43,43,2846.8783046242042,2848.8803189416094,left,1,0.4300152220671407,0,1.47,Ö27K03,2023-01-20_16h11.12.936,t1_Paradigm,2021.1.4,60.02343413028604,
Y,left,Pretarget,0,44,44,44,2850.3783099174416,2852.3792245246914,left,1,0.48305602651134905,0,1.47,Ö27K03,2023-01-20_16h11.12.936,t1_Paradigm,2021.1.4,60.02343413028604,
Y,right,Target,0,45,45,45,2853.878389636804,2855.878432945109,right,1,0.7915507100155992,0,1.47,Ö27K03,2023-01-20_16h11.12.936,t1_Paradigm,2021.1.4,60.02343413028604,
Z,left,Pretarget,0,46,46,46,2857.37844016316,2859.380064064212,left,1,0.5223190153938049,0,1.47,Ö27K03,2023-01-20_16h11.12.936,t1_Paradigm,2021.1.4,60.02343413028604,
Z,right,Target,0,47,47,47,2860.878193947424,2862.8784512308384,left,0,0.8639105474971984,0,1.47,Ö27K03,2023-01-20_16h11.12.936,t1_Paradigm,2021.1.4,60.02343413028604,
H,left,Pretarget,0,48,48,48,2864.37848411307,2866.3783631706174,left,1,0.5640236302947415,0,1.47,Ö27K03,2023-01-20_16h11.12.936,t1_Paradigm,2021.1.4,60.02343413028604,
H,right,Target,0,49,49,49,2867.878503521607,2869.8785449050984,right,1,0.6638521614854653,0,1.47,Ö27K03,2023-01-20_16h11.12.936,t1_Paradigm,2021.1.4,60.02343413028604,
Z,left,Lure,0,50,50,50,2871.3780789398124,2873.3790862589167,left,1,0.9392589788540135,0,1.47,Ö27K03,2023-01-20_16h11.12.936,t1_Paradigm,2021.1.4,60.02343413028604,
R,left,Distractor,0,51,51,51,2874.8781208045075,2876.8786610355173,left,1,0.9438794938378123,0,1.47,Ö27K03,2023-01-20_16h11.12.936,t1_Paradigm,2021.1.4,60.02343413028604,
H,left,Lure,0,52,52,52,2878.378126097745,2880.3803855080787,left,1,0.9140731140432763,0,1.47,Ö27K03,2023-01-20_16h11.12.936,t1_Paradigm,2021.1.4,60.02343413028604,
L,left,Distractor,0,53,53,53,2881.8780293758628,2883.8913003238495,left,1,0.6671753521204664,0,1.47,Ö27K03,2023-01-20_16h11.12.936,t1_Paradigm,2021.1.4,60.02343413028604,
N,left,Pretarget,0,54,54,54,2885.378522930144,2887.3790477626444,left,1,0.6511750184863558,0,1.47,Ö27K03,2023-01-20_16h11.12.936,t1_Paradigm,2021.1.4,60.02343413028604,
N,right,Target,0,55,55,55,2888.878149997514,2890.8783986192675,right,1,0.4959400869693127,0,1.47,Ö27K03,2023-01-20_16h11.12.936,t1_Paradigm,2021.1.4,60.02343413028604,
W,left,Distractor,0,56,56,56,2892.37856206802,2894.3799732771713,left,1,0.6426484151566001,0,1.47,Ö27K03,2023-01-20_16h11.12.936,t1_Paradigm,2021.1.4,60.02343413028604,
R,left,Pretarget,0,57,57,57,2895.8784409651653,2897.8799577182617,left,1,0.6943787423588219,0,1.47,Ö27K03,2023-01-20_16h11.12.936,t1_Paradigm,2021.1.4,60.02343413028604,
R,right,Target,0,58,58,58,2899.3783885139956,2901.3781200025023,right,1,0.5720006993487914,0,1.47,Ö27K03,2023-01-20_16h11.12.936,t1_Paradigm,2021.1.4,60.02343413028604,
Q,left,Distractor,0,59,59,59,2902.8780762129936,2904.8786209352347,left,1,0.6714372101750996,0,1.47,Ö27K03,2023-01-20_16h11.12.936,t1_Paradigm,2021.1.4,60.02343413028604,
R,left,Lure,0,60,60,60,2906.378546027907,2908.3912947098106,left,1,0.5511485522997646,0,1.47,Ö27K03,2023-01-20_16h11.12.936,t1_Paradigm,2021.1.4,60.02343413028604,
Z,left,Distractor,0,61,61,61,2909.878293716927,2911.880262480411,left,1,0.6621079595856827,0,1.47,Ö27K03,2023-01-20_16h11.12.936,t1_Paradigm,2021.1.4,60.02343413028604,
K,left,Pretarget,0,62,62,62,2913.3785595016016,2915.380168645749,left,1,0.634014343068884,0,1.47,Ö27K03,2023-01-20_16h11.12.936,t1_Paradigm,2021.1.4,60.02343413028604,
K,right,Target,0,63,63,63,2916.878381616747,2918.878174699288,left,0,1.3120693831133394,0,1.47,Ö27K03,2023-01-20_16h11.12.936,t1_Paradigm,2021.1.4,60.02343413028604,
