Letter,CorrAnswer,Stimulus,nback_run.thisRepN,nback_run.thisTrialN,nback_run.thisN,nback_run.thisIndex,fixcross.started,nback_trial.started,trial_resp.keys,trial_resp.corr,currentlevel,trial_resp.rt,Participant,date,expName,psychopyVersion,frameRate,
H,left,Distractor,0,0,0,0,249.57667767553107,251.51165330257913,None,0,1,,Ö27K03,2023-01-20_16h11.12.936,t1_Paradigm,2021.1.4,60.02343413028604,
Q,left,Pretarget,0,1,1,1,253.01489581144529,255.01185460599868,None,0,1,,Ö27K03,2023-01-20_16h11.12.936,t1_Paradigm,2021.1.4,60.02343413028604,
Q,right,Target,0,2,2,2,256.51004704565185,258.5098824740912,right,1,1,1.2466677467009504,Ö27K03,2023-01-20_16h11.12.936,t1_Paradigm,2021.1.4,60.02343413028604,
T,left,Distractor,0,3,3,3,260.0102130608225,262.0118629468575,left,1,1,1.3285011957905226,Ö27K03,2023-01-20_16h11.12.936,t1_Paradigm,2021.1.4,60.02343413028604,
Q,left,Lure,0,4,4,4,263.5098978725998,265.51022252448934,None,0,1,,Ö27K03,2023-01-20_16h11.12.936,t1_Paradigm,2021.1.4,60.02343413028604,
L,left,Distractor,0,5,5,5,267.00980500034484,269.0116476885396,left,1,1,1.0485466855514005,Ö27K03,2023-01-20_16h11.12.936,t1_Paradigm,2021.1.4,60.02343413028604,
V,left,Pretarget,0,6,6,6,270.5100727098327,272.51177264102057,left,1,1,0.9243917188102841,Ö27K03,2023-01-20_16h11.12.936,t1_Paradigm,2021.1.4,60.02343413028604,
V,right,Target,0,7,7,7,274.009804037938,276.01004848926186,right,1,1,0.7861220941329066,Ö27K03,2023-01-20_16h11.12.936,t1_Paradigm,2021.1.4,60.02343413028604,
K,left,Distractor,0,8,8,8,277.5101310958446,279.5121961000068,left,1,1,0.5479809507617119,Ö27K03,2023-01-20_16h11.12.936,t1_Paradigm,2021.1.4,60.02343413028604,
G,left,Pretarget,0,9,9,9,281.01013831389537,283.0092018920918,left,1,1,0.7151362527408764,Ö27K03,2023-01-20_16h11.12.936,t1_Paradigm,2021.1.4,60.02343413028604,
G,right,Target,0,10,10,10,284.50985680991016,286.51010992289525,right,1,1,1.1501393083824496,Ö27K03,2023-01-20_16h11.12.936,t1_Paradigm,2021.1.4,60.02343413028604,
G,right,Target,0,11,11,11,288.01012484020043,290.0101787349804,right,1,1,0.7699908731756295,Ö27K03,2023-01-20_16h11.12.936,t1_Paradigm,2021.1.4,60.02343413028604,
P,left,Pretarget,0,12,12,12,291.5102023139468,293.5116330920366,left,1,1,0.7885916299483142,Ö27K03,2023-01-20_16h11.12.936,t1_Paradigm,2021.1.4,60.02343413028604,
P,right,Target,0,13,13,13,295.0100661333863,297.01013350186145,right,1,1,0.8259670183194885,Ö27K03,2023-01-20_16h11.12.936,t1_Paradigm,2021.1.4,60.02343413028604,
G,left,Lure,0,14,14,14,298.5101124893133,300.51173286154017,left,1,1,1.2764741264954864,Ö27K03,2023-01-20_16h11.12.936,t1_Paradigm,2021.1.4,60.02343413028604,
Y,left,Distractor,0,15,15,15,302.01012933143215,304.0115049315327,left,1,1,0.768696756849522,Ö27K03,2023-01-20_16h11.12.936,t1_Paradigm,2021.1.4,60.02343413028604,
B,left,Distractor,0,16,16,16,305.5098850405093,307.5116449617203,left,1,1,0.9005487322694989,Ö27K03,2023-01-20_16h11.12.936,t1_Paradigm,2021.1.4,60.02343413028604,
T,left,Pretarget,0,17,17,17,309.01009789281034,311.01194346822535,left,1,1,0.7123946766073459,Ö27K03,2023-01-20_16h11.12.936,t1_Paradigm,2021.1.4,60.02343413028604,
T,right,Target,0,18,18,18,312.5103258228178,314.5102180332576,right,1,1,0.7019660366643166,Ö27K03,2023-01-20_16h11.12.936,t1_Paradigm,2021.1.4,60.02343413028604,
S,left,Distractor,0,19,19,19,316.01014216352246,318.01253470679467,left,1,1,0.8641626980754609,Ö27K03,2023-01-20_16h11.12.936,t1_Paradigm,2021.1.4,60.02343413028604,
T,left,Lure,0,20,20,20,319.5101038276523,321.5114518387584,left,1,1,1.0288920933471672,Ö27K03,2023-01-20_16h11.12.936,t1_Paradigm,2021.1.4,60.02343413028604,
J,left,Distractor,0,21,21,21,323.01007928627905,325.0115078187532,left,1,1,0.6968951153044145,Ö27K03,2023-01-20_16h11.12.936,t1_Paradigm,2021.1.4,60.02343413028604,
P,left,Distractor,0,22,22,22,326.5101400783078,328.5101641384774,left,1,1,0.68604654520027,Ö27K03,2023-01-20_16h11.12.936,t1_Paradigm,2021.1.4,60.02343413028604,
F,left,Distractor,0,23,23,23,330.0102053615683,332.01166084143233,left,1,1,0.9127472382936048,Ö27K03,2023-01-20_16h11.12.936,t1_Paradigm,2021.1.4,60.02343413028604,
L,left,Distractor,0,24,24,24,333.5102812313032,335.5122589772502,left,1,1,0.7559856088103061,Ö27K03,2023-01-20_16h11.12.936,t1_Paradigm,2021.1.4,60.02343413028604,
W,left,Pretarget,0,25,25,25,337.0102538027097,339.01151423479837,left,1,1,0.6968951153044145,Ö27K03,2023-01-20_16h11.12.936,t1_Paradigm,2021.1.4,60.02343413028604,
W,right,Target,0,26,26,26,340.51033608849,342.5102837977213,right,1,1,0.6539557324958878,Ö27K03,2023-01-20_16h11.12.936,t1_Paradigm,2021.1.4,60.02343413028604,
V,left,Distractor,0,27,27,27,344.0101017424374,346.01218984436287,left,1,1,0.6561480951563681,Ö27K03,2023-01-20_16h11.12.936,t1_Paradigm,2021.1.4,60.02343413028604,
W,left,Lure,0,28,28,28,347.51017344174306,349.50999250926725,left,1,1,0.8542890460462331,Ö27K03,2023-01-20_16h11.12.936,t1_Paradigm,2021.1.4,60.02343413028604,
R,left,Pretarget,0,29,29,29,351.0101312562456,353.013383870383,left,1,1,0.695040236623754,Ö27K03,2023-01-20_16h11.12.936,t1_Paradigm,2021.1.4,60.02343413028604,
R,right,Target,0,30,30,30,354.5101910858675,356.51010639407036,left,0,1,1.0702184823808238,Ö27K03,2023-01-20_16h11.12.936,t1_Paradigm,2021.1.4,60.02343413028604,
G,left,Distractor,0,31,31,31,358.0101007800306,360.01192742811213,left,1,1,0.6724483789059832,Ö27K03,2023-01-20_16h11.12.936,t1_Paradigm,2021.1.4,60.02343413028604,
R,left,Lure,0,32,32,32,361.5101471359576,363.5117819442862,left,1,1,0.548496479997084,Ö27K03,2023-01-20_16h11.12.936,t1_Paradigm,2021.1.4,60.02343413028604,
S,left,Distractor,0,33,33,33,365.0102220432859,367.0118751373434,left,1,1,0.5523910194615382,Ö27K03,2023-01-20_16h11.12.936,t1_Paradigm,2021.1.4,60.02343413028604,
R,left,Lure,0,34,34,34,368.5102985546255,370.5123561803357,left,1,1,0.9716869547364695,Ö27K03,2023-01-20_16h11.12.936,t1_Paradigm,2021.1.4,60.02343413028604,
P,left,Pretarget,0,35,35,35,372.0101344642683,374.0123531327142,left,1,1,0.7038738477183415,Ö27K03,2023-01-20_16h11.12.936,t1_Paradigm,2021.1.4,60.02343413028604,
P,right,Target,0,36,36,36,375.50995048417076,377.50988696532295,right,1,1,0.7584083074953014,Ö27K03,2023-01-20_16h11.12.936,t1_Paradigm,2021.1.4,60.02343413028604,
Y,left,Pretarget,0,37,37,37,379.0100956471945,381.02318983313467,left,1,1,0.6210455908135373,Ö27K03,2023-01-20_16h11.12.936,t1_Paradigm,2021.1.4,60.02343413028604,
Y,right,Target,0,38,38,38,382.5102680784105,384.51018819864726,right,1,1,0.7180632525821693,Ö27K03,2023-01-20_16h11.12.936,t1_Paradigm,2021.1.4,60.02343413028604,
J,left,Distractor,0,39,39,39,386.01012516100263,388.012280631403,left,1,1,0.6721031956715251,Ö27K03,2023-01-20_16h11.12.936,t1_Paradigm,2021.1.4,60.02343413028604,
Y,left,Lure,0,40,40,40,389.51001271980977,391.51035244940545,left,1,1,0.5498518695553685,Ö27K03,2023-01-20_16h11.12.936,t1_Paradigm,2021.1.4,60.02343413028604,
T,left,Distractor,0,41,41,41,393.00992690520457,395.0115318789228,left,1,1,0.7128932033228921,Ö27K03,2023-01-20_16h11.12.936,t1_Paradigm,2021.1.4,60.02343413028604,
V,left,Distractor,0,42,42,42,396.5099354064646,398.51135303166166,left,1,1,0.8130746170022576,Ö27K03,2023-01-20_16h11.12.936,t1_Paradigm,2021.1.4,60.02343413028604,
N,left,Pretarget,0,43,43,43,400.0102765796705,402.0129382760408,left,1,1,0.5753447421311648,Ö27K03,2023-01-20_16h11.12.936,t1_Paradigm,2021.1.4,60.02343413028604,
N,right,Target,0,44,44,44,403.5102927801847,405.5102847601281,right,1,1,0.5501781254561138,Ö27K03,2023-01-20_16h11.12.936,t1_Paradigm,2021.1.4,60.02343413028604,
N,right,Target,0,45,45,45,407.01015242919493,409.0101620532628,right,1,1,0.6661940180001693,Ö27K03,2023-01-20_16h11.12.936,t1_Paradigm,2021.1.4,60.02343413028604,
X,left,Distractor,0,46,46,46,410.51018402821774,412.51163469604785,left,1,1,0.7005031783482991,Ö27K03,2023-01-20_16h11.12.936,t1_Paradigm,2021.1.4,60.02343413028604,
Z,left,Distractor,0,47,47,47,414.01024257463064,416.0120894332547,left,1,1,1.2161623387769396,Ö27K03,2023-01-20_16h11.12.936,t1_Paradigm,2021.1.4,60.02343413028604,
H,left,Pretarget,0,48,48,48,417.5101628552684,419.52288747700254,left,1,1,0.7295033820578283,Ö27K03,2023-01-20_16h11.12.936,t1_Paradigm,2021.1.4,60.02343413028604,
H,right,Target,0,49,49,49,421.0102092111954,423.0100411108099,right,1,1,0.6824112139638601,Ö27K03,2023-01-20_16h11.12.936,t1_Paradigm,2021.1.4,60.02343413028604,
K,left,Distractor,0,50,50,50,424.51020103073756,426.51198661612966,left,1,1,0.7965725486296833,Ö27K03,2023-01-20_16h11.12.936,t1_Paradigm,2021.1.4,60.02343413028604,
V,left,Pretarget,0,51,51,51,428.0102226848903,430.0121029069496,left,1,1,0.6402895561220703,Ö27K03,2023-01-20_16h11.12.936,t1_Paradigm,2021.1.4,60.02343413028604,
V,right,Target,0,52,52,52,431.5101596472459,433.5101792161838,right,1,1,0.7742312374787161,Ö27K03,2023-01-20_16h11.12.936,t1_Paradigm,2021.1.4,60.02343413028604,
R,left,Distractor,0,53,53,53,435.01034106092516,437.0116438389123,left,1,1,0.7128107571413693,Ö27K03,2023-01-20_16h11.12.936,t1_Paradigm,2021.1.4,60.02343413028604,
V,left,Lure,0,54,54,54,438.51015996804813,440.5228730409008,left,1,1,1.0414027399722272,Ö27K03,2023-01-20_16h11.12.936,t1_Paradigm,2021.1.4,60.02343413028604,
Y,left,Distractor,0,55,55,55,442.01022043927446,444.01208301720953,left,1,1,0.7682380096143788,Ö27K03,2023-01-20_16h11.12.936,t1_Paradigm,2021.1.4,60.02343413028604,
Q,left,Distractor,0,56,56,56,445.510357903044,447.5124562706417,left,1,1,0.7719243484104936,Ö27K03,2023-01-20_16h11.12.936,t1_Paradigm,2021.1.4,60.02343413028604,
Z,left,Pretarget,0,57,57,57,449.00999266966824,451.011804881648,left,1,1,0.6485155677316925,Ö27K03,2023-01-20_16h11.12.936,t1_Paradigm,2021.1.4,60.02343413028604,
Z,right,Target,0,58,58,58,452.5101699129182,454.5102411310204,right,1,1,0.6540599932311579,Ö27K03,2023-01-20_16h11.12.936,t1_Paradigm,2021.1.4,60.02343413028604,
B,left,Distractor,0,59,59,59,456.01017681016697,458.0120903956615,left,1,1,0.6563473133612661,Ö27K03,2023-01-20_16h11.12.936,t1_Paradigm,2021.1.4,60.02343413028604,
S,left,Pretarget,0,60,60,60,459.51033993811734,461.51129015441825,left,1,1,0.7090968293509832,Ö27K03,2023-01-20_16h11.12.936,t1_Paradigm,2021.1.4,60.02343413028604,
S,right,Target,0,61,61,61,463.0102326297606,465.0101225945846,right,1,1,0.634157741680383,Ö27K03,2023-01-20_16h11.12.936,t1_Paradigm,2021.1.4,60.02343413028604,
T,left,Distractor,0,62,62,62,466.5100172110415,468.5118791473717,left,1,1,0.7484044097479909,Ö27K03,2023-01-20_16h11.12.936,t1_Paradigm,2021.1.4,60.02343413028604,
D,left,Distractor,0,63,63,63,470.0102146648337,472.0126797094174,left,1,1,0.527802167660866,Ö27K03,2023-01-20_16h11.12.936,t1_Paradigm,2021.1.4,60.02343413028604,
R,left,Distractor,0,0,0,0,484.3536630004314,486.34535037221076,None,0,1,,Ö27K03,2023-01-20_16h11.12.936,t1_Paradigm,2021.1.4,60.02343413028604,
V,left,Distractor,0,1,1,1,487.84355083192054,489.8457739915982,left,1,1,0.7107473569901686,Ö27K03,2023-01-20_16h11.12.936,t1_Paradigm,2021.1.4,60.02343413028604,
N,left,Pretarget,0,2,2,2,491.342701507931,493.34566187120754,left,1,1,0.8588348141031474,Ö27K03,2023-01-20_16h11.12.936,t1_Paradigm,2021.1.4,60.02343413028604,
N,right,Target,0,3,3,3,494.8434911626996,496.8436047267005,right,1,1,0.6887306977289427,Ö27K03,2023-01-20_16h11.12.936,t1_Paradigm,2021.1.4,60.02343413028604,
S,left,Distractor,0,4,4,4,498.34335915256884,500.34511907377964,left,1,1,0.8992157988698182,Ö27K03,2023-01-20_16h11.12.936,t1_Paradigm,2021.1.4,60.02343413028604,
N,left,Lure,0,5,5,5,501.84365348864435,503.8449062214786,left,1,1,1.0475464240973906,Ö27K03,2023-01-20_16h11.12.936,t1_Paradigm,2021.1.4,60.02343413028604,
Z,left,Distractor,0,6,6,6,505.34355901237814,507.3451277354409,left,1,1,0.747372068067989,Ö27K03,2023-01-20_16h11.12.936,t1_Paradigm,2021.1.4,60.02343413028604,
L,left,Pretarget,0,7,7,7,508.8433650874106,510.84426782497667,left,1,1,0.6401679720645461,Ö27K03,2023-01-20_16h11.12.936,t1_Paradigm,2021.1.4,60.02343413028604,
L,right,Target,0,8,8,8,512.3436546114524,514.3436164359832,right,1,1,0.6287451659109138,Ö27K03,2023-01-20_16h11.12.936,t1_Paradigm,2021.1.4,60.02343413028604,
H,left,Distractor,0,9,9,9,515.8436092179322,517.8460575807981,left,1,1,0.8064426718337927,Ö27K03,2023-01-20_16h11.12.936,t1_Paradigm,2021.1.4,60.02343413028604,
L,left,Lure,0,10,10,10,519.3436449873846,521.3451399259268,left,1,1,0.6832408086143005,Ö27K03,2023-01-20_16h11.12.936,t1_Paradigm,2021.1.4,60.02343413028604,
X,left,Pretarget,0,11,11,11,522.8434404759423,524.8438411579677,left,1,1,0.7044881840506605,Ö27K03,2023-01-20_16h11.12.936,t1_Paradigm,2021.1.4,60.02343413028604,
X,right,Target,0,12,12,12,526.3435814685365,528.34361034074,right,1,1,0.708859756478887,Ö27K03,2023-01-20_16h11.12.936,t1_Paradigm,2021.1.4,60.02343413028604,
X,right,Target,0,13,13,13,529.8435890073897,531.8436611878988,right,1,1,0.7288880833186795,Ö27K03,2023-01-20_16h11.12.936,t1_Paradigm,2021.1.4,60.02343413028604,
R,left,Distractor,0,14,14,14,533.3433780799023,535.343325147529,left,1,1,0.7333571796348224,Ö27K03,2023-01-20_16h11.12.936,t1_Paradigm,2021.1.4,60.02343413028604,
T,left,Distractor,0,15,15,15,536.8435649472201,538.8457496106262,left,1,1,0.8628265566528626,Ö27K03,2023-01-20_16h11.12.936,t1_Paradigm,2021.1.4,60.02343413028604,
V,left,Pretarget,0,16,16,16,540.3437232631366,542.3435596539828,left,1,1,0.6929280745287087,Ö27K03,2023-01-20_16h11.12.936,t1_Paradigm,2021.1.4,60.02343413028604,
V,right,Target,0,17,17,17,543.8428585406384,545.843655413458,right,1,1,0.5847420028005672,Ö27K03,2023-01-20_16h11.12.936,t1_Paradigm,2021.1.4,60.02343413028604,
N,left,Distractor,0,18,18,18,547.3434213882076,549.3453997757592,left,1,1,0.8751229073666309,Ö27K03,2023-01-20_16h11.12.936,t1_Paradigm,2021.1.4,60.02343413028604,
B,left,Distractor,0,19,19,19,550.8436345613109,552.8455526380371,left,1,1,0.6546053570771164,Ö27K03,2023-01-20_16h11.12.936,t1_Paradigm,2021.1.4,60.02343413028604,
V,left,Lure,0,20,20,20,554.3436424209663,556.3450526677113,left,1,1,0.659539616673328,Ö27K03,2023-01-20_16h11.12.936,t1_Paradigm,2021.1.4,60.02343413028604,
P,left,Distractor,0,21,21,21,557.8437590325887,559.8455256906473,left,1,1,0.7909363736832802,Ö27K03,2023-01-20_16h11.12.936,t1_Paradigm,2021.1.4,60.02343413028604,
K,left,Pretarget,0,22,22,22,561.343171162443,563.3451286978475,left,1,1,0.5713353554569949,Ö27K03,2023-01-20_16h11.12.936,t1_Paradigm,2021.1.4,60.02343413028604,
K,right,Target,0,23,23,23,564.8437099498426,566.8436473934014,right,1,1,0.6725247298445538,Ö27K03,2023-01-20_16h11.12.936,t1_Paradigm,2021.1.4,60.02343413028604,
J,left,Pretarget,0,24,24,24,568.3435866013726,570.3454642570139,left,1,1,0.6749666766647806,Ö27K03,2023-01-20_16h11.12.936,t1_Paradigm,2021.1.4,60.02343413028604,
J,right,Target,0,25,25,25,571.8437256691534,573.8437317643964,right,1,1,0.4567245768216708,Ö27K03,2023-01-20_16h11.12.936,t1_Paradigm,2021.1.4,60.02343413028604,
H,left,Distractor,0,26,26,26,575.3437527769445,577.345576858608,left,1,1,0.6668381889430748,Ö27K03,2023-01-20_16h11.12.936,t1_Paradigm,2021.1.4,60.02343413028604,
J,left,Lure,0,27,27,27,578.843774110295,580.8437731478882,left,1,1,0.9128017746779733,Ö27K03,2023-01-20_16h11.12.936,t1_Paradigm,2021.1.4,60.02343413028604,
V,left,Distractor,0,28,28,28,582.3436385713392,584.3444392937859,left,1,1,1.0759762413845237,Ö27K03,2023-01-20_16h11.12.936,t1_Paradigm,2021.1.4,60.02343413028604,
Z,left,Pretarget,0,29,29,29,585.8439755741158,587.8432925860993,left,1,1,0.6973711858615843,Ö27K03,2023-01-20_16h11.12.936,t1_Paradigm,2021.1.4,60.02343413028604,
Z,right,Target,0,30,30,30,589.343355623744,591.3435529171352,None,0,1,,Ö27K03,2023-01-20_16h11.12.936,t1_Paradigm,2021.1.4,60.02343413028604,
T,left,Distractor,0,31,31,31,592.8436114635481,594.8463020321219,left,1,1,0.6538809855687759,Ö27K03,2023-01-20_16h11.12.936,t1_Paradigm,2021.1.4,60.02343413028604,
Z,left,Lure,0,32,32,32,596.343366851823,598.3438089173405,left,1,1,0.9166250960402067,Ö27K03,2023-01-20_16h11.12.936,t1_Paradigm,2021.1.4,60.02343413028604,
F,left,Distractor,0,33,33,33,599.8434250774337,601.8457733499936,left,1,1,0.7429055381699072,Ö27K03,2023-01-20_16h11.12.936,t1_Paradigm,2021.1.4,60.02343413028604,
Y,left,Pretarget,0,34,34,34,603.3435689572482,605.3457680567562,left,1,1,0.77883090031537,Ö27K03,2023-01-20_16h11.12.936,t1_Paradigm,2021.1.4,60.02343413028604,
Y,right,Target,0,35,35,35,606.8600824141013,608.8436412981584,right,1,1,1.1367153377166233,Ö27K03,2023-01-20_16h11.12.936,t1_Paradigm,2021.1.4,60.02343413028604,
Y,right,Target,0,36,36,36,610.3431782200928,612.343709147837,right,1,1,0.5331900416560984,Ö27K03,2023-01-20_16h11.12.936,t1_Paradigm,2021.1.4,60.02343413028604,
W,left,Distractor,0,37,37,37,613.8437551829616,615.8444503614639,left,1,1,0.7438833434653134,Ö27K03,2023-01-20_16h11.12.936,t1_Paradigm,2021.1.4,60.02343413028604,
Q,left,Distractor,0,38,38,38,617.3437197343117,619.3451495499946,left,1,1,0.6033065089175125,Ö27K03,2023-01-20_16h11.12.936,t1_Paradigm,2021.1.4,60.02343413028604,
P,left,Pretarget,0,39,39,39,620.8437933584307,622.8447682765059,left,1,1,0.5276959821121636,Ö27K03,2023-01-20_16h11.12.936,t1_Paradigm,2021.1.4,60.02343413028604,
P,right,Target,0,40,40,40,624.3436366465257,626.34347560379,right,1,1,0.6450066325867283,Ö27K03,2023-01-20_16h11.12.936,t1_Paradigm,2021.1.4,60.02343413028604,
J,left,Distractor,0,41,41,41,627.8439800653475,629.8446627325616,left,1,1,0.6639192091583936,Ö27K03,2023-01-20_16h11.12.936,t1_Paradigm,2021.1.4,60.02343413028604,
P,left,Lure,0,42,42,42,631.3436876540854,633.3450735198585,left,1,1,0.9234976429054313,Ö27K03,2023-01-20_16h11.12.936,t1_Paradigm,2021.1.4,60.02343413028604,
L,left,Distractor,0,43,43,43,634.8437538997525,636.8450579609487,left,1,1,0.8474739227860937,Ö27K03,2023-01-20_16h11.12.936,t1_Paradigm,2021.1.4,60.02343413028604,
Z,left,Distractor,0,44,44,44,638.3432510422062,640.3453744323806,left,1,1,0.6111597482986326,Ö27K03,2023-01-20_16h11.12.936,t1_Paradigm,2021.1.4,60.02343413028604,
F,left,Pretarget,0,45,45,45,641.8436878144864,643.8450393544176,left,1,1,0.5993821348429265,Ö27K03,2023-01-20_16h11.12.936,t1_Paradigm,2021.1.4,60.02343413028604,
F,right,Target,0,46,46,46,645.3435769773048,647.3434553932475,right,1,1,0.6849680079942573,Ö27K03,2023-01-20_16h11.12.936,t1_Paradigm,2021.1.4,60.02343413028604,
G,left,Pretarget,0,47,47,47,648.843810681753,650.8427071219705,left,1,1,0.6099240179839853,Ö27K03,2023-01-20_16h11.12.936,t1_Paradigm,2021.1.4,60.02343413028604,
G,right,Target,0,48,48,48,652.3434014984673,654.3438268822672,right,1,1,0.6130005116797292,Ö27K03,2023-01-20_16h11.12.936,t1_Paradigm,2021.1.4,60.02343413028604,
V,left,Distractor,0,49,49,49,655.8436066515142,657.8450688682256,left,1,1,0.5993766812043759,Ö27K03,2023-01-20_16h11.12.936,t1_Paradigm,2021.1.4,60.02343413028604,
G,left,Lure,0,50,50,50,659.3433832127384,661.342762460361,None,0,1,,Ö27K03,2023-01-20_16h11.12.936,t1_Paradigm,2021.1.4,60.02343413028604,
Q,left,Pretarget,0,51,51,51,662.843772827086,664.8458590041978,left,1,1,1.3907714813205985,Ö27K03,2023-01-20_16h11.12.936,t1_Paradigm,2021.1.4,60.02343413028604,
Q,right,Target,0,52,52,52,666.3436937493284,668.3437858195775,right,1,1,0.5648737562896713,Ö27K03,2023-01-20_16h11.12.936,t1_Paradigm,2021.1.4,60.02343413028604,
Y,left,Distractor,0,53,53,53,669.8439027520021,671.8428598238474,left,1,1,0.6496836087687825,Ö27K03,2023-01-20_16h11.12.936,t1_Paradigm,2021.1.4,60.02343413028604,
V,left,Distractor,0,54,54,54,673.3436507618251,675.3445493289619,left,1,1,0.6519215253506445,Ö27K03,2023-01-20_16h11.12.936,t1_Paradigm,2021.1.4,60.02343413028604,
B,left,Distractor,0,55,55,55,676.8434780098069,678.844039413766,left,1,1,0.6722658424187102,Ö27K03,2023-01-20_16h11.12.936,t1_Paradigm,2021.1.4,60.02343413028604,
J,left,Pretarget,0,56,56,56,680.3438464512051,682.3455977107551,left,1,1,0.675000681704887,Ö27K03,2023-01-20_16h11.12.936,t1_Paradigm,2021.1.4,60.02343413028604,
J,right,Target,0,57,57,57,683.8435848369602,685.8437186115036,right,1,1,0.5527224081984059,Ö27K03,2023-01-20_16h11.12.936,t1_Paradigm,2021.1.4,60.02343413028604,
H,left,Distractor,0,58,58,58,687.3436953533396,689.3439186317141,left,1,1,0.6685634635095994,Ö27K03,2023-01-20_16h11.12.936,t1_Paradigm,2021.1.4,60.02343413028604,
J,left,Lure,0,59,59,59,690.8441106318683,692.845672297281,left,1,1,0.7987738937533777,Ö27K03,2023-01-20_16h11.12.936,t1_Paradigm,2021.1.4,60.02343413028604,
D,left,Pretarget,0,60,60,60,694.3434326162869,696.3451989535431,left,1,1,0.7714370497740219,Ö27K03,2023-01-20_16h11.12.936,t1_Paradigm,2021.1.4,60.02343413028604,
D,right,Target,0,61,61,61,697.8437285563739,699.8438174186003,right,1,1,0.4887050335478307,Ö27K03,2023-01-20_16h11.12.936,t1_Paradigm,2021.1.4,60.02343413028604,
R,left,Distractor,0,62,62,62,701.3437893484024,703.3444765068484,left,1,1,0.4921584699015966,Ö27K03,2023-01-20_16h11.12.936,t1_Paradigm,2021.1.4,60.02343413028604,
F,left,Distractor,0,63,63,63,704.8435113732421,706.8598523988792,left,1,1,0.640431992326512,Ö27K03,2023-01-20_16h11.12.936,t1_Paradigm,2021.1.4,60.02343413028604,
F,left,Distractor,0,0,0,0,728.3174261392892,730.310405702581,None,0,2,,Ö27K03,2023-01-20_16h11.12.936,t1_Paradigm,2021.1.4,60.02343413028604,
N,left,Pretarget,0,1,1,1,731.8101630156696,733.8119178040445,None,0,2,,Ö27K03,2023-01-20_16h11.12.936,t1_Paradigm,2021.1.4,60.02343413028604,
V,left,Distractor,0,2,2,2,735.3103521286032,737.312358746754,left,1,2,1.052161806245067,Ö27K03,2023-01-20_16h11.12.936,t1_Paradigm,2021.1.4,60.02343413028604,
N,right,Target,0,3,3,3,738.8104575121463,740.8122941050981,right,1,2,1.3124103959180502,Ö27K03,2023-01-20_16h11.12.936,t1_Paradigm,2021.1.4,60.02343413028604,
N,left,Lure,0,4,4,4,742.3102398478113,744.3104807703105,right,0,2,1.3982233970714333,Ö27K03,2023-01-20_16h11.12.936,t1_Paradigm,2021.1.4,60.02343413028604,
X,left,Distractor,0,5,5,5,745.8104049005753,747.8106143844527,left,1,2,1.3060277141075858,Ö27K03,2023-01-20_16h11.12.936,t1_Paradigm,2021.1.4,60.02343413028604,
G,left,Pretarget,0,6,6,6,749.3104480484797,751.3118223653714,left,1,2,0.9887873193281393,Ö27K03,2023-01-20_16h11.12.936,t1_Paradigm,2021.1.4,60.02343413028604,
H,left,Pretarget,0,7,7,7,752.8104222238976,754.8119383353892,left,1,2,1.2005646119814628,Ö27K03,2023-01-20_16h11.12.936,t1_Paradigm,2021.1.4,60.02343413028604,
G,right,Target,0,8,8,8,756.3100544241038,758.3117020645229,right,1,2,1.2049041041836972,Ö27K03,2023-01-20_16h11.12.936,t1_Paradigm,2021.1.4,60.02343413028604,
H,right,Target,0,9,9,9,759.8102528403031,761.8111350465244,None,0,2,,Ö27K03,2023-01-20_16h11.12.936,t1_Paradigm,2021.1.4,60.02343413028604,
T,left,Pretarget,0,10,10,10,763.3104875071579,765.311009773241,left,1,2,1.1175246255836555,Ö27K03,2023-01-20_16h11.12.936,t1_Paradigm,2021.1.4,60.02343413028604,
K,left,Distractor,0,11,11,11,766.8102015119412,768.8118250921905,left,1,2,1.0726870557891743,Ö27K03,2023-01-20_16h11.12.936,t1_Paradigm,2021.1.4,60.02343413028604,
T,right,Target,0,12,12,12,770.3101291710309,772.3104592765587,right,1,2,0.6781336365984316,Ö27K03,2023-01-20_16h11.12.936,t1_Paradigm,2021.1.4,60.02343413028604,
T,left,Lure,0,13,13,13,773.8105434871527,775.8104212614908,right,0,2,1.3860598584942636,Ö27K03,2023-01-20_16h11.12.936,t1_Paradigm,2021.1.4,60.02343413028604,
J,left,Distractor,0,14,14,14,777.3102667952014,779.3120520597911,left,1,2,1.2286838926788732,Ö27K03,2023-01-20_16h11.12.936,t1_Paradigm,2021.1.4,60.02343413028604,
Q,left,Pretarget,0,15,15,15,780.8094678371672,782.8116820143816,left,1,2,0.8652806939594484,Ö27K03,2023-01-20_16h11.12.936,t1_Paradigm,2021.1.4,60.02343413028604,
M,left,Distractor,0,16,16,16,784.3104560685363,786.3120956888988,left,1,2,1.0447522363929238,Ö27K03,2023-01-20_16h11.12.936,t1_Paradigm,2021.1.4,60.02343413028604,
Q,right,Target,0,17,17,17,787.8105357878983,789.8110243697438,right,1,2,1.2097350654514685,Ö27K03,2023-01-20_16h11.12.936,t1_Paradigm,2021.1.4,60.02343413028604,
R,left,Distractor,0,18,18,18,791.310483978333,793.3116298840139,left,1,2,0.6849705744125458,Ö27K03,2023-01-20_16h11.12.936,t1_Paradigm,2021.1.4,60.02343413028604,
W,left,Distractor,0,19,19,19,794.8104016925527,796.8118193177497,left,1,2,1.0728750459147705,Ö27K03,2023-01-20_16h11.12.936,t1_Paradigm,2021.1.4,60.02343413028604,
C,left,Pretarget,0,20,20,20,798.3104018529539,800.3118323102415,left,1,2,0.7888854848206392,Ö27K03,2023-01-20_16h11.12.936,t1_Paradigm,2021.1.4,60.02343413028604,
T,left,Distractor,0,21,21,21,801.810164619681,803.8118549268011,None,0,2,,Ö27K03,2023-01-20_16h11.12.936,t1_Paradigm,2021.1.4,60.02343413028604,
C,right,Target,0,22,22,22,805.3105670661189,807.3116991773027,None,0,2,,Ö27K03,2023-01-20_16h11.12.936,t1_Paradigm,2021.1.4,60.02343413028604,
F,left,Pretarget,0,23,23,23,808.8102220432859,810.8119806812879,left,1,2,1.0886668580785681,Ö27K03,2023-01-20_16h11.12.936,t1_Paradigm,2021.1.4,60.02343413028604,
C,right,Target,0,24,24,24,812.3101346246694,814.3122400499169,right,1,2,0.6606791063090895,Ö27K03,2023-01-20_16h11.12.936,t1_Paradigm,2021.1.4,60.02343413028604,
F,right,Target,0,25,25,25,815.8104235071066,817.8118882902363,right,1,2,1.3689389625576496,Ö27K03,2023-01-20_16h11.12.936,t1_Paradigm,2021.1.4,60.02343413028604,
H,left,Distractor,0,26,26,26,819.3105324194746,821.3131443914942,None,0,2,,Ö27K03,2023-01-20_16h11.12.936,t1_Paradigm,2021.1.4,60.02343413028604,
H,left,Lure,0,27,27,27,822.8095538121736,824.8103028854559,right,0,2,1.3466396765029458,Ö27K03,2023-01-20_16h11.12.936,t1_Paradigm,2021.1.4,60.02343413028604,
P,left,Distractor,0,28,28,28,826.3096328899312,828.3117883603315,left,1,2,1.2847813010778282,Ö27K03,2023-01-20_16h11.12.936,t1_Paradigm,2021.1.4,60.02343413028604,
G,left,Pretarget,0,29,29,29,829.8103429857388,831.8110243697438,left,1,2,0.8737007909378463,Ö27K03,2023-01-20_16h11.12.936,t1_Paradigm,2021.1.4,60.02343413028604,
K,left,Distractor,0,30,30,30,833.3104137226376,835.3118034380379,left,1,2,0.8608642092144692,Ö27K03,2023-01-20_16h11.12.936,t1_Paradigm,2021.1.4,60.02343413028604,
G,right,Target,0,31,31,31,836.8101639780764,838.80950793745,left,0,2,1.0912380882109574,Ö27K03,2023-01-20_16h11.12.936,t1_Paradigm,2021.1.4,60.02343413028604,
M,left,Pretarget,0,32,32,32,840.3104567101407,842.3116786459577,left,1,2,0.8049971368398019,Ö27K03,2023-01-20_16h11.12.936,t1_Paradigm,2021.1.4,60.02343413028604,
B,left,Distractor,0,33,33,33,843.8103939932985,845.8100651709797,left,1,2,0.6666588604782646,Ö27K03,2023-01-20_16h11.12.936,t1_Paradigm,2021.1.4,60.02343413028604,
M,right,Target,0,34,34,34,847.310249151077,849.3123317993638,right,1,2,0.6363007007923898,Ö27K03,2023-01-20_16h11.12.936,t1_Paradigm,2021.1.4,60.02343413028604,
M,left,Lure,0,35,35,35,850.8105306550622,852.8104183742703,left,1,2,1.154255843012379,Ö27K03,2023-01-20_16h11.12.936,t1_Paradigm,2021.1.4,60.02343413028604,
T,left,Distractor,0,36,36,36,854.3104265547281,856.3111445101911,left,1,2,1.2854424745403321,Ö27K03,2023-01-20_16h11.12.936,t1_Paradigm,2021.1.4,60.02343413028604,
F,left,Distractor,0,37,37,37,857.8107382141259,859.8125603709757,left,1,2,0.8241981146450144,Ö27K03,2023-01-20_16h11.12.936,t1_Paradigm,2021.1.4,60.02343413028604,
X,left,Distractor,0,38,38,38,861.310422705101,863.3118733729311,None,0,2,,Ö27K03,2023-01-20_16h11.12.936,t1_Paradigm,2021.1.4,60.02343413028604,
C,left,Distractor,0,39,39,39,864.8101556372176,866.8119473178524,left,1,2,0.6727935621402139,Ö27K03,2023-01-20_16h11.12.936,t1_Paradigm,2021.1.4,60.02343413028604,
R,left,Distractor,0,40,40,40,868.3102000683309,870.311885563417,left,1,2,0.6929643251844482,Ö27K03,2023-01-20_16h11.12.936,t1_Paradigm,2021.1.4,60.02343413028604,
B,left,Pretarget,0,41,41,41,871.8105117277287,873.8126007920607,None,0,2,,Ö27K03,2023-01-20_16h11.12.936,t1_Paradigm,2021.1.4,60.02343413028604,
H,left,Distractor,0,42,42,42,875.3101843490201,877.3107945149229,left,1,2,0.9259886724721582,Ö27K03,2023-01-20_16h11.12.936,t1_Paradigm,2021.1.4,60.02343413028604,
B,right,Target,0,43,43,43,878.8105219934012,880.8122668369058,right,1,2,0.6564429124355229,Ö27K03,2023-01-20_16h11.12.936,t1_Paradigm,2021.1.4,60.02343413028604,
W,left,Pretarget,0,44,44,44,882.3104894319715,884.312633995095,left,1,2,0.6442777698468944,Ö27K03,2023-01-20_16h11.12.936,t1_Paradigm,2021.1.4,60.02343413028604,
L,left,Pretarget,0,45,45,45,885.8096500528522,887.8113005804917,left,1,2,0.7614764603320054,Ö27K03,2023-01-20_16h11.12.936,t1_Paradigm,2021.1.4,60.02343413028604,
W,right,Target,0,46,46,46,889.3105776525936,891.3122795085951,right,1,2,0.7804628214237255,Ö27K03,2023-01-20_16h11.12.936,t1_Paradigm,2021.1.4,60.02343413028604,
L,right,Target,0,47,47,47,892.8105053116835,894.81285165943,right,1,2,1.0239584753551298,Ö27K03,2023-01-20_16h11.12.936,t1_Paradigm,2021.1.4,60.02343413028604,
W,right,Target,0,48,48,48,896.3094805088565,898.309774684531,None,0,2,,Ö27K03,2023-01-20_16h11.12.936,t1_Paradigm,2021.1.4,60.02343413028604,
X,left,Distractor,0,49,49,49,899.8105252014236,901.811603097025,left,1,2,0.6972095015214563,Ö27K03,2023-01-20_16h11.12.936,t1_Paradigm,2021.1.4,60.02343413028604,
R,left,Distractor,0,50,50,50,903.3102738528512,905.311940741406,left,1,2,0.8128981757579368,Ö27K03,2023-01-20_16h11.12.936,t1_Paradigm,2021.1.4,60.02343413028604,
V,left,Pretarget,0,51,51,51,906.8095528497668,908.8122270574252,left,1,2,0.9286619177237299,Ö27K03,2023-01-20_16h11.12.936,t1_Paradigm,2021.1.4,60.02343413028604,
Z,left,Distractor,0,52,52,52,910.3106139032493,912.3123459146634,left,1,2,0.7244507464265553,Ö27K03,2023-01-20_16h11.12.936,t1_Paradigm,2021.1.4,60.02343413028604,
V,right,Target,0,53,53,53,913.8102849205293,915.810602514769,right,1,2,1.2581855103242106,Ö27K03,2023-01-20_16h11.12.936,t1_Paradigm,2021.1.4,60.02343413028604,
V,left,Lure,0,54,54,54,917.3105779733958,919.3102876473486,left,1,2,1.4064368973929504,Ö27K03,2023-01-20_16h11.12.936,t1_Paradigm,2021.1.4,60.02343413028604,
N,left,Distractor,0,55,55,55,920.8105030660677,922.811765743772,left,1,2,0.7848100128803708,Ö27K03,2023-01-20_16h11.12.936,t1_Paradigm,2021.1.4,60.02343413028604,
B,left,Distractor,0,56,56,56,924.3104605597678,926.3127042507904,left,1,2,0.8681156235513754,Ö27K03,2023-01-20_16h11.12.936,t1_Paradigm,2021.1.4,60.02343413028604,
V,left,Lure,0,57,57,57,927.8103939932985,929.8122764609736,left,1,2,1.2725465443984376,Ö27K03,2023-01-20_16h11.12.936,t1_Paradigm,2021.1.4,60.02343413028604,
J,left,Distractor,0,58,58,58,931.3103303140495,933.3117421648058,left,1,2,0.6209823927679281,Ö27K03,2023-01-20_16h11.12.936,t1_Paradigm,2021.1.4,60.02343413028604,
H,left,Distractor,0,59,59,59,934.8105040284745,936.810420299084,left,1,2,0.8824182716134601,Ö27K03,2023-01-20_16h11.12.936,t1_Paradigm,2021.1.4,60.02343413028604,
X,left,Pretarget,0,60,60,60,938.3103386549083,940.312438305715,left,1,2,1.2682202050889373,Ö27K03,2023-01-20_16h11.12.936,t1_Paradigm,2021.1.4,60.02343413028604,
P,left,Distractor,0,61,61,61,941.8104764394798,943.8120820548027,left,1,2,0.6968242180043944,Ö27K03,2023-01-20_16h11.12.936,t1_Paradigm,2021.1.4,60.02343413028604,
X,right,Target,0,62,62,62,945.3105311362656,947.312352651511,right,1,2,0.8125016641618004,Ö27K03,2023-01-20_16h11.12.936,t1_Paradigm,2021.1.4,60.02343413028604,
Q,left,Distractor,0,63,63,63,948.8104908755818,950.8095679274729,left,1,2,0.7069618902951333,Ö27K03,2023-01-20_16h11.12.936,t1_Paradigm,2021.1.4,60.02343413028604,
B,left,Pretarget,0,0,0,0,963.4721952659211,965.4625936542104,None,0,2,,Ö27K03,2023-01-20_16h11.12.936,t1_Paradigm,2021.1.4,60.02343413028604,
F,left,Distractor,0,1,1,1,966.9604909557822,968.9614328312243,None,0,2,,Ö27K03,2023-01-20_16h11.12.936,t1_Paradigm,2021.1.4,60.02343413028604,
B,right,Target,0,2,2,2,970.4606284195515,972.4621631375744,right,1,2,0.5746912679228444,Ö27K03,2023-01-20_16h11.12.936,t1_Paradigm,2021.1.4,60.02343413028604,
V,left,Distractor,0,3,3,3,973.9604986550364,975.961785713713,left,1,2,0.7549497383056405,Ö27K03,2023-01-20_16h11.12.936,t1_Paradigm,2021.1.4,60.02343413028604,
G,left,Pretarget,0,4,4,4,977.4604843793356,979.4612831769689,left,1,2,0.7437287167749673,Ö27K03,2023-01-20_16h11.12.936,t1_Paradigm,2021.1.4,60.02343413028604,
B,left,Lure,0,5,5,5,980.9605647403025,982.9610379236394,right,0,2,1.0196520257859447,Ö27K03,2023-01-20_16h11.12.936,t1_Paradigm,2021.1.4,60.02343413028604,
G,right,Target,0,6,6,6,984.4605536726247,986.4612296029911,left,0,2,1.4077249184761058,Ö27K03,2023-01-20_16h11.12.936,t1_Paradigm,2021.1.4,60.02343413028604,
Y,left,Pretarget,0,7,7,7,987.9606738130717,989.9613147759917,left,1,2,0.6915784594111756,Ö27K03,2023-01-20_16h11.12.936,t1_Paradigm,2021.1.4,60.02343413028604,
P,left,Distractor,0,8,8,8,991.4603390559112,993.4598421332068,left,1,2,0.6650785885340156,Ö27K03,2023-01-20_16h11.12.936,t1_Paradigm,2021.1.4,60.02343413028604,
Y,right,Target,0,9,9,9,994.9603918278833,996.9624090325085,right,1,2,0.7145681119345682,Ö27K03,2023-01-20_16h11.12.936,t1_Paradigm,2021.1.4,60.02343413028604,
X,left,Distractor,0,10,10,10,998.4605879984667,1000.4615539340782,left,1,2,0.9912918225900285,Ö27K03,2023-01-20_16h11.12.936,t1_Paradigm,2021.1.4,60.02343413028604,
Y,right,Target,0,11,11,11,1001.9603773917813,1003.9599388550889,right,1,2,0.644661770154471,Ö27K03,2023-01-20_16h11.12.936,t1_Paradigm,2021.1.4,60.02343413028604,
N,left,Distractor,0,12,12,12,1005.4604506950984,1007.4624284410454,left,1,2,0.9023907788596262,Ö27K03,2023-01-20_16h11.12.936,t1_Paradigm,2021.1.4,60.02343413028604,
Y,right,Target,0,13,13,13,1008.9605121287316,1010.9734180037437,right,1,2,0.5591333206084528,Ö27K03,2023-01-20_16h11.12.936,t1_Paradigm,2021.1.4,60.02343413028604,
Y,left,Lure,0,14,14,14,1012.4605697127374,1014.4605844696418,left,1,2,1.2963144632094554,Ö27K03,2023-01-20_16h11.12.936,t1_Paradigm,2021.1.4,60.02343413028604,
K,left,Distractor,0,15,15,15,1015.9603668053066,1017.9626563710528,left,1,2,1.0902217866441788,Ö27K03,2023-01-20_16h11.12.936,t1_Paradigm,2021.1.4,60.02343413028604,
T,left,Pretarget,0,16,16,16,1019.4606001889526,1021.4623068569879,left,1,2,0.6305984405803429,Ö27K03,2023-01-20_16h11.12.936,t1_Paradigm,2021.1.4,60.02343413028604,
J,left,Distractor,0,17,17,17,1022.9603530108095,1024.962405824486,right,0,2,0.602343139723871,Ö27K03,2023-01-20_16h11.12.936,t1_Paradigm,2021.1.4,60.02343413028604,
T,right,Target,0,18,18,18,1026.4604920785903,1028.460630023563,right,1,2,1.4561984611113985,Ö27K03,2023-01-20_16h11.12.936,t1_Paradigm,2021.1.4,60.02343413028604,
S,left,Pretarget,0,19,19,19,1029.960694986021,1031.9628055441046,left,1,2,0.8019029990200579,Ö27K03,2023-01-20_16h11.12.936,t1_Paradigm,2021.1.4,60.02343413028604,
R,left,Distractor,0,20,20,20,1033.4603605496625,1035.46246308769,left,1,2,0.6945802061795803,Ö27K03,2023-01-20_16h11.12.936,t1_Paradigm,2021.1.4,60.02343413028604,
S,right,Target,0,21,21,21,1036.9607312366768,1038.9624468871755,right,1,2,0.9703293195620972,Ö27K03,2023-01-20_16h11.12.936,t1_Paradigm,2021.1.4,60.02343413028604,
Q,left,Distractor,0,22,22,22,1040.4604638479912,1042.462572160459,left,1,2,1.118193177498597,Ö27K03,2023-01-20_16h11.12.936,t1_Paradigm,2021.1.4,60.02343413028604,
D,left,Distractor,0,23,23,23,1043.9605512666074,1045.9624202605876,left,1,2,0.6904546890864367,Ö27K03,2023-01-20_16h11.12.936,t1_Paradigm,2021.1.4,60.02343413028604,
F,left,Distractor,0,24,24,24,1047.4604866249517,1049.462404701678,left,1,2,0.9184953732292342,Ö27K03,2023-01-20_16h11.12.936,t1_Paradigm,2021.1.4,60.02343413028604,
Z,left,Distractor,0,25,25,25,1050.9605288104492,1052.9610427356736,left,1,2,1.0516969637669717,Ö27K03,2023-01-20_16h11.12.936,t1_Paradigm,2021.1.4,60.02343413028604,
P,left,Distractor,0,26,26,26,1054.4605998681502,1056.4617768916507,left,1,2,0.8311508620759014,Ö27K03,2023-01-20_16h11.12.936,t1_Paradigm,2021.1.4,60.02343413028604,
H,left,Distractor,0,27,27,27,1057.9606154270598,1059.9618748967416,left,1,2,0.8030219573111026,Ö27K03,2023-01-20_16h11.12.936,t1_Paradigm,2021.1.4,60.02343413028604,
Z,left,Pretarget,0,28,28,28,1061.4606553669416,1063.4626918197025,left,1,2,1.1261118605407319,Ö27K03,2023-01-20_16h11.12.936,t1_Paradigm,2021.1.4,60.02343413028604,
J,left,Pretarget,0,29,29,29,1064.9605105247203,1066.9734994875182,None,0,2,,Ö27K03,2023-01-20_16h11.12.936,t1_Paradigm,2021.1.4,60.02343413028604,
Z,right,Target,0,30,30,30,1068.4605876776643,1070.4614750167218,right,1,2,1.1193352335517375,Ö27K03,2023-01-20_16h11.12.936,t1_Paradigm,2021.1.4,60.02343413028604,
J,right,Target,0,31,31,31,1071.9603799581994,1073.963104531813,right,1,2,0.8978013816954444,Ö27K03,2023-01-20_16h11.12.936,t1_Paradigm,2021.1.4,60.02343413028604,
V,left,Pretarget,0,32,32,32,1075.4604891913698,1077.46132584367,left,1,2,0.6477491711270886,Ö27K03,2023-01-20_16h11.12.936,t1_Paradigm,2021.1.4,60.02343413028604,
Z,left,Lure,0,33,33,33,1078.9604184544708,1080.9623577041464,left,1,2,0.6664618878889996,Ö27K03,2023-01-20_16h11.12.936,t1_Paradigm,2021.1.4,60.02343413028604,
V,right,Target,0,34,34,34,1082.4603874970528,1084.4614204803372,left,0,2,0.5596469250299378,Ö27K03,2023-01-20_16h11.12.936,t1_Paradigm,2021.1.4,60.02343413028604,
X,left,Distractor,0,35,35,35,1085.9607488808012,1087.9626332732898,left,1,2,1.106332476256739,Ö27K03,2023-01-20_16h11.12.936,t1_Paradigm,2021.1.4,60.02343413028604,
S,left,Distractor,0,36,36,36,1089.4598363587659,1091.4625044711813,left,1,2,0.6944669629806413,Ö27K03,2023-01-20_16h11.12.936,t1_Paradigm,2021.1.4,60.02343413028604,
Q,left,Distractor,0,37,37,37,1092.9605583242571,1094.9613580842972,left,1,2,1.0995866462849335,Ö27K03,2023-01-20_16h11.12.936,t1_Paradigm,2021.1.4,60.02343413028604,
P,left,Distractor,0,38,38,38,1096.4606755774842,1098.4604741136634,left,1,2,0.6244156185789507,Ö27K03,2023-01-20_16h11.12.936,t1_Paradigm,2021.1.4,60.02343413028604,
S,left,Lure,0,39,39,39,1099.9602715270346,1101.9607344446993,right,0,2,1.0125828271338833,Ö27K03,2023-01-20_16h11.12.936,t1_Paradigm,2021.1.4,60.02343413028604,
K,left,Pretarget,0,40,40,40,1103.460412519629,1105.461294405048,left,1,2,0.6637023468288135,Ö27K03,2023-01-20_16h11.12.936,t1_Paradigm,2021.1.4,60.02343413028604,
L,left,Distractor,0,41,41,41,1106.9605535122234,1108.9604556675333,left,1,2,0.5721434563556613,Ö27K03,2023-01-20_16h11.12.936,t1_Paradigm,2021.1.4,60.02343413028604,
K,right,Target,0,42,42,42,1110.4596948849683,1112.4618586962276,right,1,2,0.6230390560717751,Ö27K03,2023-01-20_16h11.12.936,t1_Paradigm,2021.1.4,60.02343413028604,
B,left,Distractor,0,43,43,43,1113.9603299130465,1115.960759788078,left,1,2,0.7881097849503931,Ö27K03,2023-01-20_16h11.12.936,t1_Paradigm,2021.1.4,60.02343413028604,
N,left,Distractor,0,44,44,44,1117.460789141485,1119.459875496642,left,1,2,0.6651356913371274,Ö27K03,2023-01-20_16h11.12.936,t1_Paradigm,2021.1.4,60.02343413028604,
S,left,Pretarget,0,45,45,45,1120.9606651514107,1122.9625533935266,left,1,2,0.698201422116199,Ö27K03,2023-01-20_16h11.12.936,t1_Paradigm,2021.1.4,60.02343413028604,
Z,left,Distractor,0,46,46,46,1124.4605918480936,1126.4613274476812,left,1,2,0.9436225312260831,Ö27K03,2023-01-20_16h11.12.936,t1_Paradigm,2021.1.4,60.02343413028604,
S,right,Target,0,47,47,47,1127.9604675372173,1129.9623326815702,left,0,2,1.2345606693220361,Ö27K03,2023-01-20_16h11.12.936,t1_Paradigm,2021.1.4,60.02343413028604,
C,left,Distractor,0,48,48,48,1131.4604346549852,1133.4613713975912,left,1,2,0.887512611539023,Ö27K03,2023-01-20_16h11.12.936,t1_Paradigm,2021.1.4,60.02343413028604,
T,left,Pretarget,0,49,49,49,1134.9606218431052,1136.9625556391422,left,1,2,0.5540883842313633,Ö27K03,2023-01-20_16h11.12.936,t1_Paradigm,2021.1.4,60.02343413028604,
S,left,Lure,0,50,50,50,1138.4606778231002,1140.459829942721,right,0,2,0.7690643962423565,Ö27K03,2023-01-20_16h11.12.936,t1_Paradigm,2021.1.4,60.02343413028604,
T,right,Target,0,51,51,51,1141.9605689107318,1143.9629845517672,right,1,2,0.9942172184200899,Ö27K03,2023-01-20_16h11.12.936,t1_Paradigm,2021.1.4,60.02343413028604,
N,left,Pretarget,0,52,52,52,1145.4606986752472,1147.462273814355,left,1,2,0.6307132877900585,Ö27K03,2023-01-20_16h11.12.936,t1_Paradigm,2021.1.4,60.02343413028604,
B,left,Distractor,0,53,53,53,1148.9606686802356,1150.9623666866098,left,1,2,0.6024188490573579,Ö27K03,2023-01-20_16h11.12.936,t1_Paradigm,2021.1.4,60.02343413028604,
N,right,Target,0,54,54,54,1152.4607663645245,1154.4623232179035,right,1,2,1.2947839156163354,Ö27K03,2023-01-20_16h11.12.936,t1_Paradigm,2021.1.4,60.02343413028604,
N,left,Lure,0,55,55,55,1155.9606564897497,1157.9607270662475,right,0,2,1.3483363996683693,Ö27K03,2023-01-20_16h11.12.936,t1_Paradigm,2021.1.4,60.02343413028604,
X,left,Distractor,0,56,56,56,1159.4606476676875,1161.462876922608,left,1,2,0.902087299919458,Ö27K03,2023-01-20_16h11.12.936,t1_Paradigm,2021.1.4,60.02343413028604,
W,left,Distractor,0,57,57,57,1162.9607690913438,1164.9626948673242,left,1,2,0.7302941596344681,Ö27K03,2023-01-20_16h11.12.936,t1_Paradigm,2021.1.4,60.02343413028604,
S,left,Distractor,0,58,58,58,1166.4606229659132,1168.4604420334374,left,1,2,0.9284780980278811,Ö27K03,2023-01-20_16h11.12.936,t1_Paradigm,2021.1.4,60.02343413028604,
L,left,Distractor,0,59,59,59,1169.96070332688,1171.9608165700786,left,1,2,0.5162311508620405,Ö27K03,2023-01-20_16h11.12.936,t1_Paradigm,2021.1.4,60.02343413028604,
K,left,Pretarget,0,60,60,60,1173.4605267252343,1175.4624518596104,left,1,2,0.5184520649240767,Ö27K03,2023-01-20_16h11.12.936,t1_Paradigm,2021.1.4,60.02343413028604,
V,left,Pretarget,0,61,61,61,1176.9605807804157,1178.962644501369,left,1,2,0.7784295766850846,Ö27K03,2023-01-20_16h11.12.936,t1_Paradigm,2021.1.4,60.02343413028604,
K,right,Target,0,62,62,62,1180.460728189055,1182.462822707026,right,1,2,0.4782561830625127,Ö27K03,2023-01-20_16h11.12.936,t1_Paradigm,2021.1.4,60.02343413028604,
V,right,Target,0,63,63,63,1183.960462725183,1185.9616095932709,right,1,2,0.4671888258153558,Ö27K03,2023-01-20_16h11.12.936,t1_Paradigm,2021.1.4,60.02343413028604,
R,left,Distractor,0,0,0,0,1349.068983714473,1351.0627816443364,None,0,3,,Ö27K03,2023-01-20_16h11.12.936,t1_Paradigm,2021.1.4,60.02343413028604,
P,left,Lure,0,1,1,1,1352.560801492372,1354.5632598001082,None,0,3,,Ö27K03,2023-01-20_16h11.12.936,t1_Paradigm,2021.1.4,60.02343413028604,
V,left,Distractor,0,2,2,2,1356.0608712668643,1358.061580239864,None,0,3,,Ö27K03,2023-01-20_16h11.12.936,t1_Paradigm,2021.1.4,60.02343413028604,
P,left,Pretarget,0,3,3,3,1359.560506675093,1361.560848971107,left,1,3,0.9162834416306396,Ö27K03,2023-01-20_16h11.12.936,t1_Paradigm,2021.1.4,60.02343413028604,
Z,left,Distractor,0,4,4,4,1363.060869983655,1365.0617441698198,left,1,3,0.6794264697150538,Ö27K03,2023-01-20_16h11.12.936,t1_Paradigm,2021.1.4,60.02343413028604,
L,left,Pretarget,0,5,5,5,1366.5605714771502,1368.5629845517672,left,1,3,0.6660535066093871,Ö27K03,2023-01-20_16h11.12.936,t1_Paradigm,2021.1.4,60.02343413028604,
P,right,Target,0,6,6,6,1370.0605684295285,1372.0604131612338,right,1,3,1.3605660235116375,Ö27K03,2023-01-20_16h11.12.936,t1_Paradigm,2021.1.4,60.02343413028604,
S,left,Distractor,0,7,7,7,1373.560434494584,1375.5629534339475,None,0,3,,Ö27K03,2023-01-20_16h11.12.936,t1_Paradigm,2021.1.4,60.02343413028604,
L,right,Target,0,8,8,8,1377.0608260337451,1379.0604583943525,None,0,3,,Ö27K03,2023-01-20_16h11.12.936,t1_Paradigm,2021.1.4,60.02343413028604,
D,left,Distractor,0,9,9,9,1380.560781602632,1382.5628761206024,left,1,3,0.7463663529756559,Ö27K03,2023-01-20_16h11.12.936,t1_Paradigm,2021.1.4,60.02343413028604,
G,left,Distractor,0,10,10,10,1384.0606024345682,1386.060913612763,None,0,3,,Ö27K03,2023-01-20_16h11.12.936,t1_Paradigm,2021.1.4,60.02343413028604,
M,left,Pretarget,0,11,11,11,1387.5609266052545,1389.561636861463,left,1,3,0.9155301979189971,Ö27K03,2023-01-20_16h11.12.936,t1_Paradigm,2021.1.4,60.02343413028604,
Y,left,Distractor,0,12,12,12,1391.060913933565,1393.0614220843484,left,1,3,0.8077688683861197,Ö27K03,2023-01-20_16h11.12.936,t1_Paradigm,2021.1.4,60.02343413028604,
V,left,Distractor,0,13,13,13,1394.5607453519763,1396.5616153677117,left,1,3,0.8434176989817388,Ö27K03,2023-01-20_16h11.12.936,t1_Paradigm,2021.1.4,60.02343413028604,
M,right,Target,0,14,14,14,1398.06035734164,1400.0627110678386,None,0,3,,Ö27K03,2023-01-20_16h11.12.936,t1_Paradigm,2021.1.4,60.02343413028604,
S,left,Pretarget,0,15,15,15,1401.560903186689,1403.5604431562454,right,0,3,1.140759691837502,Ö27K03,2023-01-20_16h11.12.936,t1_Paradigm,2021.1.4,60.02343413028604,
Q,left,Distractor,0,16,16,16,1405.060843998672,1407.0614779039422,left,1,3,0.9675941594737196,Ö27K03,2023-01-20_16h11.12.936,t1_Paradigm,2021.1.4,60.02343413028604,
R,left,Pretarget,0,17,17,17,1408.56087206887,1410.5627391380365,left,1,3,1.1306919544394987,Ö27K03,2023-01-20_16h11.12.936,t1_Paradigm,2021.1.4,60.02343413028604,
S,right,Target,0,18,18,18,1412.060574845574,1414.0629118900545,None,0,3,,Ö27K03,2023-01-20_16h11.12.936,t1_Paradigm,2021.1.4,60.02343413028604,
F,left,Distractor,0,19,19,19,1415.5609365501248,1417.5601140131241,left,1,3,1.2848675968862153,Ö27K03,2023-01-20_16h11.12.936,t1_Paradigm,2021.1.4,60.02343413028604,
R,right,Target,0,20,20,20,1419.0603230157978,1421.0609116879493,right,1,3,0.9841257416546796,Ö27K03,2023-01-20_16h11.12.936,t1_Paradigm,2021.1.4,60.02343413028604,
P,left,Distractor,0,21,21,21,1422.560591046088,1424.5626595790752,left,1,3,1.2905403432905587,Ö27K03,2023-01-20_16h11.12.936,t1_Paradigm,2021.1.4,60.02343413028604,
L,left,Distractor,0,22,22,22,1426.0606261739356,1428.0614977936823,left,1,3,0.7675441143210264,Ö27K03,2023-01-20_16h11.12.936,t1_Paradigm,2021.1.4,60.02343413028604,
R,right,Target,0,23,23,23,1429.5607148757615,1431.5617257236897,left,0,3,0.7554027110995776,Ö27K03,2023-01-20_16h11.12.936,t1_Paradigm,2021.1.4,60.02343413028604,
H,left,Pretarget,0,24,24,24,1433.060553993427,1435.0628085917263,left,1,3,1.1423576079055238,Ö27K03,2023-01-20_16h11.12.936,t1_Paradigm,2021.1.4,60.02343413028604,
G,left,Pretarget,0,25,25,25,1436.5609217932204,1438.5623676490166,left,1,3,1.002767881919226,Ö27K03,2023-01-20_16h11.12.936,t1_Paradigm,2021.1.4,60.02343413028604,
T,left,Distractor,0,26,26,26,1440.0608311665812,1442.0627800403247,left,1,3,1.0703782419072922,Ö27K03,2023-01-20_16h11.12.936,t1_Paradigm,2021.1.4,60.02343413028604,
H,right,Target,0,27,27,27,1443.5608589159772,1445.5614148662978,left,0,3,1.1238264652242833,Ö27K03,2023-01-20_16h11.12.936,t1_Paradigm,2021.1.4,60.02343413028604,
G,right,Target,0,28,28,28,1447.0608395074403,1449.0628400303478,right,1,3,0.9022938965767935,Ö27K03,2023-01-20_16h11.12.936,t1_Paradigm,2021.1.4,60.02343413028604,
D,left,Distractor,0,29,29,29,1450.5609744047913,1452.5626117795384,left,1,3,0.8587141924526804,Ö27K03,2023-01-20_16h11.12.936,t1_Paradigm,2021.1.4,60.02343413028604,
N,left,Pretarget,0,30,30,30,1454.0605469357772,1456.0615824854797,left,1,3,0.7515049636131153,Ö27K03,2023-01-20_16h11.12.936,t1_Paradigm,2021.1.4,60.02343413028604,
V,left,Distractor,0,31,31,31,1457.5608239485307,1459.5615377335641,left,1,3,1.171574353142205,Ö27K03,2023-01-20_16h11.12.936,t1_Paradigm,2021.1.4,60.02343413028604,
R,left,Distractor,0,32,32,32,1461.0608491315081,1463.0628307270824,left,1,3,0.9342929598337832,Ö27K03,2023-01-20_16h11.12.936,t1_Paradigm,2021.1.4,60.02343413028604,
N,right,Target,0,33,33,33,1464.560967667944,1466.5626987169514,right,1,3,0.7945745921397247,Ö27K03,2023-01-20_16h11.12.936,t1_Paradigm,2021.1.4,60.02343413028604,
Z,left,Distractor,0,34,34,34,1468.0603570208375,1470.0598915367552,left,1,3,0.593369017238274,Ö27K03,2023-01-20_16h11.12.936,t1_Paradigm,2021.1.4,60.02343413028604,
N,left,Lure,0,35,35,35,1471.560938154136,1473.5628065065114,None,0,3,,Ö27K03,2023-01-20_16h11.12.936,t1_Paradigm,2021.1.4,60.02343413028604,
Y,left,Pretarget,0,36,36,36,1475.06101530708,1477.0609001390678,left,1,3,0.8403379972637595,Ö27K03,2023-01-20_16h11.12.936,t1_Paradigm,2021.1.4,60.02343413028604,
Y,left,Lure,0,37,37,37,1478.5606548857384,1480.560692419603,left,1,3,1.1805465508141424,Ö27K03,2023-01-20_16h11.12.936,t1_Paradigm,2021.1.4,60.02343413028604,
B,left,Distractor,0,38,38,38,1482.0606483092918,1484.0616113576832,left,1,3,0.767523582976537,Ö27K03,2023-01-20_16h11.12.936,t1_Paradigm,2021.1.4,60.02343413028604,
Y,right,Target,0,39,39,39,1485.5609984649611,1487.562387538757,right,1,3,0.8667451562869246,Ö27K03,2023-01-20_16h11.12.936,t1_Paradigm,2021.1.4,60.02343413028604,
J,left,Distractor,0,40,40,40,1489.0609043094971,1491.0600188952533,left,1,3,0.7290423892068247,Ö27K03,2023-01-20_16h11.12.936,t1_Paradigm,2021.1.4,60.02343413028604,
X,left,Distractor,0,41,41,41,1492.560558965862,1494.56293675223,left,1,3,0.6981670962741191,Ö27K03,2023-01-20_16h11.12.936,t1_Paradigm,2021.1.4,60.02343413028604,
W,left,Pretarget,0,42,42,42,1496.0608873069775,1498.0604641687935,left,1,3,0.6407675514928997,Ö27K03,2023-01-20_16h11.12.936,t1_Paradigm,2021.1.4,60.02343413028604,
S,left,Pretarget,0,43,43,43,1499.5609060739096,1501.5614379640604,left,1,3,1.075794667304308,Ö27K03,2023-01-20_16h11.12.936,t1_Paradigm,2021.1.4,60.02343413028604,
R,left,Distractor,0,44,44,44,1503.0608507355194,1505.0620688217093,left,1,3,0.9350372210824389,Ö27K03,2023-01-20_16h11.12.936,t1_Paradigm,2021.1.4,60.02343413028604,
W,right,Target,0,45,45,45,1506.5608589159772,1508.5613779740377,None,0,3,,Ö27K03,2023-01-20_16h11.12.936,t1_Paradigm,2021.1.4,60.02343413028604,
S,right,Target,0,46,46,46,1510.060911367147,1512.0634598203185,right,1,3,1.0217641878812174,Ö27K03,2023-01-20_16h11.12.936,t1_Paradigm,2021.1.4,60.02343413028604,
D,left,Distractor,0,47,47,47,1513.5606096526192,1515.5626849224539,left,1,3,0.6586185933783781,Ö27K03,2023-01-20_16h11.12.936,t1_Paradigm,2021.1.4,60.02343413028604,
T,left,Distractor,0,48,48,48,1517.0605642590992,1519.0616014128134,left,1,3,0.6637212741625262,Ö27K03,2023-01-20_16h11.12.936,t1_Paradigm,2021.1.4,60.02343413028604,
S,right,Target,0,49,49,49,1520.560906394712,1522.5626714487591,right,1,3,1.1146608237881992,Ö27K03,2023-01-20_16h11.12.936,t1_Paradigm,2021.1.4,60.02343413028604,
K,left,Distractor,0,50,50,50,1524.0606194370882,1526.0628031380877,left,1,3,1.1823664620483214,Ö27K03,2023-01-20_16h11.12.936,t1_Paradigm,2021.1.4,60.02343413028604,
S,left,Lure,0,51,51,51,1527.5609044698983,1529.562797524048,right,0,3,1.3785546895674088,Ö27K03,2023-01-20_16h11.12.936,t1_Paradigm,2021.1.4,60.02343413028604,
T,left,Pretarget,0,52,52,52,1531.0609193872035,1533.0620081900818,right,0,3,1.0473703036550432,Ö27K03,2023-01-20_16h11.12.936,t1_Paradigm,2021.1.4,60.02343413028604,
V,left,Distractor,0,53,53,53,1534.5608534623386,1536.5632768026278,left,1,3,0.8580372996793812,Ö27K03,2023-01-20_16h11.12.936,t1_Paradigm,2021.1.4,60.02343413028604,
B,left,Distractor,0,54,54,54,1538.060869983655,1540.0628782058172,left,1,3,0.4465108743947894,Ö27K03,2023-01-20_16h11.12.936,t1_Paradigm,2021.1.4,60.02343413028604,
T,right,Target,0,55,55,55,1541.5609086403276,1543.5609343045087,right,1,3,1.0923015477101217,Ö27K03,2023-01-20_16h11.12.936,t1_Paradigm,2021.1.4,60.02343413028604,
Y,left,Pretarget,0,56,56,56,1545.0606919383997,1547.0628127621555,left,1,3,0.7905235011717195,Ö27K03,2023-01-20_16h11.12.936,t1_Paradigm,2021.1.4,60.02343413028604,
T,left,Lure,0,57,57,57,1548.5609869160796,1550.5616320494294,None,0,3,,Ö27K03,2023-01-20_16h11.12.936,t1_Paradigm,2021.1.4,60.02343413028604,
P,left,Pretarget,0,58,58,58,1552.0610682394533,1554.060082093299,left,1,3,1.3612916782285538,Ö27K03,2023-01-20_16h11.12.936,t1_Paradigm,2021.1.4,60.02343413028604,
Y,right,Target,0,59,59,59,1555.5608823345422,1557.56283184989,right,1,3,1.2023825984019822,Ö27K03,2023-01-20_16h11.12.936,t1_Paradigm,2021.1.4,60.02343413028604,
R,left,Distractor,0,60,60,60,1559.0609434473733,1561.0634748980249,left,1,3,0.9018194300306277,Ö27K03,2023-01-20_16h11.12.936,t1_Paradigm,2021.1.4,60.02343413028604,
P,right,Target,0,61,61,61,1562.5608791265197,1564.5624751177745,right,1,3,0.7310592730300414,Ö27K03,2023-01-20_16h11.12.936,t1_Paradigm,2021.1.4,60.02343413028604,
L,left,Distractor,0,62,62,62,1566.0609707155656,1568.0633619756288,left,1,3,0.6698553342198466,Ö27K03,2023-01-20_16h11.12.936,t1_Paradigm,2021.1.4,60.02343413028604,
V,left,Distractor,0,63,63,63,1569.5610154674812,1571.5630448625923,right,0,3,1.2022366333726495,Ö27K03,2023-01-20_16h11.12.936,t1_Paradigm,2021.1.4,60.02343413028604,
H,left,Lure,0,0,0,0,1579.5256306571475,1581.5292717628247,None,0,3,,Ö27K03,2023-01-20_16h11.12.936,t1_Paradigm,2021.1.4,60.02343413028604,
B,left,Distractor,0,1,1,1,1583.0272582474252,1585.0300030315814,None,0,3,,Ö27K03,2023-01-20_16h11.12.936,t1_Paradigm,2021.1.4,60.02343413028604,
T,left,Distractor,0,2,2,2,1586.5277906187796,1588.5298809663207,None,0,3,,Ö27K03,2023-01-20_16h11.12.936,t1_Paradigm,2021.1.4,60.02343413028604,
R,left,Distractor,0,3,3,3,1590.0273560921153,1592.029039020783,left,1,3,0.6721808298188989,Ö27K03,2023-01-20_16h11.12.936,t1_Paradigm,2021.1.4,60.02343413028604,
H,left,Pretarget,0,4,4,4,1593.5276760923718,1595.5296127756294,left,1,3,0.9637336250493718,Ö27K03,2023-01-20_16h11.12.936,t1_Paradigm,2021.1.4,60.02343413028604,
K,left,Distractor,0,5,5,5,1597.0276149795407,1599.0295968959174,left,1,3,0.7436584610791215,Ö27K03,2023-01-20_16h11.12.936,t1_Paradigm,2021.1.4,60.02343413028604,
G,left,Distractor,0,6,6,6,1600.5273601021433,1602.529270158813,left,1,3,0.8122013932443224,Ö27K03,2023-01-20_16h11.12.936,t1_Paradigm,2021.1.4,60.02343413028604,
H,right,Target,0,7,7,7,1604.02763326527,1606.029404735362,right,1,3,0.9438762858158043,Ö27K03,2023-01-20_16h11.12.936,t1_Paradigm,2021.1.4,60.02343413028604,
Y,left,Pretarget,0,8,8,8,1607.5275496962806,1609.5294010461364,left,1,3,0.819811785312595,Ö27K03,2023-01-20_16h11.12.936,t1_Paradigm,2021.1.4,60.02343413028604,
S,left,Distractor,0,9,9,9,1611.0276409645242,1613.0296976278275,None,0,3,,Ö27K03,2023-01-20_16h11.12.936,t1_Paradigm,2021.1.4,60.02343413028604,
P,left,Distractor,0,10,10,10,1614.5276841124285,1616.5275984582242,None,0,3,,Ö27K03,2023-01-20_16h11.12.936,t1_Paradigm,2021.1.4,60.02343413028604,
Y,right,Target,0,11,11,11,1618.0274324430536,1620.0267212244382,right,1,3,0.9472591456710688,Ö27K03,2023-01-20_16h11.12.936,t1_Paradigm,2021.1.4,60.02343413028604,
H,left,Lure,0,12,12,12,1621.5275195408678,1623.5287825393746,right,0,3,0.9643582270541629,Ö27K03,2023-01-20_16h11.12.936,t1_Paradigm,2021.1.4,60.02343413028604,
Q,left,Distractor,0,13,13,13,1625.0273397311996,1627.0287535067698,left,1,3,0.712626616642865,Ö27K03,2023-01-20_16h11.12.936,t1_Paradigm,2021.1.4,60.02343413028604,
V,left,Pretarget,0,14,14,14,1628.527425545805,1630.5285339176214,left,1,3,0.6046968659220511,Ö27K03,2023-01-20_16h11.12.936,t1_Paradigm,2021.1.4,60.02343413028604,
G,left,Distractor,0,15,15,15,1632.027671119937,1634.0291407151005,left,1,3,1.0562340701626454,Ö27K03,2023-01-20_16h11.12.936,t1_Paradigm,2021.1.4,60.02343413028604,
Z,left,Pretarget,0,16,16,16,1635.5277373656038,1637.528307431224,left,1,3,1.1089566387622654,Ö27K03,2023-01-20_16h11.12.936,t1_Paradigm,2021.1.4,60.02343413028604,
V,right,Target,0,17,17,17,1639.0276409645242,1641.0290409455968,right,1,3,1.016211421522712,Ö27K03,2023-01-20_16h11.12.936,t1_Paradigm,2021.1.4,60.02343413028604,
N,left,Distractor,0,18,18,18,1642.5274287538275,1644.5294482040688,left,1,3,0.731754451532197,Ö27K03,2023-01-20_16h11.12.936,t1_Paradigm,2021.1.4,60.02343413028604,
Z,right,Target,0,19,19,19,1646.0274382174941,1648.0276659871004,right,1,3,0.8015578157855998,Ö27K03,2023-01-20_16h11.12.936,t1_Paradigm,2021.1.4,60.02343413028604,
R,left,Distractor,0,20,20,20,1649.5275532251055,1651.5295649760922,left,1,3,0.7238168411563493,Ö27K03,2023-01-20_16h11.12.936,t1_Paradigm,2021.1.4,60.02343413028604,
P,left,Distractor,0,21,21,21,1653.0276011850435,1655.0292815472933,left,1,3,0.6483019134252572,Ö27K03,2023-01-20_16h11.12.936,t1_Paradigm,2021.1.4,60.02343413028604,
Z,right,Target,0,22,22,22,1656.5276902076714,1658.5297709311446,right,1,3,0.8754847723189414,Ö27K03,2023-01-20_16h11.12.936,t1_Paradigm,2021.1.4,60.02343413028604,
D,left,Pretarget,0,23,23,23,1660.0277279019372,1662.0291522639816,left,1,3,0.6402488142348375,Ö27K03,2023-01-20_16h11.12.936,t1_Paradigm,2021.1.4,60.02343413028604,
K,left,Distractor,0,24,24,24,1663.527608723897,1665.5291437627218,left,1,3,0.9001371429671963,Ö27K03,2023-01-20_16h11.12.936,t1_Paradigm,2021.1.4,60.02343413028604,
W,left,Distractor,0,25,25,25,1667.0274802425909,1669.0296260889234,left,1,3,0.5676300893273947,Ö27K03,2023-01-20_16h11.12.936,t1_Paradigm,2021.1.4,60.02343413028604,
D,right,Target,0,26,26,26,1670.5277649545985,1672.527701114948,right,1,3,1.1817024013653281,Ö27K03,2023-01-20_16h11.12.936,t1_Paradigm,2021.1.4,60.02343413028604,
G,left,Pretarget,0,27,27,27,1674.0272938564765,1676.0290024493254,left,1,3,1.0403951000662346,Ö27K03,2023-01-20_16h11.12.936,t1_Paradigm,2021.1.4,60.02343413028604,
V,left,Distractor,0,28,28,28,1677.5276488241796,1679.5282692557546,left,1,3,0.9493680997438787,Ö27K03,2023-01-20_16h11.12.936,t1_Paradigm,2021.1.4,60.02343413028604,
D,right,Target,0,29,29,29,1681.0273525632904,1683.029570590132,right,1,3,0.8558641851541324,Ö27K03,2023-01-20_16h11.12.936,t1_Paradigm,2021.1.4,60.02343413028604,
G,right,Target,0,30,30,30,1684.5278348894915,1686.5294379383965,right,1,3,0.7481368606609067,Ö27K03,2023-01-20_16h11.12.936,t1_Paradigm,2021.1.4,60.02343413028604,
B,left,Pretarget,0,31,31,31,1688.0276999921405,1690.02839902027,left,1,3,0.6730097828653925,Ö27K03,2023-01-20_16h11.12.936,t1_Paradigm,2021.1.4,60.02343413028604,
N,left,Distractor,0,32,32,32,1691.5277716914459,1693.5295993019342,left,1,3,0.7877713385632887,Ö27K03,2023-01-20_16h11.12.936,t1_Paradigm,2021.1.4,60.02343413028604,
F,left,Distractor,0,33,33,33,1695.027705766581,1697.029816645467,left,1,3,0.7754737046402624,Ö27K03,2023-01-20_16h11.12.936,t1_Paradigm,2021.1.4,60.02343413028604,
B,right,Target,0,34,34,34,1698.527448643568,1700.5287802937585,right,1,3,1.1807348617421667,Ö27K03,2023-01-20_16h11.12.936,t1_Paradigm,2021.1.4,60.02343413028604,
Q,left,Pretarget,0,35,35,35,1702.0277096162083,1704.028285456269,None,0,3,,Ö27K03,2023-01-20_16h11.12.936,t1_Paradigm,2021.1.4,60.02343413028604,
S,left,Pretarget,0,36,36,36,1705.5277091350047,1707.5272487837585,left,1,3,1.4301846056614522,Ö27K03,2023-01-20_16h11.12.936,t1_Paradigm,2021.1.4,60.02343413028604,
W,left,Distractor,0,37,37,37,1709.0276050346708,1711.0297508810033,right,0,3,0.8556713829948421,Ö27K03,2023-01-20_16h11.12.936,t1_Paradigm,2021.1.4,60.02343413028604,
Q,right,Target,0,38,38,38,1712.5277030397617,1714.5275644531846,right,1,3,1.0375175037734152,Ö27K03,2023-01-20_16h11.12.936,t1_Paradigm,2021.1.4,60.02343413028604,
S,right,Target,0,39,39,39,1716.0274603528503,1718.028349937524,right,1,3,0.8328867231170989,Ö27K03,2023-01-20_16h11.12.936,t1_Paradigm,2021.1.4,60.02343413028604,
T,left,Distractor,0,40,40,40,1719.5276356712868,1721.54053031822,left,1,3,1.1608435174684928,Ö27K03,2023-01-20_16h11.12.936,t1_Paradigm,2021.1.4,60.02343413028604,
G,left,Distractor,0,41,41,41,1723.027280061979,1725.0282289950708,left,1,3,0.697278794810245,Ö27K03,2023-01-20_16h11.12.936,t1_Paradigm,2021.1.4,60.02343413028604,
D,left,Distractor,0,42,42,42,1726.5276501073884,1728.5297674023197,left,1,3,1.0995061249172977,Ö27K03,2023-01-20_16h11.12.936,t1_Paradigm,2021.1.4,60.02343413028604,
S,left,Lure,0,43,43,43,1730.027684914434,1732.0295519836006,right,0,3,1.2639981265151619,Ö27K03,2023-01-20_16h11.12.936,t1_Paradigm,2021.1.4,60.02343413028604,
Z,left,Pretarget,0,44,44,44,1733.5275721524388,1735.5292916525648,left,1,3,0.7721534012257507,Ö27K03,2023-01-20_16h11.12.936,t1_Paradigm,2021.1.4,60.02343413028604,
J,left,Distractor,0,45,45,45,1737.0277096162083,1739.0279832605381,left,1,3,0.7295771665781103,Ö27K03,2023-01-20_16h11.12.936,t1_Paradigm,2021.1.4,60.02343413028604,
M,left,Pretarget,0,46,46,46,1740.5266751893134,1742.5280883232788,left,1,3,0.8771670593819181,Ö27K03,2023-01-20_16h11.12.936,t1_Paradigm,2021.1.4,60.02343413028604,
Z,right,Target,0,47,47,47,1744.0278533356216,1746.028436874937,right,1,3,0.513016712193803,Ö27K03,2023-01-20_16h11.12.936,t1_Paradigm,2021.1.4,60.02343413028604,
P,left,Distractor,0,48,48,48,1747.5276988693324,1749.5286689753736,left,1,3,1.0606377228173187,Ö27K03,2023-01-20_16h11.12.936,t1_Paradigm,2021.1.4,60.02343413028604,
M,right,Target,0,49,49,49,1751.0277256563215,1753.0292042339481,right,1,3,0.8401439118947565,Ö27K03,2023-01-20_16h11.12.936,t1_Paradigm,2021.1.4,60.02343413028604,
K,left,Distractor,0,50,50,50,1754.5277511601014,1756.5296949010083,left,1,3,0.6356305448666717,Ö27K03,2023-01-20_16h11.12.936,t1_Paradigm,2021.1.4,60.02343413028604,
Y,left,Distractor,0,51,51,51,1758.0277586989544,1760.0295099585044,left,1,3,0.7198510835896741,Ö27K03,2023-01-20_16h11.12.936,t1_Paradigm,2021.1.4,60.02343413028604,
X,left,Distractor,0,52,52,52,1761.5276254056146,1763.5278031300675,left,1,3,0.7576245875684435,Ö27K03,2023-01-20_16h11.12.936,t1_Paradigm,2021.1.4,60.02343413028604,
F,left,Pretarget,0,53,53,53,1765.0278068192936,1767.0297053270822,left,1,3,0.7118874882307864,Ö27K03,2023-01-20_16h11.12.936,t1_Paradigm,2021.1.4,60.02343413028604,
M,left,Lure,0,54,54,54,1768.5277267791291,1770.529134138654,left,1,3,1.180393848937456,Ö27K03,2023-01-20_16h11.12.936,t1_Paradigm,2021.1.4,60.02343413028604,
V,left,Distractor,0,55,55,55,1772.0275030195514,1774.029364314277,left,1,3,1.0241345957974772,Ö27K03,2023-01-20_16h11.12.936,t1_Paradigm,2021.1.4,60.02343413028604,
F,right,Target,0,56,56,56,1775.527448643568,1777.5277723330503,right,1,3,0.7576961264730926,Ö27K03,2023-01-20_16h11.12.936,t1_Paradigm,2021.1.4,60.02343413028604,
S,left,Distractor,0,57,57,57,1779.0277500372933,1781.0295519836006,left,1,3,0.7918596425943178,Ö27K03,2023-01-20_16h11.12.936,t1_Paradigm,2021.1.4,60.02343413028604,
D,left,Distractor,0,58,58,58,1782.527484252619,1784.5280331452898,left,1,3,0.7495050823099518,Ö27K03,2023-01-20_16h11.12.936,t1_Paradigm,2021.1.4,60.02343413028604,
F,right,Target,0,59,59,59,1786.0274866586358,1788.029335121271,right,1,3,0.8645030692755427,Ö27K03,2023-01-20_16h11.12.936,t1_Paradigm,2021.1.4,60.02343413028604,
V,left,Pretarget,0,60,60,60,1789.527530448145,1791.527738969615,right,0,3,1.1577705525978672,Ö27K03,2023-01-20_16h11.12.936,t1_Paradigm,2021.1.4,60.02343413028604,
J,left,Distractor,0,61,61,61,1793.0276589294506,1795.029390940865,left,1,3,0.7442612485301652,Ö27K03,2023-01-20_16h11.12.936,t1_Paradigm,2021.1.4,60.02343413028604,
V,left,Lure,0,62,62,62,1796.5275237112971,1798.5294693770181,right,0,3,0.6997682203655131,Ö27K03,2023-01-20_16h11.12.936,t1_Paradigm,2021.1.4,60.02343413028604,
V,right,Target,0,63,63,63,1800.0272893652448,1802.027444312737,right,1,3,1.250194967574771,Ö27K03,2023-01-20_16h11.12.936,t1_Paradigm,2021.1.4,60.02343413028604,
R,left,Distractor,0,0,0,0,1897.517902851451,1899.5125011829584,left,1,4,0.7250945965670326,Ö27K03,2023-01-20_16h11.12.936,t1_Paradigm,2021.1.4,60.02343413028604,
F,left,Distractor,0,1,1,1,1901.0111623147166,1903.0122331526684,left,1,4,0.5529966941326165,Ö27K03,2023-01-20_16h11.12.936,t1_Paradigm,2021.1.4,60.02343413028604,
P,left,Pretarget,0,2,2,2,1904.5110360790266,1906.5130420555727,left,1,4,0.7324586124982488,Ö27K03,2023-01-20_16h11.12.936,t1_Paradigm,2021.1.4,60.02343413028604,
H,left,Distractor,0,3,3,3,1908.0111841292703,1910.0117795382691,left,1,4,0.6256741258539478,Ö27K03,2023-01-20_16h11.12.936,t1_Paradigm,2021.1.4,60.02343413028604,
Z,left,Distractor,0,4,4,4,1911.511328971492,1913.5123327617705,left,1,4,0.7732559986011438,Ö27K03,2023-01-20_16h11.12.936,t1_Paradigm,2021.1.4,60.02343413028604,
T,left,Distractor,0,5,5,5,1915.0115270668887,1917.0131211333303,None,0,4,,Ö27K03,2023-01-20_16h11.12.936,t1_Paradigm,2021.1.4,60.02343413028604,
P,right,Target,0,6,6,6,1918.5107342040976,1920.5119510070783,right,1,4,0.701542577678083,Ö27K03,2023-01-20_16h11.12.936,t1_Paradigm,2021.1.4,60.02343413028604,
G,left,Distractor,0,7,7,7,1922.011182204457,1924.012415047551,left,1,4,0.6731156476116666,Ö27K03,2023-01-20_16h11.12.936,t1_Paradigm,2021.1.4,60.02343413028604,
L,left,Distractor,0,8,8,8,1925.5116257135844,1927.5115445506124,left,1,4,0.6301586206786851,Ö27K03,2023-01-20_16h11.12.936,t1_Paradigm,2021.1.4,60.02343413028604,
P,left,Lure,0,9,9,9,1929.0113233574523,1931.0132071083365,right,0,4,0.9523332750545705,Ö27K03,2023-01-20_16h11.12.936,t1_Paradigm,2021.1.4,60.02343413028604,
Q,left,Pretarget,0,10,10,10,1932.5115224152562,1934.5109748057941,left,1,4,0.7667815673435143,Ö27K03,2023-01-20_16h11.12.936,t1_Paradigm,2021.1.4,60.02343413028604,
D,left,Distractor,0,11,11,11,1936.0112267959714,1938.0117968615916,left,1,4,0.8978976223738755,Ö27K03,2023-01-20_16h11.12.936,t1_Paradigm,2021.1.4,60.02343413028604,
M,left,Pretarget,0,12,12,12,1939.5113940943513,1941.512982707154,left,1,4,1.1726567399755368,Ö27K03,2023-01-20_16h11.12.936,t1_Paradigm,2021.1.4,60.02343413028604,
C,left,Distractor,0,13,13,13,1943.0109322994947,1945.0128519802322,left,1,4,1.1608890713896471,Ö27K03,2023-01-20_16h11.12.936,t1_Paradigm,2021.1.4,60.02343413028604,
Q,right,Target,0,14,14,14,1946.5112308059995,1948.5114534427696,right,1,4,0.830243954080288,Ö27K03,2023-01-20_16h11.12.936,t1_Paradigm,2021.1.4,60.02343413028604,
R,left,Distractor,0,15,15,15,1950.010915617777,1952.0124275588394,left,1,4,0.9292913317626699,Ö27K03,2023-01-20_16h11.12.936,t1_Paradigm,2021.1.4,60.02343413028604,
M,right,Target,0,16,16,16,1953.5112638486328,1955.5129480605099,right,1,4,1.0447692389125223,Ö27K03,2023-01-20_16h11.12.936,t1_Paradigm,2021.1.4,60.02343413028604,
S,left,Distractor,0,17,17,17,1957.0110240489414,1959.0131047724146,left,1,4,0.7286561432833878,Ö27K03,2023-01-20_16h11.12.936,t1_Paradigm,2021.1.4,60.02343413028604,
Z,left,Distractor,0,18,18,18,1960.5112744351075,1962.5132393489637,left,1,4,0.6363125704760932,Ö27K03,2023-01-20_16h11.12.936,t1_Paradigm,2021.1.4,60.02343413028604,
L,left,Pretarget,0,19,19,19,1964.0111607107053,1966.0129241607412,left,1,4,0.8006015042415129,Ö27K03,2023-01-20_16h11.12.936,t1_Paradigm,2021.1.4,60.02343413028604,
M,right,Target,0,20,20,20,1967.5112856631865,1969.5129211131195,right,1,4,0.708838262727113,Ö27K03,2023-01-20_16h11.12.936,t1_Paradigm,2021.1.4,60.02343413028604,
P,left,Distractor,0,21,21,21,1971.0108443996749,1973.0125501053033,left,1,4,1.1131389378556378,Ö27K03,2023-01-20_16h11.12.936,t1_Paradigm,2021.1.4,60.02343413028604,
F,left,Distractor,0,22,22,22,1974.5113222346442,1976.5126500352083,left,1,4,0.6688958146532968,Ö27K03,2023-01-20_16h11.12.936,t1_Paradigm,2021.1.4,60.02343413028604,
L,right,Target,0,23,23,23,1978.011205623022,1980.0136193392434,right,1,4,1.0880024765938288,Ö27K03,2023-01-20_16h11.12.936,t1_Paradigm,2021.1.4,60.02343413028604,
L,left,Lure,0,24,24,24,1981.5114165505095,1983.5104117978242,left,1,4,1.1752263660964672,Ö27K03,2023-01-20_16h11.12.936,t1_Paradigm,2021.1.4,60.02343413028604,
V,left,Pretarget,0,25,25,25,1985.0111151567842,1987.0129918500186,None,0,4,,Ö27K03,2023-01-20_16h11.12.936,t1_Paradigm,2021.1.4,60.02343413028604,
Z,left,Distractor,0,26,26,26,1988.5113950567581,1990.5102427350319,None,0,4,,Ö27K03,2023-01-20_16h11.12.936,t1_Paradigm,2021.1.4,60.02343413028604,
H,left,Distractor,0,27,27,27,1992.0112909564239,1994.0120631274692,left,1,4,1.345581670642332,Ö27K03,2023-01-20_16h11.12.936,t1_Paradigm,2021.1.4,60.02343413028604,
X,left,Distractor,0,28,28,28,1995.5112365804405,1997.5127732232766,left,1,4,0.9328807882752699,Ö27K03,2023-01-20_16h11.12.936,t1_Paradigm,2021.1.4,60.02343413028604,
V,right,Target,0,29,29,29,1999.0112893524126,2001.0116823351839,right,1,4,0.9860091717364412,Ö27K03,2023-01-20_16h11.12.936,t1_Paradigm,2021.1.4,60.02343413028604,
C,left,Distractor,0,30,30,30,2002.510990204303,2004.5119301549314,left,1,4,0.9577282066993575,Ö27K03,2023-01-20_16h11.12.936,t1_Paradigm,2021.1.4,60.02343413028604,
S,left,Pretarget,0,31,31,31,2006.0109541140484,2008.0274359718785,left,1,4,0.9461485282395188,Ö27K03,2023-01-20_16h11.12.936,t1_Paradigm,2021.1.4,60.02343413028604,
D,left,Distractor,0,32,32,32,2009.5111804400447,2011.5126160301681,left,1,4,0.7570875645815249,Ö27K03,2023-01-20_16h11.12.936,t1_Paradigm,2021.1.4,60.02343413028604,
V,left,Distractor,0,33,33,33,2013.0112219839373,2015.0113701945827,right,0,4,0.8104190158751408,Ö27K03,2023-01-20_16h11.12.936,t1_Paradigm,2021.1.4,60.02343413028604,
R,left,Distractor,0,34,34,34,2016.5111862144852,2018.5237388862067,left,1,4,1.025830035753188,Ö27K03,2023-01-20_16h11.12.936,t1_Paradigm,2021.1.4,60.02343413028604,
S,right,Target,0,35,35,35,2020.0112835779717,2022.0128096343335,right,1,4,0.7528199320863678,Ö27K03,2023-01-20_16h11.12.936,t1_Paradigm,2021.1.4,60.02343413028604,
Y,left,Distractor,0,36,36,36,2023.511227597977,2025.512831288486,left,1,4,0.90067224114091,Ö27K03,2023-01-20_16h11.12.936,t1_Paradigm,2021.1.4,60.02343413028604,
N,left,Pretarget,0,37,37,37,2027.0109964599471,2029.0124753583762,left,1,4,0.9531208446082928,Ö27K03,2023-01-20_16h11.12.936,t1_Paradigm,2021.1.4,60.02343413028604,
Z,left,Pretarget,0,38,38,38,2030.511305873729,2032.5125236391166,None,0,4,,Ö27K03,2023-01-20_16h11.12.936,t1_Paradigm,2021.1.4,60.02343413028604,
P,left,Pretarget,0,39,39,39,2034.0110420138683,2036.0131923514325,left,1,4,1.0405224585642827,Ö27K03,2023-01-20_16h11.12.936,t1_Paradigm,2021.1.4,60.02343413028604,
M,left,Distractor,0,40,40,40,2037.511324159458,2039.5111499638294,None,0,4,,Ö27K03,2023-01-20_16h11.12.936,t1_Paradigm,2021.1.4,60.02343413028604,
N,right,Target,0,41,41,41,2041.0112168511012,2043.011594435364,right,1,4,0.9540431511122733,Ö27K03,2023-01-20_16h11.12.936,t1_Paradigm,2021.1.4,60.02343413028604,
Z,right,Target,0,42,42,42,2044.5112067458301,2046.5129669878431,right,1,4,0.9886512991688505,Ö27K03,2023-01-20_16h11.12.936,t1_Paradigm,2021.1.4,60.02343413028604,
P,right,Target,0,43,43,43,2048.0113381143565,2050.012880210831,left,0,4,1.3611498836289684,Ö27K03,2023-01-20_16h11.12.936,t1_Paradigm,2021.1.4,60.02343413028604,
X,left,Pretarget,0,44,44,44,2051.5112391468583,2053.5126891730843,left,1,4,0.9649860370818715,Ö27K03,2023-01-20_16h11.12.936,t1_Paradigm,2021.1.4,60.02343413028604,
Z,left,Lure,0,45,45,45,2055.0111145151795,2057.012761834796,left,1,4,1.2409898674604847,Ö27K03,2023-01-20_16h11.12.936,t1_Paradigm,2021.1.4,60.02343413028604,
R,left,Pretarget,0,46,46,46,2058.5113495028363,2060.5125967820322,left,1,4,1.2451192341809474,Ö27K03,2023-01-20_16h11.12.936,t1_Paradigm,2021.1.4,60.02343413028604,
K,left,Distractor,0,47,47,47,2062.0112232671463,2064.0120868668364,left,1,4,1.153539491560423,Ö27K03,2023-01-20_16h11.12.936,t1_Paradigm,2021.1.4,60.02343413028604,
X,right,Target,0,48,48,48,2065.5113267258757,2067.512767448836,right,1,4,1.1089957766384941,Ö27K03,2023-01-20_16h11.12.936,t1_Paradigm,2021.1.4,60.02343413028604,
B,left,Distractor,0,49,49,49,2069.011108419936,2071.013206787534,left,1,4,0.7445608778434689,Ö27K03,2023-01-20_16h11.12.936,t1_Paradigm,2021.1.4,60.02343413028604,
R,right,Target,0,50,50,50,2072.510946895997,2074.5118999995184,left,0,4,0.9738340842782236,Ö27K03,2023-01-20_16h11.12.936,t1_Paradigm,2021.1.4,60.02343413028604,
Y,left,Pretarget,0,51,51,51,2076.011055808365,2078.012081413198,left,1,4,1.329744304556698,Ö27K03,2023-01-20_16h11.12.936,t1_Paradigm,2021.1.4,60.02343413028604,
W,left,Pretarget,0,52,52,52,2079.511358806102,2081.5125993484507,left,1,4,0.9009798905103708,Ö27K03,2023-01-20_16h11.12.936,t1_Paradigm,2021.1.4,60.02343413028604,
Z,left,Distractor,0,53,53,53,2083.011026936162,2085.011460340018,left,1,4,0.9541881537347763,Ö27K03,2023-01-20_16h11.12.936,t1_Paradigm,2021.1.4,60.02343413028604,
Q,left,Distractor,0,54,54,54,2086.511277963932,2088.5130869678896,left,1,4,0.86107818432356,Ö27K03,2023-01-20_16h11.12.936,t1_Paradigm,2021.1.4,60.02343413028604,
Y,right,Target,0,55,55,55,2090.011270745881,2092.012950145724,right,1,4,0.6085952550138245,Ö27K03,2023-01-20_16h11.12.936,t1_Paradigm,2021.1.4,60.02343413028604,
W,right,Target,0,56,56,56,2093.511180440045,2095.512767448836,right,1,4,0.6130146269788384,Ö27K03,2023-01-20_16h11.12.936,t1_Paradigm,2021.1.4,60.02343413028604,
H,left,Pretarget,0,57,57,57,2097.0111340841177,2099.0128054639044,left,1,4,0.7928040844544739,Ö27K03,2023-01-20_16h11.12.936,t1_Paradigm,2021.1.4,60.02343413028604,
M,left,Distractor,0,58,58,58,2100.5111028058973,2102.5113764502266,left,1,4,0.766438629725144,Ö27K03,2023-01-20_16h11.12.936,t1_Paradigm,2021.1.4,60.02343413028604,
R,left,Pretarget,0,59,59,59,2104.0112543849664,2106.0123178444655,left,1,4,1.3294966452103836,Ö27K03,2023-01-20_16h11.12.936,t1_Paradigm,2021.1.4,60.02343413028604,
J,left,Distractor,0,60,60,60,2107.51109478584,2109.512587799569,left,1,4,0.7411837924278188,Ö27K03,2023-01-20_16h11.12.936,t1_Paradigm,2021.1.4,60.02343413028604,
H,right,Target,0,61,61,61,2111.011349342436,2113.013062105714,left,0,4,0.48867038690332265,Ö27K03,2023-01-20_16h11.12.936,t1_Paradigm,2021.1.4,60.02343413028604,
Z,left,Distractor,0,62,62,62,2114.511172419988,2116.524138605825,left,1,4,0.7054785006343991,Ö27K03,2023-01-20_16h11.12.936,t1_Paradigm,2021.1.4,60.02343413028604,
R,right,Target,0,63,63,63,2118.0110532419476,2120.0131143964827,None,0,4,,Ö27K03,2023-01-20_16h11.12.936,t1_Paradigm,2021.1.4,60.02343413028604,
J,left,Pretarget,0,0,0,0,2132.0547869311577,2134.0466687091075,left,1,4,1.3751990979039874,Ö27K03,2023-01-20_16h11.12.936,t1_Paradigm,2021.1.4,60.02343413028604,
G,left,Pretarget,0,1,1,1,2135.5447036348496,2137.5454331391948,left,1,4,0.7082961069040721,Ö27K03,2023-01-20_16h11.12.936,t1_Paradigm,2021.1.4,60.02343413028604,
Z,left,Distractor,0,2,2,2,2139.0446056297587,2141.0461191748327,left,1,4,1.0316651081025157,Ö27K03,2023-01-20_16h11.12.936,t1_Paradigm,2021.1.4,60.02343413028604,
F,left,Distractor,0,3,3,3,2142.5443449779204,2144.5465620423556,left,1,4,0.5871262052141901,Ö27K03,2023-01-20_16h11.12.936,t1_Paradigm,2021.1.4,60.02343413028604,
J,right,Target,0,4,4,4,2146.044637709985,2148.0464640372647,None,0,4,,Ö27K03,2023-01-20_16h11.12.936,t1_Paradigm,2021.1.4,60.02343413028604,
G,right,Target,0,5,5,5,2149.5444675243853,2151.5465825737,right,1,4,0.8350367398788876,Ö27K03,2023-01-20_16h11.12.936,t1_Paradigm,2021.1.4,60.02343413028604,
H,left,Distractor,0,6,6,6,2153.0445764367532,2155.046971225641,left,1,4,0.5504950780909894,Ö27K03,2023-01-20_16h11.12.936,t1_Paradigm,2021.1.4,60.02343413028604,
P,left,Distractor,0,7,7,7,2156.5446834243076,2158.5437829323573,left,1,4,0.6538874016137015,Ö27K03,2023-01-20_16h11.12.936,t1_Paradigm,2021.1.4,60.02343413028604,
G,left,Lure,0,8,8,8,2160.044216817417,2162.046562844361,right,0,4,1.119160075516902,Ö27K03,2023-01-20_16h11.12.936,t1_Paradigm,2021.1.4,60.02343413028604,
S,left,Distractor,0,9,9,9,2163.5445493289617,2165.5463839971,left,1,4,0.6433070222010429,Ö27K03,2023-01-20_16h11.12.936,t1_Paradigm,2021.1.4,60.02343413028604,
R,left,Pretarget,0,10,10,10,2167.0446409180076,2169.0452267029386,left,1,4,0.8405291954118184,Ö27K03,2023-01-20_16h11.12.936,t1_Paradigm,2021.1.4,60.02343413028604,
T,left,Pretarget,0,11,11,11,2170.5443392034804,2172.5468613508665,left,1,4,0.6667942390326971,Ö27K03,2023-01-20_16h11.12.936,t1_Paradigm,2021.1.4,60.02343413028604,
X,left,Distractor,0,12,12,12,2174.044454211091,2176.046506703965,left,1,4,0.7991556484453213,Ö27K03,2023-01-20_16h11.12.936,t1_Paradigm,2021.1.4,60.02343413028604,
F,left,Pretarget,0,13,13,13,2177.544408175966,2179.546068327674,left,1,4,0.867578279762256,Ö27K03,2023-01-20_16h11.12.936,t1_Paradigm,2021.1.4,60.02343413028604,
R,right,Target,0,14,14,14,2181.0444468326386,2183.0450505824965,None,0,4,,Ö27K03,2023-01-20_16h11.12.936,t1_Paradigm,2021.1.4,60.02343413028604,
T,right,Target,0,15,15,15,2184.5447822314045,2186.546783716719,right,1,4,1.1148157712809734,Ö27K03,2023-01-20_16h11.12.936,t1_Paradigm,2021.1.4,60.02343413028604,
C,left,Distractor,0,16,16,16,2188.044664336573,2190.0471511957103,left,1,4,0.7185425311622566,Ö27K03,2023-01-20_16h11.12.936,t1_Paradigm,2021.1.4,60.02343413028604,
F,right,Target,0,17,17,17,2191.5446430032225,2193.545906643334,right,1,4,0.851788713213864,Ö27K03,2023-01-20_16h11.12.936,t1_Paradigm,2021.1.4,60.02343413028604,
M,left,Distractor,0,18,18,18,2195.044807735184,2197.0465971702033,left,1,4,0.8392113397185312,Ö27K03,2023-01-20_16h11.12.936,t1_Paradigm,2021.1.4,60.02343413028604,
N,left,Distractor,0,19,19,19,2198.544422612068,2200.543881418652,left,1,4,0.5898113201496926,Ö27K03,2023-01-20_16h11.12.936,t1_Paradigm,2021.1.4,60.02343413028604,
R,left,Lure,0,20,20,20,2202.0444654391704,2204.0464271450046,left,1,4,0.9432882552687261,Ö27K03,2023-01-20_16h11.12.936,t1_Paradigm,2021.1.4,60.02343413028604,
F,right,Target,0,21,21,21,2205.544743735133,2207.5462149343075,right,1,4,0.8675214977615724,Ö27K03,2023-01-20_16h11.12.936,t1_Paradigm,2021.1.4,60.02343413028604,
P,left,Distractor,0,22,22,22,2209.044772446935,2211.0466767291646,left,1,4,0.6629494239191445,Ö27K03,2023-01-20_16h11.12.936,t1_Paradigm,2021.1.4,60.02343413028604,
L,left,Pretarget,0,23,23,23,2212.5447180709516,2214.5464471951454,left,1,4,1.0830704626127954,Ö27K03,2023-01-20_16h11.12.936,t1_Paradigm,2021.1.4,60.02343413028604,
T,left,Distractor,0,24,24,24,2216.0444445870235,2218.047344960277,left,1,4,1.2465891501465194,Ö27K03,2023-01-20_16h11.12.936,t1_Paradigm,2021.1.4,60.02343413028604,
F,left,Distractor,0,25,25,25,2219.544653589697,2221.546045229911,right,0,4,0.9638183168467549,Ö27K03,2023-01-20_16h11.12.936,t1_Paradigm,2021.1.4,60.02343413028604,
V,left,Distractor,0,26,26,26,2223.0443823513842,2225.05751695841,left,1,4,0.6683850974518464,Ö27K03,2023-01-20_16h11.12.936,t1_Paradigm,2021.1.4,60.02343413028604,
L,right,Target,0,27,27,27,2226.5444819604872,2228.5459146633902,right,1,4,1.196022693552095,Ö27K03,2023-01-20_16h11.12.936,t1_Paradigm,2021.1.4,60.02343413028604,
S,left,Pretarget,0,28,28,28,2230.0446755646517,2232.046594924587,left,1,4,0.7031263784474504,Ö27K03,2023-01-20_16h11.12.936,t1_Paradigm,2021.1.4,60.02343413028604,
W,left,Distractor,0,29,29,29,2233.544770361721,2235.545748487818,left,1,4,0.9160046644651629,Ö27K03,2023-01-20_16h11.12.936,t1_Paradigm,2021.1.4,60.02343413028604,
Q,left,Distractor,0,30,30,30,2237.0444141108082,2239.0468528496067,left,1,4,0.7909944388929944,Ö27K03,2023-01-20_16h11.12.936,t1_Paradigm,2021.1.4,60.02343413028604,
L,right,Target,0,31,31,31,2240.5444819604872,2242.5455961067437,right,1,4,1.019900968341517,Ö27K03,2023-01-20_16h11.12.936,t1_Paradigm,2021.1.4,60.02343413028604,
S,right,Target,0,32,32,32,2244.044696095997,2246.04657824287,None,0,4,,Ö27K03,2023-01-20_16h11.12.936,t1_Paradigm,2021.1.4,60.02343413028604,
Z,left,Pretarget,0,33,33,33,2247.54447394043,2249.546030793809,left,1,4,0.6758565821405682,Ö27K03,2023-01-20_16h11.12.936,t1_Paradigm,2021.1.4,60.02343413028604,
F,left,Distractor,0,34,34,34,2251.044372727317,2253.043940606669,left,1,4,0.6657108897929902,Ö27K03,2023-01-20_16h11.12.936,t1_Paradigm,2021.1.4,60.02343413028604,
V,left,Distractor,0,35,35,35,2254.5445576698203,2256.5472658825192,left,1,4,1.1143996907467226,Ö27K03,2023-01-20_16h11.12.936,t1_Paradigm,2021.1.4,60.02343413028604,
M,left,Distractor,0,36,36,36,2258.0445283164136,2260.0467611001595,left,1,4,1.0390910388700831,Ö27K03,2023-01-20_16h11.12.936,t1_Paradigm,2021.1.4,60.02343413028604,
Z,right,Target,0,37,37,37,2261.5446240758893,2263.545522643026,right,1,4,0.7722438674636578,Ö27K03,2023-01-20_16h11.12.936,t1_Paradigm,2021.1.4,60.02343413028604,
H,left,Pretarget,0,38,38,38,2265.044483083295,2267.045840076864,left,1,4,1.096138342767972,Ö27K03,2023-01-20_16h11.12.936,t1_Paradigm,2021.1.4,60.02343413028604,
L,left,Distractor,0,39,39,39,2268.544809178794,2270.545398813352,left,1,4,0.8765074899306455,Ö27K03,2023-01-20_16h11.12.936,t1_Paradigm,2021.1.4,60.02343413028604,
G,left,Distractor,0,40,40,40,2272.044789770257,2274.045183073831,left,1,4,0.6887008631183562,Ö27K03,2023-01-20_16h11.12.936,t1_Paradigm,2021.1.4,60.02343413028604,
K,left,Distractor,0,41,41,41,2275.544847675066,2277.544421970464,left,1,4,0.6935366364205038,Ö27K03,2023-01-20_16h11.12.936,t1_Paradigm,2021.1.4,60.02343413028604,
H,right,Target,0,42,42,42,2279.0448183216586,2281.0467611001595,right,1,4,0.8071365671271451,Ö27K03,2023-01-20_16h11.12.936,t1_Paradigm,2021.1.4,60.02343413028604,
B,left,Distractor,0,43,43,43,2282.5448146324325,2284.54537860281,left,1,4,0.7805657989497377,Ö27K03,2023-01-20_16h11.12.936,t1_Paradigm,2021.1.4,60.02343413028604,
Z,left,Distractor,0,44,44,44,2286.0447454995456,2288.046402122428,left,1,4,1.1673596530204122,Ö27K03,2023-01-20_16h11.12.936,t1_Paradigm,2021.1.4,60.02343413028604,
T,left,Pretarget,0,45,45,45,2289.5448335597666,2291.561038244442,left,1,4,1.3809395335856607,Ö27K03,2023-01-20_16h11.12.936,t1_Paradigm,2021.1.4,60.02343413028604,
H,right,Target,0,46,46,46,2293.044761539659,2295.0466722379324,right,1,4,0.8871860348358496,Ö27K03,2023-01-20_16h11.12.936,t1_Paradigm,2021.1.4,60.02343413028604,
F,left,Distractor,0,47,47,47,2296.5446798954827,2298.546372448219,right,0,4,1.019275083127468,Ö27K03,2023-01-20_16h11.12.936,t1_Paradigm,2021.1.4,60.02343413028604,
R,left,Distractor,0,48,48,48,2300.044848156269,2302.046720358272,left,1,4,0.6869874582357625,Ö27K03,2023-01-20_16h11.12.936,t1_Paradigm,2021.1.4,60.02343413028604,
T,right,Target,0,49,49,49,2303.5446041861487,2305.5466602078477,right,1,4,0.9631808827516579,Ö27K03,2023-01-20_16h11.12.936,t1_Paradigm,2021.1.4,60.02343413028604,
H,right,Target,0,50,50,50,2307.0443983914975,2309.0472313962755,right,1,4,1.3665525145283937,Ö27K03,2023-01-20_16h11.12.936,t1_Paradigm,2021.1.4,60.02343413028604,
Y,left,Pretarget,0,51,51,51,2310.544841900625,2312.5467667141993,left,1,4,0.6990278087441766,Ö27K03,2023-01-20_16h11.12.936,t1_Paradigm,2021.1.4,60.02343413028604,
H,left,Distractor,0,52,52,52,2314.0448542515123,2316.0454717958673,left,1,4,1.2324382415545188,Ö27K03,2023-01-20_16h11.12.936,t1_Paradigm,2021.1.4,60.02343413028604,
S,left,Distractor,0,53,53,53,2317.544545800137,2319.5449018906484,left,1,4,0.7089784533159218,Ö27K03,2023-01-20_16h11.12.936,t1_Paradigm,2021.1.4,60.02343413028604,
Q,left,Distractor,0,54,54,54,2321.0448183216586,2323.0450031037617,right,0,4,1.0167879031882876,Ö27K03,2023-01-20_16h11.12.936,t1_Paradigm,2021.1.4,60.02343413028604,
Y,right,Target,0,55,55,55,2324.544422612068,2326.546658924639,left,0,4,0.7150682426613457,Ö27K03,2023-01-20_16h11.12.936,t1_Paradigm,2021.1.4,60.02343413028604,
R,left,Distractor,0,56,56,56,2328.044712456912,2330.046600699028,left,1,4,0.6552758338052627,Ö27K03,2023-01-20_16h11.12.936,t1_Paradigm,2021.1.4,60.02343413028604,
H,left,Pretarget,0,57,57,57,2331.544399514305,2333.5466534710004,left,1,4,0.6913202135901884,Ö27K03,2023-01-20_16h11.12.936,t1_Paradigm,2021.1.4,60.02343413028604,
J,left,Distractor,0,58,58,58,2335.044720476969,2337.0453486077986,left,1,4,0.8566710028439957,Ö27K03,2023-01-20_16h11.12.936,t1_Paradigm,2021.1.4,60.02343413028604,
V,left,Distractor,0,59,59,59,2338.5447677953025,2340.547163225795,left,1,4,0.7788523940666892,Ö27K03,2023-01-20_16h11.12.936,t1_Paradigm,2021.1.4,60.02343413028604,
Y,left,Lure,0,60,60,60,2342.044732667455,2344.045447094093,right,0,4,1.0405044936378545,Ö27K03,2023-01-20_16h11.12.936,t1_Paradigm,2021.1.4,60.02343413028604,
H,right,Target,0,61,61,61,2345.5447880058455,2347.546835045081,right,1,4,0.9148882725917247,Ö27K03,2023-01-20_16h11.12.936,t1_Paradigm,2021.1.4,60.02343413028604,
L,left,Distractor,0,62,62,62,2349.044786241433,2351.0465452002363,left,1,4,0.7592690199649041,Ö27K03,2023-01-20_16h11.12.936,t1_Paradigm,2021.1.4,60.02343413028604,
P,left,Distractor,0,63,63,63,2352.5447065220706,2354.5466967793054,left,1,4,0.7475433764757327,Ö27K03,2023-01-20_16h11.12.936,t1_Paradigm,2021.1.4,60.02343413028604,
