Block,conds_view_File,n_reps,instr_1,TriggerBlockView,ImageFile,Trigger,conds_reg_File,TriggerBlockReg,instr_2,blocks_view.thisRepN,blocks_view.thisTrialN,blocks_view.thisN,blocks_view.thisIndex,trials_view.thisRepN,trials_view.thisTrialN,trials_view.thisN,trials_view.thisIndex,blocks_reg.thisRepN,blocks_reg.thisTrialN,blocks_reg.thisN,blocks_reg.thisIndex,trials_reg.thisRepN,trials_reg.thisTrialN,trials_reg.thisN,trials_reg.thisIndex,trials_choice.thisRepN,trials_choice.thisTrialN,trials_choice.thisN,trials_choice.thisIndex,Fix_jitter,image_view.started,image_view.lasted,image_view.stopped,slider_arousal.response,slider_arousal.rt,slider_effort.response,slider_effort.rt,image_reg.started,image_reg.lasted,image_reg.stopped,resp_choice.keys,resp_choice.rt,key_resp.keys,key_resp.rt,image.started,image.lased,image.stopped,participant,date,expName,psychopyVersion,frameRate,
,,,,,,,,,,,,,,,,,,,,,,,,,,,,,,,,,,,,,,,,,,,,,,,,C02N10,2021_Oct_08_1401,ER_paradigm,2021.1.4,60.07228665887701,
1,StimuliNeutral.xlsx,1,ANSCHAUEN,21,Stimuli/7002.jpg,1,,,,0,0,0,0,0,0,0,6,,,,,,,,,,,,,4.6,102.38803093950264,6.032232329947874,None,,,,,,,,,,,,,,,C02N10,2021_Oct_08_1401,ER_paradigm,2021.1.4,60.07228665887701,
1,StimuliNeutral.xlsx,1,ANSCHAUEN,21,Stimuli/107.jpg,1,,,,0,0,0,0,0,1,1,1,,,,,,,,,,,,,3.4,111.83589723682962,6.008000931702554,None,,,,,,,,,,,,,,,C02N10,2021_Oct_08_1401,ER_paradigm,2021.1.4,60.07228665887701,
1,StimuliNeutral.xlsx,1,ANSCHAUEN,21,Stimuli/7000.jpg,1,,,,0,0,0,0,0,2,2,5,,,,,,,,,,,,,4.6,122.51410454360303,6.002135001821443,None,,,,,,,,,,,,,,,C02N10,2021_Oct_08_1401,ER_paradigm,2021.1.4,60.07228665887701,
1,StimuliNeutral.xlsx,1,ANSCHAUEN,21,Stimuli/7185.jpg,1,,,,0,0,0,0,0,3,3,15,,,,,,,,,,,,,3.0,131.56704169500154,6.012370576383546,None,,,,,,,,,,,,,,,C02N10,2021_Oct_08_1401,ER_paradigm,2021.1.4,60.07228665887701,
1,StimuliNeutral.xlsx,1,ANSCHAUEN,21,Stimuli/7211.jpg,1,,,,0,0,0,0,0,4,4,16,,,,,,,,,,,,,4.1,141.7273509738734,6.009473733836785,None,,,,,,,,,,,,,,,C02N10,2021_Oct_08_1401,ER_paradigm,2021.1.4,60.07228665887701,
1,StimuliNeutral.xlsx,1,ANSCHAUEN,21,Stimuli/7025.jpg,1,,,,0,0,0,0,0,5,5,11,,,,,,,,,,,,,4.3,152.07643205241766,6.0102260146522895,None,,,,,,,,,,,,,,,C02N10,2021_Oct_08_1401,ER_paradigm,2021.1.4,60.07228665887701,
1,StimuliNeutral.xlsx,1,ANSCHAUEN,21,Stimuli/140.jpg,1,,,,0,0,0,0,0,6,6,3,,,,,,,,,,,,,3.3,161.41374514915515,6.003354434622452,None,,,,,,,,,,,,,,,C02N10,2021_Oct_08_1401,ER_paradigm,2021.1.4,60.07228665887701,
1,StimuliNeutral.xlsx,1,ANSCHAUEN,21,Stimuli/7233.jpg,1,,,,0,0,0,0,0,7,7,18,,,,,,,,,,,,,4.6,172.08098198799416,6.002204295131378,None,,,,,,,,,,,,,,,C02N10,2021_Oct_08_1401,ER_paradigm,2021.1.4,60.07228665887701,
1,StimuliNeutral.xlsx,1,ANSCHAUEN,21,Stimuli/7100.jpg,1,,,,0,0,0,0,0,8,8,13,,,,,,,,,,,,,5.0,183.1310559809208,6.001633652485907,None,,,,,,,,,,,,,,,C02N10,2021_Oct_08_1401,ER_paradigm,2021.1.4,60.07228665887701,
1,StimuliNeutral.xlsx,1,ANSCHAUEN,21,Stimuli/7004.jpg,1,,,,0,0,0,0,0,9,9,7,,,,,,,,,,,,,4.2,193.3831435200991,6.014610737096518,None,,,,,,,,,,,,,,,C02N10,2021_Oct_08_1401,ER_paradigm,2021.1.4,60.07228665887701,
1,StimuliNeutral.xlsx,1,ANSCHAUEN,21,Stimuli/7235.jpg,1,,,,0,0,0,0,0,10,10,19,,,,,,,,,,,,,3.1,202.54247018229216,6.010771057452075,None,,,,,,,,,,,,,,,C02N10,2021_Oct_08_1401,ER_paradigm,2021.1.4,60.07228665887701,
1,StimuliNeutral.xlsx,1,ANSCHAUEN,21,Stimuli/7009.jpg,1,,,,0,0,0,0,0,11,11,9,,,,,,,,,,,,,4.5,213.09745709842537,6.001306113554165,None,,,,,,,,,,,,,,,C02N10,2021_Oct_08_1401,ER_paradigm,2021.1.4,60.07228665887701,
1,StimuliNeutral.xlsx,1,ANSCHAUEN,21,Stimuli/7006.jpg,1,,,,0,0,0,0,0,12,12,8,,,,,,,,,,,,,4.0,223.14877227449324,5.9996222235495225,None,,,,,,,,,,,,,,,C02N10,2021_Oct_08_1401,ER_paradigm,2021.1.4,60.07228665887701,
1,StimuliNeutral.xlsx,1,ANSCHAUEN,21,Stimuli/7021.jpg,1,,,,0,0,0,0,0,13,13,10,,,,,,,,,,,,,4.6,233.80327551730443,6.005107617820613,None,,,,,,,,,,,,,,,C02N10,2021_Oct_08_1401,ER_paradigm,2021.1.4,60.07228665887701,
1,StimuliNeutral.xlsx,1,ANSCHAUEN,21,Stimuli/7150.jpg,1,,,,0,0,0,0,0,14,14,14,,,,,,,,,,,,,4.4,244.269613917917,6.0066038387594745,None,,,,,,,,,,,,,,,C02N10,2021_Oct_08_1401,ER_paradigm,2021.1.4,60.07228665887701,
1,StimuliNeutral.xlsx,1,ANSCHAUEN,21,Stimuli/7041.jpg,1,,,,0,0,0,0,0,15,15,12,,,,,,,,,,,,,4.8,255.11908044014126,6.009785232599825,None,,,,,,,,,,,,,,,C02N10,2021_Oct_08_1401,ER_paradigm,2021.1.4,60.07228665887701,
1,StimuliNeutral.xlsx,1,ANSCHAUEN,21,Stimuli/124.jpg,1,,,,0,0,0,0,0,16,16,2,,,,,,,,,,,,,3.5,264.6840712475823,6.011491899611428,None,,,,,,,,,,,,,,,C02N10,2021_Oct_08_1401,ER_paradigm,2021.1.4,60.07228665887701,
1,StimuliNeutral.xlsx,1,ANSCHAUEN,21,Stimuli/143.jpg,1,,,,0,0,0,0,0,17,17,4,,,,,,,,,,,,,3.1,273.84080807480495,6.014131779666059,None,,,,,,,,,,,,,,,C02N10,2021_Oct_08_1401,ER_paradigm,2021.1.4,60.07228665887701,
1,StimuliNeutral.xlsx,1,ANSCHAUEN,21,Stimuli/7224.jpg,1,,,,0,0,0,0,0,18,18,17,,,,,,,,,,,,,3.4,283.30075674003456,6.010546175180934,None,,,,,,,,,,,,,,,C02N10,2021_Oct_08_1401,ER_paradigm,2021.1.4,60.07228665887701,
1,StimuliNeutral.xlsx,1,ANSCHAUEN,21,Stimuli/083.jpg,1,,,,0,0,0,0,0,19,19,0,,,,,,,,,,,,,3.2,292.5415231746156,6.0126939449692145,None,,,,,,,,,,,,,,,C02N10,2021_Oct_08_1401,ER_paradigm,2021.1.4,60.07228665887701,
1,StimuliNeutral.xlsx,1,ANSCHAUEN,21,,,,,,0,0,0,0,,,,,,,,,,,,,,,,,,,,,3.703703703703698,6.052506314241327,19.62962962962962,2.981978944502771,,,,,,,,,,,C02N10,2021_Oct_08_1401,ER_paradigm,2021.1.4,60.07228665887701,
2,StimuliNegative.xlsx,1,ANSCHAUEN,22,Stimuli/9421.jpg,,,,,0,1,1,1,0,0,0,17,,,,,,,,,,,,,4.4,316.39363246422727,6.010181679856032,None,,,,,,,,,,,,,,,C02N10,2021_Oct_08_1401,ER_paradigm,2021.1.4,60.07228665887701,
2,StimuliNegative.xlsx,1,ANSCHAUEN,22,Stimuli/9120.jpg,,,,,0,1,1,1,0,1,1,8,,,,,,,,,,,,,4.5,326.9535260477569,6.00516343745403,None,,,,,,,,,,,,,,,C02N10,2021_Oct_08_1401,ER_paradigm,2021.1.4,60.07228665887701,
2,StimuliNegative.xlsx,1,ANSCHAUEN,22,Stimuli/9420.jpg,,,,,0,1,1,1,0,2,2,16,,,,,,,,,,,,,4.2,337.2154038241133,5.99945091526024,None,,,,,,,,,,,,,,,C02N10,2021_Oct_08_1401,ER_paradigm,2021.1.4,60.07228665887701,
2,StimuliNegative.xlsx,1,ANSCHAUEN,22,Stimuli/9254.jpg,,,,,0,1,1,1,0,3,3,12,,,,,,,,,,,,,3.8,347.0611102253897,6.007314736023545,None,,,,,,,,,,,,,,,C02N10,2021_Oct_08_1401,ER_paradigm,2021.1.4,60.07228665887701,
2,StimuliNegative.xlsx,1,ANSCHAUEN,22,Stimuli/227.jpg,,,,,0,1,1,1,0,4,4,0,,,,,,,,,,,,,4.5,357.6246513283113,6.014248487656005,None,,,,,,,,,,,,,,,C02N10,2021_Oct_08_1401,ER_paradigm,2021.1.4,60.07228665887701,
2,StimuliNegative.xlsx,1,ANSCHAUEN,22,Stimuli/9905.jpg,,,,,0,1,1,1,0,5,5,19,,,,,,,,,,,,,4.0,367.6885493234731,6.003169331816025,None,,,,,,,,,,,,,,,C02N10,2021_Oct_08_1401,ER_paradigm,2021.1.4,60.07228665887701,
2,StimuliNegative.xlsx,1,ANSCHAUEN,22,Stimuli/3230.jpg,,,,,0,1,1,1,0,6,6,5,,,,,,,,,,,,,4.2,377.9439398406539,6.008714716066606,None,,,,,,,,,,,,,,,C02N10,2021_Oct_08_1401,ER_paradigm,2021.1.4,60.07228665887701,
2,StimuliNegative.xlsx,1,ANSCHAUEN,22,Stimuli/3061.jpg,,,,,0,1,1,1,0,7,7,4,,,,,,,,,,,,,4.9,388.89646498591173,6.001936489599757,None,,,,,,,,,,,,,,,C02N10,2021_Oct_08_1401,ER_paradigm,2021.1.4,60.07228665887701,
2,StimuliNegative.xlsx,1,ANSCHAUEN,22,Stimuli/9185.jpg,,,,,0,1,1,1,0,8,8,10,,,,,,,,,,,,,4.2,399.15114941773936,6.011423247982748,None,,,,,,,,,,,,,,,C02N10,2021_Oct_08_1401,ER_paradigm,2021.1.4,60.07228665887701,
2,StimuliNegative.xlsx,1,ANSCHAUEN,22,Stimuli/9230.jpg,,,,,0,1,1,1,0,9,9,11,,,,,,,,,,,,,3.8,409.015654177987,6.015054727089591,None,,,,,,,,,,,,,,,C02N10,2021_Oct_08_1401,ER_paradigm,2021.1.4,60.07228665887701,
2,StimuliNegative.xlsx,1,ANSCHAUEN,22,Stimuli/9332.jpg,,,,,0,1,1,1,0,10,10,14,,,,,,,,,,,,,3.6,418.6756979931379,6.011803398490883,None,,,,,,,,,,,,,,,C02N10,2021_Oct_08_1401,ER_paradigm,2021.1.4,60.07228665887701,
2,StimuliNegative.xlsx,1,ANSCHAUEN,22,Stimuli/2800.jpg,,,,,0,1,1,1,0,11,11,3,,,,,,,,,,,,,4.8,429.53920730459504,6.001715456950478,None,,,,,,,,,,,,,,,C02N10,2021_Oct_08_1401,ER_paradigm,2021.1.4,60.07228665887701,
2,StimuliNegative.xlsx,1,ANSCHAUEN,22,Stimuli/6838.jpg,,,,,0,1,1,1,0,12,12,7,,,,,,,,,,,,,3.3,438.89902691112366,6.015636020572856,None,,,,,,,,,,,,,,,C02N10,2021_Oct_08_1401,ER_paradigm,2021.1.4,60.07228665887701,
2,StimuliNegative.xlsx,1,ANSCHAUEN,22,Stimuli/9599.jpg,,,,,0,1,1,1,0,13,13,18,,,,,,,,,,,,,3.5,448.47313683782704,6.001686584902927,None,,,,,,,,,,,,,,,C02N10,2021_Oct_08_1401,ER_paradigm,2021.1.4,60.07228665887701,
2,StimuliNegative.xlsx,1,ANSCHAUEN,22,Stimuli/252.jpg,,,,,0,1,1,1,0,14,14,1,,,,,,,,,,,,,3.7,458.23032657336444,6.002256970736198,None,,,,,,,,,,,,,,,C02N10,2021_Oct_08_1401,ER_paradigm,2021.1.4,60.07228665887701,
2,StimuliNegative.xlsx,1,ANSCHAUEN,22,Stimuli/9295.jpg,,,,,0,1,1,1,0,15,15,13,,,,,,,,,,,,,4.3,468.5874780692393,6.004821141716093,None,,,,,,,,,,,,,,,C02N10,2021_Oct_08_1401,ER_paradigm,2021.1.4,60.07228665887701,
2,StimuliNegative.xlsx,1,ANSCHAUEN,22,Stimuli/6561.jpg,,,,,0,1,1,1,0,16,16,6,,,,,,,,,,,,,4.7,479.3448647771729,6.006935227196664,None,,,,,,,,,,,,,,,C02N10,2021_Oct_08_1401,ER_paradigm,2021.1.4,60.07228665887701,
2,StimuliNegative.xlsx,1,ANSCHAUEN,22,Stimuli/9181.jpg,,,,,0,1,1,1,0,17,17,9,,,,,,,,,,,,,4.5,489.90117500175256,6.011809493647888,None,,,,,,,,,,,,,,,C02N10,2021_Oct_08_1401,ER_paradigm,2021.1.4,60.07228665887701,
2,StimuliNegative.xlsx,1,ANSCHAUEN,22,Stimuli/1051.jpg,,,,,0,1,1,1,0,18,18,2,,,,,,,,,,,,,3.4,499.3558240169659,6.000821766559966,None,,,,,,,,,,,,,,,C02N10,2021_Oct_08_1401,ER_paradigm,2021.1.4,60.07228665887701,
2,StimuliNegative.xlsx,1,ANSCHAUEN,22,Stimuli/9411.jpg,,,,,0,1,1,1,0,19,19,15,,,,,,,,,,,,,3.0,508.4130801263964,6.004050254239701,None,,,,,,,,,,,,,,,C02N10,2021_Oct_08_1401,ER_paradigm,2021.1.4,60.07228665887701,
2,StimuliNegative.xlsx,1,ANSCHAUEN,22,,,,,,0,1,1,1,,,,,,,,,,,,,,,,,,,,,273.7037037037037,3.1534810070879757,273.7037037037037,3.0865867206593975,,,,,,,,,,,C02N10,2021_Oct_08_1401,ER_paradigm,2021.1.4,60.07228665887701,
5,,1,UNTERDRÜCKEN,,Stimuli/210.jpg,,StimuliNegative.xlsx,25,"Unterdrücken Sie alle aufkommenden Emotionen. Wenn Sie also die Bilder ansehen, verhalten Sie sich so, dass eine außenstehende Person nicht sehen kann, welche Emotionen Sie gerade empfinden.",,,,,,,,,0,0,0,2,0,0,0,0,,,,,4.8,,,,,,,,539.4911287003197,6.012904391158372,None,,,,,,,,C02N10,2021_Oct_08_1401,ER_paradigm,2021.1.4,60.07228665887701,
5,,1,UNTERDRÜCKEN,,Stimuli/9904.jpg,,StimuliNegative.xlsx,25,"Unterdrücken Sie alle aufkommenden Emotionen. Wenn Sie also die Bilder ansehen, verhalten Sie sich so, dass eine außenstehende Person nicht sehen kann, welche Emotionen Sie gerade empfinden.",,,,,,,,,0,0,0,2,0,1,1,19,,,,,3.4,,,,,,,,548.9557915518526,6.00053394283168,None,,,,,,,,C02N10,2021_Oct_08_1401,ER_paradigm,2021.1.4,60.07228665887701,
5,,1,UNTERDRÜCKEN,,Stimuli/3051.jpg,,StimuliNegative.xlsx,25,"Unterdrücken Sie alle aufkommenden Emotionen. Wenn Sie also die Bilder ansehen, verhalten Sie sich so, dass eine außenstehende Person nicht sehen kann, welche Emotionen Sie gerade empfinden.",,,,,,,,,0,0,0,2,0,2,2,7,,,,,4.5,,,,,,,,559.5217976977583,6.002863607602194,None,,,,,,,,C02N10,2021_Oct_08_1401,ER_paradigm,2021.1.4,60.07228665887701,
5,,1,UNTERDRÜCKEN,,Stimuli/9043.jpg,,StimuliNegative.xlsx,25,"Unterdrücken Sie alle aufkommenden Emotionen. Wenn Sie also die Bilder ansehen, verhalten Sie sich so, dass eine außenstehende Person nicht sehen kann, welche Emotionen Sie gerade empfinden.",,,,,,,,,0,0,0,2,0,3,3,15,,,,,4.2,,,,,,,,569.7905432045227,6.015990763437003,None,,,,,,,,C02N10,2021_Oct_08_1401,ER_paradigm,2021.1.4,60.07228665887701,
5,,1,UNTERDRÜCKEN,,Stimuli/9031.jpg,,StimuliNegative.xlsx,25,"Unterdrücken Sie alle aufkommenden Emotionen. Wenn Sie also die Bilder ansehen, verhalten Sie sich so, dass eine außenstehende Person nicht sehen kann, welche Emotionen Sie gerade empfinden.",,,,,,,,,0,0,0,2,0,4,4,12,,,,,3.1,,,,,,,,578.9449064172804,6.0081959791714326,None,,,,,,,,C02N10,2021_Oct_08_1401,ER_paradigm,2021.1.4,60.07228665887701,
5,,1,UNTERDRÜCKEN,,Stimuli/228.jpg,,StimuliNegative.xlsx,25,"Unterdrücken Sie alle aufkommenden Emotionen. Wenn Sie also die Bilder ansehen, verhalten Sie sich so, dass eine außenstehende Person nicht sehen kann, welche Emotionen Sie gerade empfinden.",,,,,,,,,0,0,0,2,0,5,5,3,,,,,3.9,,,,,,,,588.8949023591122,6.006377993966453,None,,,,,,,,C02N10,2021_Oct_08_1401,ER_paradigm,2021.1.4,60.07228665887701,
5,,1,UNTERDRÜCKEN,,Stimuli/9040.jpg,,StimuliNegative.xlsx,25,"Unterdrücken Sie alle aufkommenden Emotionen. Wenn Sie also die Bilder ansehen, verhalten Sie sich so, dass eine außenstehende Person nicht sehen kann, welche Emotionen Sie gerade empfinden.",,,,,,,,,0,0,0,2,0,6,6,13,,,,,4.2,,,,,,,,599.1653121869313,6.000003593042493,None,,,,,,,,C02N10,2021_Oct_08_1401,ER_paradigm,2021.1.4,60.07228665887701,
5,,1,UNTERDRÜCKEN,,Stimuli/218.jpg,,StimuliNegative.xlsx,25,"Unterdrücken Sie alle aufkommenden Emotionen. Wenn Sie also die Bilder ansehen, verhalten Sie sich so, dass eine außenstehende Person nicht sehen kann, welche Emotionen Sie gerade empfinden.",,,,,,,,,0,0,0,2,0,7,7,1,,,,,3.8,,,,,,,,609.0092156806495,6.01144089223817,None,,,,,,,,C02N10,2021_Oct_08_1401,ER_paradigm,2021.1.4,60.07228665887701,
5,,1,UNTERDRÜCKEN,,Stimuli/3185.jpg,,StimuliNegative.xlsx,25,"Unterdrücken Sie alle aufkommenden Emotionen. Wenn Sie also die Bilder ansehen, verhalten Sie sich so, dass eine außenstehende Person nicht sehen kann, welche Emotionen Sie gerade empfinden.",,,,,,,,,0,0,0,2,0,8,8,9,,,,,4.4,,,,,,,,619.4747722867178,6.014285379787907,None,,,,,,,,C02N10,2021_Oct_08_1401,ER_paradigm,2021.1.4,60.07228665887701,
5,,1,UNTERDRÜCKEN,,Stimuli/9042.jpg,,StimuliNegative.xlsx,25,"Unterdrücken Sie alle aufkommenden Emotionen. Wenn Sie also die Bilder ansehen, verhalten Sie sich so, dass eine außenstehende Person nicht sehen kann, welche Emotionen Sie gerade empfinden.",,,,,,,,,0,0,0,2,0,9,9,14,,,,,3.8,,,,,,,,629.3321565245278,6.000399206066504,None,,,,,,,,C02N10,2021_Oct_08_1401,ER_paradigm,2021.1.4,60.07228665887701,
5,,1,UNTERDRÜCKEN,,Stimuli/222.jpg,,StimuliNegative.xlsx,25,"Unterdrücken Sie alle aufkommenden Emotionen. Wenn Sie also die Bilder ansehen, verhalten Sie sich so, dass eine außenstehende Person nicht sehen kann, welche Emotionen Sie gerade empfinden.",,,,,,,,,0,0,0,2,0,10,10,2,,,,,4.9,,,,,,,,640.2822339500999,6.015073975431733,None,,,,,,,,C02N10,2021_Oct_08_1401,ER_paradigm,2021.1.4,60.07228665887701,
5,,1,UNTERDRÜCKEN,,Stimuli/9160.jpg,,StimuliNegative.xlsx,25,"Unterdrücken Sie alle aufkommenden Emotionen. Wenn Sie also die Bilder ansehen, verhalten Sie sich so, dass eine außenstehende Person nicht sehen kann, welche Emotionen Sie gerade empfinden.",,,,,,,,,0,0,0,2,0,11,11,17,,,,,4.1,,,,,,,,650.4581842540065,6.014732257113792,None,,,,,,,,C02N10,2021_Oct_08_1401,ER_paradigm,2021.1.4,60.07228665887701,
5,,1,UNTERDRÜCKEN,,Stimuli/2703.jpg,,StimuliNegative.xlsx,25,"Unterdrücken Sie alle aufkommenden Emotionen. Wenn Sie also die Bilder ansehen, verhalten Sie sich so, dass eine außenstehende Person nicht sehen kann, welche Emotionen Sie gerade empfinden.",,,,,,,,,0,0,0,2,0,12,12,6,,,,,3.2,,,,,,,,659.708665216458,6.013729814789258,None,,,,,,,,C02N10,2021_Oct_08_1401,ER_paradigm,2021.1.4,60.07228665887701,
5,,1,UNTERDRÜCKEN,,Stimuli/3301.jpg,,StimuliNegative.xlsx,25,"Unterdrücken Sie alle aufkommenden Emotionen. Wenn Sie also die Bilder ansehen, verhalten Sie sich so, dass eine außenstehende Person nicht sehen kann, welche Emotionen Sie gerade empfinden.",,,,,,,,,0,0,0,2,0,13,13,10,,,,,4.2,,,,,,,,669.9699135791743,6.005516319652088,None,,,,,,,,C02N10,2021_Oct_08_1401,ER_paradigm,2021.1.4,60.07228665887701,
5,,1,UNTERDRÜCKEN,,Stimuli/3160.jpg,,StimuliNegative.xlsx,25,"Unterdrücken Sie alle aufkommenden Emotionen. Wenn Sie also die Bilder ansehen, verhalten Sie sich so, dass eine außenstehende Person nicht sehen kann, welche Emotionen Sie gerade empfinden.",,,,,,,,,0,0,0,2,0,14,14,8,,,,,4.8,,,,,,,,680.8282271805219,6.006094404961914,None,,,,,,,,C02N10,2021_Oct_08_1401,ER_paradigm,2021.1.4,60.07228665887701,
5,,1,UNTERDRÜCKEN,,Stimuli/251.jpg,,StimuliNegative.xlsx,25,"Unterdrücken Sie alle aufkommenden Emotionen. Wenn Sie also die Bilder ansehen, verhalten Sie sich so, dass eine außenstehende Person nicht sehen kann, welche Emotionen Sie gerade empfinden.",,,,,,,,,0,0,0,2,0,15,15,5,,,,,4.4,,,,,,,,691.2804342504824,6.00082619371824,None,,,,,,,,C02N10,2021_Oct_08_1401,ER_paradigm,2021.1.4,60.07228665887701,
5,,1,UNTERDRÜCKEN,,Stimuli/9145.jpg,,StimuliNegative.xlsx,25,"Unterdrücken Sie alle aufkommenden Emotionen. Wenn Sie also die Bilder ansehen, verhalten Sie sich so, dass eine außenstehende Person nicht sehen kann, welche Emotionen Sie gerade empfinden.",,,,,,,,,0,0,0,2,0,16,16,16,,,,,4.0,,,,,,,,701.3274202028988,6.007308576605283,None,,,,,,,,C02N10,2021_Oct_08_1401,ER_paradigm,2021.1.4,60.07228665887701,
5,,1,UNTERDRÜCKEN,,Stimuli/9184.jpg,,StimuliNegative.xlsx,25,"Unterdrücken Sie alle aufkommenden Emotionen. Wenn Sie also die Bilder ansehen, verhalten Sie sich so, dass eine außenstehende Person nicht sehen kann, welche Emotionen Sie gerade empfinden.",,,,,,,,,0,0,0,2,0,17,17,18,,,,,4.1,,,,,,,,711.4836844886886,6.011838365695439,None,,,,,,,,C02N10,2021_Oct_08_1401,ER_paradigm,2021.1.4,60.07228665887701,
5,,1,UNTERDRÜCKEN,,Stimuli/6562.jpg,,StimuliNegative.xlsx,25,"Unterdrücken Sie alle aufkommenden Emotionen. Wenn Sie also die Bilder ansehen, verhalten Sie sich so, dass eine außenstehende Person nicht sehen kann, welche Emotionen Sie gerade empfinden.",,,,,,,,,0,0,0,2,0,18,18,11,,,,,4.1,,,,,,,,721.6406413860386,6.015794496750459,None,,,,,,,,C02N10,2021_Oct_08_1401,ER_paradigm,2021.1.4,60.07228665887701,
5,,1,UNTERDRÜCKEN,,Stimuli/246.jpg,,StimuliNegative.xlsx,25,"Unterdrücken Sie alle aufkommenden Emotionen. Wenn Sie also die Bilder ansehen, verhalten Sie sich so, dass eine außenstehende Person nicht sehen kann, welche Emotionen Sie gerade empfinden.",,,,,,,,,0,0,0,2,0,19,19,4,,,,,3.4,,,,,,,,731.0968812586507,6.001594514586031,None,,,,,,,,C02N10,2021_Oct_08_1401,ER_paradigm,2021.1.4,60.07228665887701,
5,,1,UNTERDRÜCKEN,,,,StimuliNegative.xlsx,25,"Unterdrücken Sie alle aufkommenden Emotionen. Wenn Sie also die Bilder ansehen, verhalten Sie sich so, dass eine außenstehende Person nicht sehen kann, welche Emotionen Sie gerade empfinden.",,,,,,,,,0,0,0,2,,,,,,,,,,,,,292.5925925925926,6.252960120793432,292.5925925925926,3.46420185896568,,,,,,,,,,,C02N10,2021_Oct_08_1401,ER_paradigm,2021.1.4,60.07228665887701,
3,,1,ABLENKEN,,Stimuli/3017.jpg,,StimuliNegative.xlsx,23,"Denken Sie während des Betrachtens der Bilder an etwas Neutrales, das mit dem Bild nichts zu tun hat. Das könnten geometrische Figuren, Alltagstätigkeiten oder bekannte Orte sein.",,,,,,,,,0,1,1,0,0,0,0,5,,,,,4.9,,,,,,,,757.5881873625331,6.001996158738621,None,,,,,,,,C02N10,2021_Oct_08_1401,ER_paradigm,2021.1.4,60.07228665887701,
3,,1,ABLENKEN,,Stimuli/225.jpg,,StimuliNegative.xlsx,23,"Denken Sie während des Betrachtens der Bilder an etwas Neutrales, das mit dem Bild nichts zu tun hat. Das könnten geometrische Figuren, Alltagstätigkeiten oder bekannte Orte sein.",,,,,,,,,0,1,1,0,0,1,1,0,,,,,3.0,,,,,,,,766.6355515405303,6.0089993317378685,None,,,,,,,,C02N10,2021_Oct_08_1401,ER_paradigm,2021.1.4,60.07228665887701,
3,,1,ABLENKEN,,Stimuli/3022.jpg,,StimuliNegative.xlsx,23,"Denken Sie während des Betrachtens der Bilder an etwas Neutrales, das mit dem Bild nichts zu tun hat. Das könnten geometrische Figuren, Alltagstätigkeiten oder bekannte Orte sein.",,,,,,,,,0,1,1,0,0,2,2,6,,,,,3.5,,,,,,,,776.2041539375205,6.0046440589940175,None,,,,,,,,C02N10,2021_Oct_08_1401,ER_paradigm,2021.1.4,60.07228665887701,
3,,1,ABLENKEN,,Stimuli/9180.jpg,,StimuliNegative.xlsx,23,"Denken Sie während des Betrachtens der Bilder an etwas Neutrales, das mit dem Bild nichts zu tun hat. Das könnten geometrische Figuren, Alltagstätigkeiten oder bekannte Orte sein.",,,,,,,,,0,1,1,0,0,3,3,12,,,,,3.3,,,,,,,,785.5718771443935,6.002068339148536,None,,,,,,,,C02N10,2021_Oct_08_1401,ER_paradigm,2021.1.4,60.07228665887701,
3,,1,ABLENKEN,,Stimuli/255.jpg,,StimuliNegative.xlsx,23,"Denken Sie während des Betrachtens der Bilder an etwas Neutrales, das mit dem Bild nichts zu tun hat. Das könnten geometrische Figuren, Alltagstätigkeiten oder bekannte Orte sein.",,,,,,,,,0,1,1,0,0,4,4,2,,,,,3.3,,,,,,,,794.9341611523414,6.010782606317662,None,,,,,,,,C02N10,2021_Oct_08_1401,ER_paradigm,2021.1.4,60.07228665887701,
3,,1,ABLENKEN,,Stimuli/6244.jpg,,StimuliNegative.xlsx,23,"Denken Sie während des Betrachtens der Bilder an etwas Neutrales, das mit dem Bild nichts zu tun hat. Das könnten geometrische Figuren, Alltagstätigkeiten oder bekannte Orte sein.",,,,,,,,,0,1,1,0,0,5,5,10,,,,,4.0,,,,,,,,805.00185648154,6.0088279594201595,None,,,,,,,,C02N10,2021_Oct_08_1401,ER_paradigm,2021.1.4,60.07228665887701,
3,,1,ABLENKEN,,Stimuli/3180.jpg,,StimuliNegative.xlsx,23,"Denken Sie während des Betrachtens der Bilder an etwas Neutrales, das mit dem Bild nichts zu tun hat. Das könnten geometrische Figuren, Alltagstätigkeiten oder bekannte Orte sein.",,,,,,,,,0,1,1,0,0,6,6,7,,,,,3.5,,,,,,,,814.563282215735,6.003634173888713,None,,,,,,,,C02N10,2021_Oct_08_1401,ER_paradigm,2021.1.4,60.07228665887701,
3,,1,ABLENKEN,,Stimuli/9424.jpg,,StimuliNegative.xlsx,23,"Denken Sie während des Betrachtens der Bilder an etwas Neutrales, das mit dem Bild nichts zu tun hat. Das könnten geometrische Figuren, Alltagstätigkeiten oder bekannte Orte sein.",,,,,,,,,0,1,1,0,0,7,7,17,,,,,4.3,,,,,,,,824.9209675261518,6.004599146661349,None,,,,,,,,C02N10,2021_Oct_08_1401,ER_paradigm,2021.1.4,60.07228665887701,
3,,1,ABLENKEN,,Stimuli/9253.jpg,,StimuliNegative.xlsx,23,"Denken Sie während des Betrachtens der Bilder an etwas Neutrales, das mit dem Bild nichts zu tun hat. Das könnten geometrische Figuren, Alltagstätigkeiten oder bekannte Orte sein.",,,,,,,,,0,1,1,0,0,8,8,14,,,,,3.5,,,,,,,,834.4742747227428,6.0146534038940445,None,,,,,,,,C02N10,2021_Oct_08_1401,ER_paradigm,2021.1.4,60.07228665887701,
3,,1,ABLENKEN,,Stimuli/3280.jpg,,StimuliNegative.xlsx,23,"Denken Sie während des Betrachtens der Bilder an etwas Neutrales, das mit dem Bild nichts zu tun hat. Das könnten geometrische Figuren, Alltagstätigkeiten oder bekannte Orte sein.",,,,,,,,,0,1,1,0,0,9,9,8,,,,,3.9,,,,,,,,844.4309815227753,5.999979276326485,None,,,,,,,,C02N10,2021_Oct_08_1401,ER_paradigm,2021.1.4,60.07228665887701,
3,,1,ABLENKEN,,Stimuli/6836.jpg,,StimuliNegative.xlsx,23,"Denken Sie während des Betrachtens der Bilder an etwas Neutrales, das mit dem Bild nichts zu tun hat. Das könnten geometrische Figuren, Alltagstätigkeiten oder bekannte Orte sein.",,,,,,,,,0,1,1,0,0,10,10,11,,,,,4.8,,,,,,,,855.2906995955855,6.015139034134336,None,,,,,,,,C02N10,2021_Oct_08_1401,ER_paradigm,2021.1.4,60.07228665887701,
3,,1,ABLENKEN,,Stimuli/230.jpg,,StimuliNegative.xlsx,23,"Denken Sie während des Betrachtens der Bilder an etwas Neutrales, das mit dem Bild nichts zu tun hat. Das könnten geometrische Figuren, Alltagstätigkeiten oder bekannte Orte sein.",,,,,,,,,0,1,1,0,0,11,11,1,,,,,4.8,,,,,,,,866.159002652159,6.012525459751487,None,,,,,,,,C02N10,2021_Oct_08_1401,ER_paradigm,2021.1.4,60.07228665887701,
3,,1,ABLENKEN,,Stimuli/9425.jpg,,StimuliNegative.xlsx,23,"Denken Sie während des Betrachtens der Bilder an etwas Neutrales, das mit dem Bild nichts zu tun hat. Das könnten geometrische Figuren, Alltagstätigkeiten oder bekannte Orte sein.",,,,,,,,,0,1,1,0,0,12,12,18,,,,,4.3,,,,,,,,876.524124154239,6.014316818444058,None,,,,,,,,C02N10,2021_Oct_08_1401,ER_paradigm,2021.1.4,60.07228665887701,
3,,1,ABLENKEN,,Stimuli/9300.jpg,,StimuliNegative.xlsx,23,"Denken Sie während des Betrachtens der Bilder an etwas Neutrales, das mit dem Bild nichts zu tun hat. Das könnten geometrische Figuren, Alltagstätigkeiten oder bekannte Orte sein.",,,,,,,,,0,1,1,0,0,13,13,15,,,,,3.4,,,,,,,,885.9636438237503,6.002351928153075,None,,,,,,,,C02N10,2021_Oct_08_1401,ER_paradigm,2021.1.4,60.07228665887701,
3,,1,ABLENKEN,,Stimuli/6190.jpg,,StimuliNegative.xlsx,23,"Denken Sie während des Betrachtens der Bilder an etwas Neutrales, das mit dem Bild nichts zu tun hat. Das könnten geometrische Figuren, Alltagstätigkeiten oder bekannte Orte sein.",,,,,,,,,0,1,1,0,0,14,14,9,,,,,3.7,,,,,,,,895.7203712834744,6.005336670554243,None,,,,,,,,C02N10,2021_Oct_08_1401,ER_paradigm,2021.1.4,60.07228665887701,
3,,1,ABLENKEN,,Stimuli/9326.jpg,,StimuliNegative.xlsx,23,"Denken Sie während des Betrachtens der Bilder an etwas Neutrales, das mit dem Bild nichts zu tun hat. Das könnten geometrische Figuren, Alltagstätigkeiten oder bekannte Orte sein.",,,,,,,,,0,1,1,0,0,15,15,16,,,,,3.1,,,,,,,,904.8945430608001,6.008790682186373,None,,,,,,,,C02N10,2021_Oct_08_1401,ER_paradigm,2021.1.4,60.07228665887701,
3,,1,ABLENKEN,,Stimuli/9920.jpg,,StimuliNegative.xlsx,23,"Denken Sie während des Betrachtens der Bilder an etwas Neutrales, das mit dem Bild nichts zu tun hat. Das könnten geometrische Figuren, Alltagstätigkeiten oder bekannte Orte sein.",,,,,,,,,0,1,1,0,0,16,16,19,,,,,4.0,,,,,,,,914.9470811344218,6.00351291091647,None,,,,,,,,C02N10,2021_Oct_08_1401,ER_paradigm,2021.1.4,60.07228665887701,
3,,1,ABLENKEN,,Stimuli/9182.jpg,,StimuliNegative.xlsx,23,"Denken Sie während des Betrachtens der Bilder an etwas Neutrales, das mit dem Bild nichts zu tun hat. Das könnten geometrische Figuren, Alltagstätigkeiten oder bekannte Orte sein.",,,,,,,,,0,1,1,0,0,17,17,13,,,,,3.1,,,,,,,,924.0914779896848,6.0147416243562475,None,,,,,,,,C02N10,2021_Oct_08_1401,ER_paradigm,2021.1.4,60.07228665887701,
3,,1,ABLENKEN,,Stimuli/327.jpg,,StimuliNegative.xlsx,23,"Denken Sie während des Betrachtens der Bilder an etwas Neutrales, das mit dem Bild nichts zu tun hat. Das könnten geometrische Figuren, Alltagstätigkeiten oder bekannte Orte sein.",,,,,,,,,0,1,1,0,0,18,18,3,,,,,3.3,,,,,,,,933.4448889335617,6.007683016825467,None,,,,,,,,C02N10,2021_Oct_08_1401,ER_paradigm,2021.1.4,60.07228665887701,
3,,1,ABLENKEN,,Stimuli/1111.jpg,,StimuliNegative.xlsx,23,"Denken Sie während des Betrachtens der Bilder an etwas Neutrales, das mit dem Bild nichts zu tun hat. Das könnten geometrische Figuren, Alltagstätigkeiten oder bekannte Orte sein.",,,,,,,,,0,1,1,0,0,19,19,4,,,,,3.3,,,,,,,,942.7817307719961,6.000733160995878,None,,,,,,,,C02N10,2021_Oct_08_1401,ER_paradigm,2021.1.4,60.07228665887701,
3,,1,ABLENKEN,,,,StimuliNegative.xlsx,23,"Denken Sie während des Betrachtens der Bilder an etwas Neutrales, das mit dem Bild nichts zu tun hat. Das könnten geometrische Figuren, Alltagstätigkeiten oder bekannte Orte sein.",,,,,,,,,0,1,1,0,,,,,,,,,,,,,348.8888888888889,3.317745133652352,354.81481481481484,4.4480520418146625,,,,,,,,,,,C02N10,2021_Oct_08_1401,ER_paradigm,2021.1.4,60.07228665887701,
4,,1,DISTANZIEREN,,Stimuli/223.jpg,,StimuliNegative.xlsx,24,Nehmen Sie die Position eines uninvolvierten Beobachters ein. Denken Sie über das Bild in einer neutralen Weise nach.,,,,,,,,,0,2,2,1,0,0,0,0,,,,,3.2,,,,,,,,968.4105310332961,6.00890013971366,None,,,,,,,,C02N10,2021_Oct_08_1401,ER_paradigm,2021.1.4,60.07228665887701,
4,,1,DISTANZIEREN,,Stimuli/9405.jpg,,StimuliNegative.xlsx,24,Nehmen Sie die Position eines uninvolvierten Beobachters ein. Denken Sie über das Bild in einer neutralen Weise nach.,,,,,,,,,0,2,2,1,0,1,1,18,,,,,3.2,,,,,,,,977.6720671554795,6.002301241504028,None,,,,,,,,C02N10,2021_Oct_08_1401,ER_paradigm,2021.1.4,60.07228665887701,
4,,1,DISTANZIEREN,,Stimuli/3220.jpg,,StimuliNegative.xlsx,24,Nehmen Sie die Position eines uninvolvierten Beobachters ein. Denken Sie über das Bild in einer neutralen Weise nach.,,,,,,,,,0,2,2,1,0,2,2,8,,,,,4.8,,,,,,,,988.5285069519887,6.004185311961919,None,,,,,,,,C02N10,2021_Oct_08_1401,ER_paradigm,2021.1.4,60.07228665887701,
4,,1,DISTANZIEREN,,Stimuli/8231.jpg,,StimuliNegative.xlsx,24,Nehmen Sie die Position eines uninvolvierten Beobachters ein. Denken Sie über das Bild in einer neutralen Weise nach.,,,,,,,,,0,2,2,1,0,3,3,13,,,,,3.3,,,,,,,,997.8802885422483,6.002156559727155,None,,,,,,,,C02N10,2021_Oct_08_1401,ER_paradigm,2021.1.4,60.07228665887701,
4,,1,DISTANZIEREN,,Stimuli/6831.jpg,,StimuliNegative.xlsx,24,Nehmen Sie die Position eines uninvolvierten Beobachters ein. Denken Sie über das Bild in einer neutralen Weise nach.,,,,,,,,,0,2,2,1,0,4,4,12,,,,,3.7,,,,,,,,1007.6308081613388,6.000766524346545,None,,,,,,,,C02N10,2021_Oct_08_1401,ER_paradigm,2021.1.4,60.07228665887701,
4,,1,DISTANZIEREN,,Stimuli/3225.jpg,,StimuliNegative.xlsx,24,Nehmen Sie die Position eines uninvolvierten Beobachters ein. Denken Sie über das Bild in einer neutralen Weise nach.,,,,,,,,,0,2,2,1,0,5,5,9,,,,,4.9,,,,,,,,1018.5665749280015,6.012759709381498,None,,,,,,,,C02N10,2021_Oct_08_1401,ER_paradigm,2021.1.4,60.07228665887701,
4,,1,DISTANZIEREN,,Stimuli/3101.jpg,,StimuliNegative.xlsx,24,Nehmen Sie die Position eines uninvolvierten Beobachters ein. Denken Sie über das Bild in einer neutralen Weise nach.,,,,,,,,,0,2,2,1,0,6,6,5,,,,,3.5,,,,,,,,1028.1301991186338,6.001765502151102,None,,,,,,,,C02N10,2021_Oct_08_1401,ER_paradigm,2021.1.4,60.07228665887701,
4,,1,DISTANZIEREN,,Stimuli/9402.jpg,,StimuliNegative.xlsx,24,Nehmen Sie die Position eines uninvolvierten Beobachters ein. Denken Sie über das Bild in einer neutralen Weise nach.,,,,,,,,,0,2,2,1,0,7,7,16,,,,,3.5,,,,,,,,1037.6804163497873,6.002590284217149,None,,,,,,,,C02N10,2021_Oct_08_1401,ER_paradigm,2021.1.4,60.07228665887701,
4,,1,DISTANZIEREN,,Stimuli/3215.jpg,,StimuliNegative.xlsx,24,Nehmen Sie die Position eines uninvolvierten Beobachters ein. Denken Sie über das Bild in einer neutralen Weise nach.,,,,,,,,,0,2,2,1,0,8,8,7,,,,,4.5,,,,,,,,1048.2377816922963,6.002772499690764,None,,,,,,,,C02N10,2021_Oct_08_1401,ER_paradigm,2021.1.4,60.07228665887701,
4,,1,DISTANZIEREN,,Stimuli/3181.jpg,,StimuliNegative.xlsx,24,Nehmen Sie die Position eines uninvolvierten Beobachters ein. Denken Sie über das Bild in einer neutralen Weise nach.,,,,,,,,,0,2,2,1,0,9,9,6,,,,,3.3,,,,,,,,1057.580269967788,6.001465872861445,None,,,,,,,,C02N10,2021_Oct_08_1401,ER_paradigm,2021.1.4,60.07228665887701,
4,,1,DISTANZIEREN,,Stimuli/9373.jpg,,StimuliNegative.xlsx,24,Nehmen Sie die Position eines uninvolvierten Beobachters ein. Denken Sie über das Bild in einer neutralen Weise nach.,,,,,,,,,0,2,2,1,0,10,10,14,,,,,3.8,,,,,,,,1067.4325210518437,6.015779419103637,None,,,,,,,,C02N10,2021_Oct_08_1401,ER_paradigm,2021.1.4,60.07228665887701,
4,,1,DISTANZIEREN,,Stimuli/245.jpg,,StimuliNegative.xlsx,24,Nehmen Sie die Position eines uninvolvierten Beobachters ein. Denken Sie über das Bild in einer neutralen Weise nach.,,,,,,,,,0,2,2,1,0,11,11,2,,,,,3.2,,,,,,,,1076.688668982708,6.002016433398239,None,,,,,,,,C02N10,2021_Oct_08_1401,ER_paradigm,2021.1.4,60.07228665887701,
4,,1,DISTANZIEREN,,Stimuli/9403.jpg,,StimuliNegative.xlsx,24,Nehmen Sie die Position eines uninvolvierten Beobachters ein. Denken Sie über das Bild in einer neutralen Weise nach.,,,,,,,,,0,2,2,1,0,12,12,17,,,,,4.6,,,,,,,,1087.361888138228,6.006648366106674,None,,,,,,,,C02N10,2021_Oct_08_1401,ER_paradigm,2021.1.4,60.07228665887701,
4,,1,DISTANZIEREN,,Stimuli/2981.jpg,,StimuliNegative.xlsx,24,Nehmen Sie die Position eines uninvolvierten Beobachters ein. Denken Sie über das Bild in einer neutralen Weise nach.,,,,,,,,,0,2,2,1,0,13,13,3,,,,,4.9,,,,,,,,1098.3151084616547,5.999801872647367,None,,,,,,,,C02N10,2021_Oct_08_1401,ER_paradigm,2021.1.4,60.07228665887701,
4,,1,DISTANZIEREN,,Stimuli/6571.jpg,,StimuliNegative.xlsx,24,Nehmen Sie die Position eines uninvolvierten Beobachters ein. Denken Sie über das Bild in einer neutralen Weise nach.,,,,,,,,,0,2,2,1,0,14,14,11,,,,,3.3,,,,,,,,1107.6628408882534,6.003423727932386,None,,,,,,,,C02N10,2021_Oct_08_1401,ER_paradigm,2021.1.4,60.07228665887701,
4,,1,DISTANZIEREN,,Stimuli/3016.jpg,,StimuliNegative.xlsx,24,Nehmen Sie die Position eines uninvolvierten Beobachters ein. Denken Sie über das Bild in einer neutralen Weise nach.,,,,,,,,,0,2,2,1,0,15,15,4,,,,,3.3,,,,,,,,1117.012537586037,6.004329993738793,None,,,,,,,,C02N10,2021_Oct_08_1401,ER_paradigm,2021.1.4,60.07228665887701,
4,,1,DISTANZIEREN,,Stimuli/6020.jpg,,StimuliNegative.xlsx,24,Nehmen Sie die Position eines uninvolvierten Beobachters ein. Denken Sie über das Bild in einer neutralen Weise nach.,,,,,,,,,0,2,2,1,0,16,16,10,,,,,3.5,,,,,,,,1126.5627176041016,6.004128209198825,None,,,,,,,,C02N10,2021_Oct_08_1401,ER_paradigm,2021.1.4,60.07228665887701,
4,,1,DISTANZIEREN,,Stimuli/9423.jpg,,StimuliNegative.xlsx,24,Nehmen Sie die Position eines uninvolvierten Beobachters ein. Denken Sie über das Bild in einer neutralen Weise nach.,,,,,,,,,0,2,2,1,0,17,17,19,,,,,4.6,,,,,,,,1137.215515142423,6.015204221010208,None,,,,,,,,C02N10,2021_Oct_08_1401,ER_paradigm,2021.1.4,60.07228665887701,
4,,1,DISTANZIEREN,,Stimuli/238.jpg,,StimuliNegative.xlsx,24,Nehmen Sie die Position eines uninvolvierten Beobachters ein. Denken Sie über das Bild in einer neutralen Weise nach.,,,,,,,,,0,2,2,1,0,18,18,1,,,,,4.5,,,,,,,,1147.7784897089005,6.005034795962274,None,,,,,,,,C02N10,2021_Oct_08_1401,ER_paradigm,2021.1.4,60.07228665887701,
4,,1,DISTANZIEREN,,Stimuli/9400.jpg,,StimuliNegative.xlsx,24,Nehmen Sie die Position eines uninvolvierten Beobachters ein. Denken Sie über das Bild in einer neutralen Weise nach.,,,,,,,,,0,2,2,1,0,19,19,15,,,,,4.8,,,,,,,,1158.635161124519,6.008362475549802,None,,,,,,,,C02N10,2021_Oct_08_1401,ER_paradigm,2021.1.4,60.07228665887701,
4,,1,DISTANZIEREN,,,,StimuliNegative.xlsx,24,Nehmen Sie die Position eines uninvolvierten Beobachters ein. Denken Sie über das Bild in einer neutralen Weise nach.,,,,,,,,,0,2,2,1,,,,,,,,,,,,,331.48148148148147,3.634558658231981,201.85185185185185,7.88094137434382,,,,,,,,,,,C02N10,2021_Oct_08_1401,ER_paradigm,2021.1.4,60.07228665887701,
,,,,,,,,,,,,,,,,,,,,,,,,,,,,,,,,,,,,,,,,,2,19.07021458761301,,,,,,C02N10,2021_Oct_08_1401,ER_paradigm,2021.1.4,60.07228665887701,
,,,,,,,,,,,,,,,,,,,,,,,,,,,,,,,,,,,,,,,,,,,space,5.289332978776656,,,,C02N10,2021_Oct_08_1401,ER_paradigm,2021.1.4,60.07228665887701,
,,,,,Stimuli/6242.jpg,,,,,,,,,,,,,,,,,,,,,0,0,0,8,3.9,,,,,,,,,,,,,,,1280.714037688449,6.003625127370469,None,C02N10,2021_Oct_08_1401,ER_paradigm,2021.1.4,60.07228665887701,
,,,,,Stimuli/8230.jpg,,,,,,,,,,,,,,,,,,,,,0,1,1,13,5.0,,,,,,,,,,,,,,,1291.7628942376468,6.002955036121421,None,C02N10,2021_Oct_08_1401,ER_paradigm,2021.1.4,60.07228665887701,
,,,,,Stimuli/6825.jpg,,,,,,,,,,,,,,,,,,,,,0,2,2,11,4.8,,,,,,,,,,,,,,,1302.6030841268366,6.007660560775548,None,C02N10,2021_Oct_08_1401,ER_paradigm,2021.1.4,60.07228665887701,
,,,,,Stimuli/9340.jpg,,,,,,,,,,,,,,,,,,,,,0,3,3,16,3.9,,,,,,,,,,,,,,,1312.5701201115735,6.007137332460843,None,C02N10,2021_Oct_08_1401,ER_paradigm,2021.1.4,60.07228665887701,
,,,,,Stimuli/226.jpg,,,,,,,,,,,,,,,,,,,,,0,4,4,2,4.5,,,,,,,,,,,,,,,1323.1291420758935,6.00499341241084,None,C02N10,2021_Oct_08_1401,ER_paradigm,2021.1.4,60.07228665887701,
,,,,,Stimuli/9800.jpg,,,,,,,,,,,,,,,,,,,,,0,5,5,19,3.5,,,,,,,,,,,,,,,1332.6861933531472,6.007545392611064,None,C02N10,2021_Oct_08_1401,ER_paradigm,2021.1.4,60.07228665887701,
,,,,,Stimuli/219.jpg,,,,,,,,,,,,,,,,,,,,,0,6,6,1,4.1,,,,,,,,,,,,,,,1342.8420158944791,6.011191949713975,None,C02N10,2021_Oct_08_1401,ER_paradigm,2021.1.4,60.07228665887701,
,,,,,Stimuli/9041.jpg,,,,,,,,,,,,,,,,,,,,,0,7,7,14,4.3,,,,,,,,,,,,,,,1353.2031430902425,6.007166846306063,None,C02N10,2021_Oct_08_1401,ER_paradigm,2021.1.4,60.07228665887701,
,,,,,Stimuli/9409.jpg,,,,,,,,,,,,,,,,,,,,,0,8,8,17,4.1,,,,,,,,,,,,,,,1363.3748575238278,6.014417229453102,None,C02N10,2021_Oct_08_1401,ER_paradigm,2021.1.4,60.07228665887701,
,,,,,Stimuli/9140.jpg,,,,,,,,,,,,,,,,,,,,,0,9,9,15,4.8,,,,,,,,,,,,,,,1374.2387514769798,6.0031789558706805,None,C02N10,2021_Oct_08_1401,ER_paradigm,2021.1.4,60.07228665887701,
,,,,,Stimuli/6940.jpg,,,,,,,,,,,,,,,,,,,,,0,10,10,12,4.7,,,,,,,,,,,,,,,1385.008172753267,6.013832407188602,None,C02N10,2021_Oct_08_1401,ER_paradigm,2021.1.4,60.07228665887701,
,,,,,Stimuli/326.jpg,,,,,,,,,,,,,,,,,,,,,0,11,11,5,3.8,,,,,,,,,,,,,,,1394.8608376719058,6.007591267465614,None,C02N10,2021_Oct_08_1401,ER_paradigm,2021.1.4,60.07228665887701,
,,,,,Stimuli/1301.jpg,,,,,,,,,,,,,,,,,,,,,0,12,12,6,3.1,,,,,,,,,,,,,,,1404.0206179481465,6.0053248008480296,None,C02N10,2021_Oct_08_1401,ER_paradigm,2021.1.4,60.07228665887701,
,,,,,Stimuli/254.jpg,,,,,,,,,,,,,,,,,,,,,0,13,13,4,3.5,,,,,,,,,,,,,,,1413.569784873398,6.006727090803906,None,C02N10,2021_Oct_08_1401,ER_paradigm,2021.1.4,60.07228665887701,
,,,,,Stimuli/208.jpg,,,,,,,,,,,,,,,,,,,,,0,14,14,0,3.9,,,,,,,,,,,,,,,1423.5317807369865,6.001460098545067,None,C02N10,2021_Oct_08_1401,ER_paradigm,2021.1.4,60.07228665887701,
,,,,,Stimuli/253.jpg,,,,,,,,,,,,,,,,,,,,,0,15,15,3,4.5,,,,,,,,,,,,,,,1434.0811526546022,6.000690494431183,None,C02N10,2021_Oct_08_1401,ER_paradigm,2021.1.4,60.07228665887701,
,,,,,Stimuli/9570.jpg,,,,,,,,,,,,,,,,,,,,,0,16,16,18,4.7,,,,,,,,,,,,,,,1444.8498742616503,6.014638903550804,None,C02N10,2021_Oct_08_1401,ER_paradigm,2021.1.4,60.07228665887701,
,,,,,Stimuli/6555.jpg,,,,,,,,,,,,,,,,,,,,,0,17,17,10,3.5,,,,,,,,,,,,,,,1454.4123961764853,6.004317161627114,None,C02N10,2021_Oct_08_1401,ER_paradigm,2021.1.4,60.07228665887701,
,,,,,Stimuli/3350.jpg,,,,,,,,,,,,,,,,,,,,,0,18,18,7,4.1,,,,,,,,,,,,,,,1464.5636986168101,6.002362514729612,None,C02N10,2021_Oct_08_1401,ER_paradigm,2021.1.4,60.07228665887701,
,,,,,Stimuli/6410.jpg,,,,,,,,,,,,,,,,,,,,,0,19,19,9,4.1,,,,,,,,,,,,,,,1474.7133656082442,6.002538314205594,None,C02N10,2021_Oct_08_1401,ER_paradigm,2021.1.4,60.07228665887701,
,,,,,,,,,,,,,,,,,,,,,,,,,,,,,,,,,,258.5185185185185,4.385164893930778,77.03703703703704,2.365136900683865,,,,,,,,,,,C02N10,2021_Oct_08_1401,ER_paradigm,2021.1.4,60.07228665887701,
