Block,conds_view_File,n_reps,instr_1,TriggerBlockView,ImageFile,Trigger,conds_reg_File,TriggerBlockReg,instr_2,blocks_view.thisRepN,blocks_view.thisTrialN,blocks_view.thisN,blocks_view.thisIndex,trials_view.thisRepN,trials_view.thisTrialN,trials_view.thisN,trials_view.thisIndex,blocks_reg.thisRepN,blocks_reg.thisTrialN,blocks_reg.thisN,blocks_reg.thisIndex,trials_reg.thisRepN,trials_reg.thisTrialN,trials_reg.thisN,trials_reg.thisIndex,trials_choice.thisRepN,trials_choice.thisTrialN,trials_choice.thisN,trials_choice.thisIndex,Fix_jitter,image_view.started,image_view.lasted,image_view.stopped,slider_arousal.response,slider_arousal.rt,slider_effort.response,slider_effort.rt,image_reg.started,image_reg.lasted,image_reg.stopped,resp_choice.keys,resp_choice.rt,key_resp.keys,key_resp.rt,image.started,image.lased,image.stopped,participant,date,expName,psychopyVersion,frameRate,
,,,,,,,,,,,,,,,,,,,,,,,,,,,,,,,,,,,,,,,,,,,,,,,,D17T06,2021_Nov_02_1015,ER,2021.1.4,59.9406206664071,
1,StimuliNeutral.xlsx,1,ANSCHAUEN,21,Stimuli/107.jpg,1,,,,0,0,0,0,0,0,0,1,,,,,,,,,,,,,4.7,47.430350687820464,6.031561971758492,None,,,,,,,,,,,,,,,D17T06,2021_Nov_02_1015,ER,2021.1.4,59.9406206664071,
1,StimuliNeutral.xlsx,1,ANSCHAUEN,21,Stimuli/124.jpg,1,,,,0,0,0,0,0,1,1,2,,,,,,,,,,,,,4.5,57.968421859666705,6.009234861820005,None,,,,,,,,,,,,,,,D17T06,2021_Nov_02_1015,ER,2021.1.4,59.9406206664071,
1,StimuliNeutral.xlsx,1,ANSCHAUEN,21,Stimuli/083.jpg,1,,,,0,0,0,0,0,2,2,0,,,,,,,,,,,,,3.4,67.42486208723858,6.012513586087152,None,,,,,,,,,,,,,,,D17T06,2021_Nov_02_1015,ER,2021.1.4,59.9406206664071,
1,StimuliNeutral.xlsx,1,ANSCHAUEN,21,Stimuli/7006.jpg,1,,,,0,0,0,0,0,3,3,8,,,,,,,,,,,,,4.6,78.08954224130139,6.001842109020799,None,,,,,,,,,,,,,,,D17T06,2021_Nov_02_1015,ER,2021.1.4,59.9406206664071,
1,StimuliNeutral.xlsx,1,ANSCHAUEN,21,Stimuli/7235.jpg,1,,,,0,0,0,0,0,4,4,19,,,,,,,,,,,,,3.1,87.25104068149813,6.011933576082811,None,,,,,,,,,,,,,,,D17T06,2021_Nov_02_1015,ER,2021.1.4,59.9406206664071,
1,StimuliNeutral.xlsx,1,ANSCHAUEN,21,Stimuli/7150.jpg,1,,,,0,0,0,0,0,5,5,14,,,,,,,,,,,,,4.0,97.29805388709065,6.001221036305651,None,,,,,,,,,,,,,,,D17T06,2021_Nov_02_1015,ER,2021.1.4,59.9406206664071,
1,StimuliNeutral.xlsx,1,ANSCHAUEN,21,Stimuli/7009.jpg,1,,,,0,0,0,0,0,6,6,9,,,,,,,,,,,,,4.5,107.85617293533869,6.001397156622261,None,,,,,,,,,,,,,,,D17T06,2021_Nov_02_1015,ER,2021.1.4,59.9406206664071,
1,StimuliNeutral.xlsx,1,ANSCHAUEN,21,Stimuli/7004.jpg,1,,,,0,0,0,0,0,7,7,7,,,,,,,,,,,,,3.3,117.22017536323983,6.0075741983018816,None,,,,,,,,,,,,,,,D17T06,2021_Nov_02_1015,ER,2021.1.4,59.9406206664071,
1,StimuliNeutral.xlsx,1,ANSCHAUEN,21,Stimuli/7002.jpg,1,,,,0,0,0,0,0,8,8,6,,,,,,,,,,,,,3.6,126.86790722922888,6.011013195151463,None,,,,,,,,,,,,,,,D17T06,2021_Nov_02_1015,ER,2021.1.4,59.9406206664071,
1,StimuliNeutral.xlsx,1,ANSCHAUEN,21,Stimuli/7185.jpg,1,,,,0,0,0,0,0,9,9,15,,,,,,,,,,,,,4.2,137.14019045373425,6.01585839537438,None,,,,,,,,,,,,,,,D17T06,2021_Nov_02_1015,ER,2021.1.4,59.9406206664071,
1,StimuliNeutral.xlsx,1,ANSCHAUEN,21,Stimuli/7021.jpg,1,,,,0,0,0,0,0,10,10,10,,,,,,,,,,,,,4.8,148.00244996452238,6.007656002766453,None,,,,,,,,,,,,,,,D17T06,2021_Nov_02_1015,ER,2021.1.4,59.9406206664071,
1,StimuliNeutral.xlsx,1,ANSCHAUEN,21,Stimuli/7224.jpg,1,,,,0,0,0,0,0,11,11,17,,,,,,,,,,,,,5.0,159.0589297148399,6.01050664903596,None,,,,,,,,,,,,,,,D17T06,2021_Nov_02_1015,ER,2021.1.4,59.9406206664071,
1,StimuliNeutral.xlsx,1,ANSCHAUEN,21,Stimuli/7000.jpg,1,,,,0,0,0,0,0,12,12,5,,,,,,,,,,,,,3.2,168.31846138252877,6.010724794236012,None,,,,,,,,,,,,,,,D17T06,2021_Nov_02_1015,ER,2021.1.4,59.9406206664071,
1,StimuliNeutral.xlsx,1,ANSCHAUEN,21,Stimuli/7233.jpg,1,,,,0,0,0,0,0,13,13,18,,,,,,,,,,,,,4.7,179.07934234314598,6.006169085740112,None,,,,,,,,,,,,,,,D17T06,2021_Nov_02_1015,ER,2021.1.4,59.9406206664071,
1,StimuliNeutral.xlsx,1,ANSCHAUEN,21,Stimuli/140.jpg,1,,,,0,0,0,0,0,14,14,3,,,,,,,,,,,,,4.0,189.13652882026508,6.00671027880162,None,,,,,,,,,,,,,,,D17T06,2021_Nov_02_1015,ER,2021.1.4,59.9406206664071,
1,StimuliNeutral.xlsx,1,ANSCHAUEN,21,Stimuli/7025.jpg,1,,,,0,0,0,0,0,15,15,11,,,,,,,,,,,,,3.9,199.08747691835742,6.005224644672126,None,,,,,,,,,,,,,,,D17T06,2021_Nov_02_1015,ER,2021.1.4,59.9406206664071,
1,StimuliNeutral.xlsx,1,ANSCHAUEN,21,Stimuli/7041.jpg,1,,,,0,0,0,0,0,16,16,12,,,,,,,,,,,,,4.1,209.25734059035312,6.016776851378381,None,,,,,,,,,,,,,,,D17T06,2021_Nov_02_1015,ER,2021.1.4,59.9406206664071,
1,StimuliNeutral.xlsx,1,ANSCHAUEN,21,Stimuli/7211.jpg,1,,,,0,0,0,0,0,17,17,16,,,,,,,,,,,,,4.8,220.1121488341596,6.006718940217979,None,,,,,,,,,,,,,,,D17T06,2021_Nov_02_1015,ER,2021.1.4,59.9406206664071,
1,StimuliNeutral.xlsx,1,ANSCHAUEN,21,Stimuli/143.jpg,1,,,,0,0,0,0,0,18,18,4,,,,,,,,,,,,,3.3,229.468487624079,6.009297225740738,None,,,,,,,,,,,,,,,D17T06,2021_Nov_02_1015,ER,2021.1.4,59.9406206664071,
1,StimuliNeutral.xlsx,1,ANSCHAUEN,21,Stimuli/7100.jpg,1,,,,0,0,0,0,0,19,19,13,,,,,,,,,,,,,4.7,240.23918769101147,6.001733357203193,None,,,,,,,,,,,,,,,D17T06,2021_Nov_02_1015,ER,2021.1.4,59.9406206664071,
1,StimuliNeutral.xlsx,1,ANSCHAUEN,21,,,,,,0,0,0,0,,,,,,,,,,,,,,,,,,,,,1.1111111111111072,6.3008753401227295,2.9629629629629672,3.713589619845152,,,,,,,,,,,D17T06,2021_Nov_02_1015,ER,2021.1.4,59.9406206664071,
2,StimuliNegative.xlsx,1,ANSCHAUEN,22,Stimuli/6410.jpg,,,,,0,1,1,1,0,0,0,9,,,,,,,,,,,,,3.3,265.6658815573901,6.015212492784485,None,,,,,,,,,,,,,,,D17T06,2021_Nov_02_1015,ER,2021.1.4,59.9406206664071,
2,StimuliNegative.xlsx,1,ANSCHAUEN,22,Stimuli/8230.jpg,,,,,0,1,1,1,0,1,1,13,,,,,,,,,,,,,4.5,276.238186468021,6.002466068835929,None,,,,,,,,,,,,,,,D17T06,2021_Nov_02_1015,ER,2021.1.4,59.9406206664071,
2,StimuliNegative.xlsx,1,ANSCHAUEN,22,Stimuli/6940.jpg,,,,,0,1,1,1,0,2,2,12,,,,,,,,,,,,,4.8,287.1011318534147,6.011581977130845,None,,,,,,,,,,,,,,,D17T06,2021_Nov_02_1015,ER,2021.1.4,59.9406206664071,
2,StimuliNegative.xlsx,1,ANSCHAUEN,22,Stimuli/208.jpg,,,,,0,1,1,1,0,3,3,0,,,,,,,,,,,,,4.5,297.6645726853749,6.0017763446085155,None,,,,,,,,,,,,,,,D17T06,2021_Nov_02_1015,ER,2021.1.4,59.9406206664071,
2,StimuliNegative.xlsx,1,ANSCHAUEN,22,Stimuli/9409.jpg,,,,,0,1,1,1,0,4,4,17,,,,,,,,,,,,,3.4,307.1260649020551,6.013226215378381,None,,,,,,,,,,,,,,,D17T06,2021_Nov_02_1015,ER,2021.1.4,59.9406206664071,
2,StimuliNegative.xlsx,1,ANSCHAUEN,22,Stimuli/9800.jpg,,,,,0,1,1,1,0,5,5,19,,,,,,,,,,,,,4.5,317.6895368518308,6.001826068852097,None,,,,,,,,,,,,,,,D17T06,2021_Nov_02_1015,ER,2021.1.4,59.9406206664071,
2,StimuliNegative.xlsx,1,ANSCHAUEN,22,Stimuli/219.jpg,,,,,0,1,1,1,0,6,6,1,,,,,,,,,,,,,4.2,327.9550880473107,6.002833066158928,None,,,,,,,,,,,,,,,D17T06,2021_Nov_02_1015,ER,2021.1.4,59.9406206664071,
2,StimuliNegative.xlsx,1,ANSCHAUEN,22,Stimuli/9041.jpg,,,,,0,1,1,1,0,7,7,14,,,,,,,,,,,,,3.6,337.62701960874256,6.010711128124967,None,,,,,,,,,,,,,,,D17T06,2021_Nov_02_1015,ER,2021.1.4,59.9406206664071,
2,StimuliNegative.xlsx,1,ANSCHAUEN,22,Stimuli/326.jpg,,,,,0,1,1,1,0,8,8,5,,,,,,,,,,,,,4.6,348.2892793120118,6.001294179353863,None,,,,,,,,,,,,,,,D17T06,2021_Nov_02_1015,ER,2021.1.4,59.9406206664071,
2,StimuliNegative.xlsx,1,ANSCHAUEN,22,Stimuli/3350.jpg,,,,,0,1,1,1,0,9,9,7,,,,,,,,,,,,,3.4,357.74893397511914,5.999221798731014,None,,,,,,,,,,,,,,,D17T06,2021_Nov_02_1015,ER,2021.1.4,59.9406206664071,
2,StimuliNegative.xlsx,1,ANSCHAUEN,22,Stimuli/9570.jpg,,,,,0,1,1,1,0,10,10,18,,,,,,,,,,,,,4.7,368.50870560260955,6.012497994932346,None,,,,,,,,,,,,,,,D17T06,2021_Nov_02_1015,ER,2021.1.4,59.9406206664071,
2,StimuliNegative.xlsx,1,ANSCHAUEN,22,Stimuli/6555.jpg,,,,,0,1,1,1,0,11,11,10,,,,,,,,,,,,,4.8,379.37305513815954,6.015870906645432,None,,,,,,,,,,,,,,,D17T06,2021_Nov_02_1015,ER,2021.1.4,59.9406206664071,
2,StimuliNegative.xlsx,1,ANSCHAUEN,22,Stimuli/6825.jpg,,,,,0,1,1,1,0,12,12,11,,,,,,,,,,,,,3.1,388.5416314319009,6.013880651444197,None,,,,,,,,,,,,,,,D17T06,2021_Nov_02_1015,ER,2021.1.4,59.9406206664071,
2,StimuliNegative.xlsx,1,ANSCHAUEN,22,Stimuli/9140.jpg,,,,,0,1,1,1,0,13,13,15,,,,,,,,,,,,,3.5,398.0922725867713,6.013948533101939,None,,,,,,,,,,,,,,,D17T06,2021_Nov_02_1015,ER,2021.1.4,59.9406206664071,
2,StimuliNegative.xlsx,1,ANSCHAUEN,22,Stimuli/1301.jpg,,,,,0,1,1,1,0,14,14,6,,,,,,,,,,,,,4.7,408.8556663891068,6.001385928597301,None,,,,,,,,,,,,,,,D17T06,2021_Nov_02_1015,ER,2021.1.4,59.9406206664071,
2,StimuliNegative.xlsx,1,ANSCHAUEN,22,Stimuli/254.jpg,,,,,0,1,1,1,0,15,15,4,,,,,,,,,,,,,4.3,419.21145468286704,6.007651511579752,None,,,,,,,,,,,,,,,D17T06,2021_Nov_02_1015,ER,2021.1.4,59.9406206664071,
2,StimuliNegative.xlsx,1,ANSCHAUEN,22,Stimuli/226.jpg,,,,,0,1,1,1,0,16,16,2,,,,,,,,,,,,,4.7,429.95971625705715,6.009750839439221,None,,,,,,,,,,,,,,,D17T06,2021_Nov_02_1015,ER,2021.1.4,59.9406206664071,
2,StimuliNegative.xlsx,1,ANSCHAUEN,22,Stimuli/253.jpg,,,,,0,1,1,1,0,17,17,3,,,,,,,,,,,,,3.8,439.7930147299776,6.010889686527662,None,,,,,,,,,,,,,,,D17T06,2021_Nov_02_1015,ER,2021.1.4,59.9406206664071,
2,StimuliNegative.xlsx,1,ANSCHAUEN,22,Stimuli/9340.jpg,,,,,0,1,1,1,0,18,18,16,,,,,,,,,,,,,3.2,449.0622214637697,6.0079515896504745,None,,,,,,,,,,,,,,,D17T06,2021_Nov_02_1015,ER,2021.1.4,59.9406206664071,
2,StimuliNegative.xlsx,1,ANSCHAUEN,22,Stimuli/6242.jpg,,,,,0,1,1,1,0,19,19,8,,,,,,,,,,,,,4.6,459.7215086161159,6.003630259074271,None,,,,,,,,,,,,,,,D17T06,2021_Nov_02_1015,ER,2021.1.4,59.9406206664071,
2,StimuliNegative.xlsx,1,ANSCHAUEN,22,,,,,,0,1,1,1,,,,,,,,,,,,,,,,,,,,,165.55555555555554,10.487166317878291,5.185185185185182,4.113953345105983,,,,,,,,,,,D17T06,2021_Nov_02_1015,ER,2021.1.4,59.9406206664071,
4,,1,DISTANZIEREN,,Stimuli/9405.jpg,,StimuliNegative.xlsx,24,Nehmen Sie die Position eines uninvolvierten Beobachters ein. Denken Sie über das Bild in einer neutralen Weise nach.,,,,,,,,,0,0,0,1,0,0,0,18,,,,,3.1,,,,,,,,500.32286727649625,6.001469657989219,None,,,,,,,,D17T06,2021_Nov_02_1015,ER,2021.1.4,59.9406206664071,
4,,1,DISTANZIEREN,,Stimuli/6571.jpg,,StimuliNegative.xlsx,24,Nehmen Sie die Position eines uninvolvierten Beobachters ein. Denken Sie über das Bild in einer neutralen Weise nach.,,,,,,,,,0,0,0,1,0,1,1,11,,,,,4.7,,,,,,,,511.0927897194633,6.011811799486168,None,,,,,,,,D17T06,2021_Nov_02_1015,ER,2021.1.4,59.9406206664071,
4,,1,DISTANZIEREN,,Stimuli/3220.jpg,,StimuliNegative.xlsx,24,Nehmen Sie die Position eines uninvolvierten Beobachters ein. Denken Sie über das Bild in einer neutralen Weise nach.,,,,,,,,,0,0,0,1,0,2,2,8,,,,,3.9,,,,,,,,521.0337717840448,6.010959942010231,None,,,,,,,,D17T06,2021_Nov_02_1015,ER,2021.1.4,59.9406206664071,
4,,1,DISTANZIEREN,,Stimuli/2981.jpg,,StimuliNegative.xlsx,24,Nehmen Sie die Position eines uninvolvierten Beobachters ein. Denken Sie über das Bild in einer neutralen Weise nach.,,,,,,,,,0,0,0,1,0,3,3,3,,,,,3.9,,,,,,,,530.997326436569,6.003809394780546,None,,,,,,,,D17T06,2021_Nov_02_1015,ER,2021.1.4,59.9406206664071,
4,,1,DISTANZIEREN,,Stimuli/3215.jpg,,StimuliNegative.xlsx,24,Nehmen Sie die Position eines uninvolvierten Beobachters ein. Denken Sie über das Bild in einer neutralen Weise nach.,,,,,,,,,0,0,0,1,0,4,4,7,,,,,3.8,,,,,,,,540.8493834828259,6.013204272603616,None,,,,,,,,D17T06,2021_Nov_02_1015,ER,2021.1.4,59.9406206664071,
4,,1,DISTANZIEREN,,Stimuli/238.jpg,,StimuliNegative.xlsx,24,Nehmen Sie die Position eines uninvolvierten Beobachters ein. Denken Sie über das Bild in einer neutralen Weise nach.,,,,,,,,,0,0,0,1,0,5,5,1,,,,,3.2,,,,,,,,550.1243688222021,6.0135364308953285,None,,,,,,,,D17T06,2021_Nov_02_1015,ER,2021.1.4,59.9406206664071,
4,,1,DISTANZIEREN,,Stimuli/9402.jpg,,StimuliNegative.xlsx,24,Nehmen Sie die Position eines uninvolvierten Beobachters ein. Denken Sie über das Bild in einer neutralen Weise nach.,,,,,,,,,0,0,0,1,0,6,6,16,,,,,4.1,,,,,,,,560.2972916616127,6.002838327316567,None,,,,,,,,D17T06,2021_Nov_02_1015,ER,2021.1.4,59.9406206664071,
4,,1,DISTANZIEREN,,Stimuli/8231.jpg,,StimuliNegative.xlsx,24,Nehmen Sie die Position eines uninvolvierten Beobachters ein. Denken Sie über das Bild in einer neutralen Weise nach.,,,,,,,,,0,0,0,1,0,7,7,13,,,,,4.5,,,,,,,,570.860078057507,6.011049253284,None,,,,,,,,D17T06,2021_Nov_02_1015,ER,2021.1.4,59.9406206664071,
4,,1,DISTANZIEREN,,Stimuli/9403.jpg,,StimuliNegative.xlsx,24,Nehmen Sie die Position eines uninvolvierten Beobachters ein. Denken Sie über das Bild in einer neutralen Weise nach.,,,,,,,,,0,0,0,1,0,8,8,17,,,,,3.5,,,,,,,,580.4140552318422,6.001771211740561,None,,,,,,,,D17T06,2021_Nov_02_1015,ER,2021.1.4,59.9406206664071,
4,,1,DISTANZIEREN,,Stimuli/6831.jpg,,StimuliNegative.xlsx,24,Nehmen Sie die Position eines uninvolvierten Beobachters ein. Denken Sie über das Bild in einer neutralen Weise nach.,,,,,,,,,0,0,0,1,0,9,9,12,,,,,4.4,,,,,,,,590.8633733352181,6.002793607651256,None,,,,,,,,D17T06,2021_Nov_02_1015,ER,2021.1.4,59.9406206664071,
4,,1,DISTANZIEREN,,Stimuli/223.jpg,,StimuliNegative.xlsx,24,Nehmen Sie die Position eines uninvolvierten Beobachters ein. Denken Sie über das Bild in einer neutralen Weise nach.,,,,,,,,,0,0,0,1,0,10,10,0,,,,,4.4,,,,,,,,601.3079387575854,6.013064851984382,None,,,,,,,,D17T06,2021_Nov_02_1015,ER,2021.1.4,59.9406206664071,
4,,1,DISTANZIEREN,,Stimuli/3181.jpg,,StimuliNegative.xlsx,24,Nehmen Sie die Position eines uninvolvierten Beobachters ein. Denken Sie über das Bild in einer neutralen Weise nach.,,,,,,,,,0,0,0,1,0,11,11,6,,,,,3.6,,,,,,,,610.9704608769389,6.004251331673004,None,,,,,,,,D17T06,2021_Nov_02_1015,ER,2021.1.4,59.9406206664071,
4,,1,DISTANZIEREN,,Stimuli/9423.jpg,,StimuliNegative.xlsx,24,Nehmen Sie die Position eines uninvolvierten Beobachters ein. Denken Sie über das Bild in einer neutralen Weise nach.,,,,,,,,,0,0,0,1,0,12,12,19,,,,,4.5,,,,,,,,621.5429563439684,6.0115323811769485,None,,,,,,,,D17T06,2021_Nov_02_1015,ER,2021.1.4,59.9406206664071,
4,,1,DISTANZIEREN,,Stimuli/3016.jpg,,StimuliNegative.xlsx,24,Nehmen Sie die Position eines uninvolvierten Beobachters ein. Denken Sie über das Bild in einer neutralen Weise nach.,,,,,,,,,0,0,0,1,0,13,13,4,,,,,3.2,,,,,,,,630.7868601444643,6.005365797667764,None,,,,,,,,D17T06,2021_Nov_02_1015,ER,2021.1.4,59.9406206664071,
4,,1,DISTANZIEREN,,Stimuli/245.jpg,,StimuliNegative.xlsx,24,Nehmen Sie die Position eines uninvolvierten Beobachters ein. Denken Sie über das Bild in einer neutralen Weise nach.,,,,,,,,,0,0,0,1,0,14,14,2,,,,,3.8,,,,,,,,640.6384372710017,6.002519514411688,None,,,,,,,,D17T06,2021_Nov_02_1015,ER,2021.1.4,59.9406206664071,
4,,1,DISTANZIEREN,,Stimuli/6020.jpg,,StimuliNegative.xlsx,24,Nehmen Sie die Position eines uninvolvierten Beobachters ein. Denken Sie über das Bild in einer neutralen Weise nach.,,,,,,,,,0,0,0,1,0,15,15,10,,,,,5.0,,,,,,,,651.7157174992608,6.01428133295849,None,,,,,,,,D17T06,2021_Nov_02_1015,ER,2021.1.4,59.9406206664071,
4,,1,DISTANZIEREN,,Stimuli/3101.jpg,,StimuliNegative.xlsx,24,Nehmen Sie die Position eines uninvolvierten Beobachters ein. Denken Sie über das Bild in einer neutralen Weise nach.,,,,,,,,,0,0,0,1,0,16,16,5,,,,,3.1,,,,,,,,660.8837391263805,6.0110805636504665,None,,,,,,,,D17T06,2021_Nov_02_1015,ER,2021.1.4,59.9406206664071,
4,,1,DISTANZIEREN,,Stimuli/9373.jpg,,StimuliNegative.xlsx,24,Nehmen Sie die Position eines uninvolvierten Beobachters ein. Denken Sie über das Bild in einer neutralen Weise nach.,,,,,,,,,0,0,0,1,0,17,17,14,,,,,3.7,,,,,,,,670.656592415995,6.000724114244804,None,,,,,,,,D17T06,2021_Nov_02_1015,ER,2021.1.4,59.9406206664071,
4,,1,DISTANZIEREN,,Stimuli/3225.jpg,,StimuliNegative.xlsx,24,Nehmen Sie die Position eines uninvolvierten Beobachters ein. Denken Sie über das Bild in einer neutralen Weise nach.,,,,,,,,,0,0,0,1,0,18,18,9,,,,,4.9,,,,,,,,681.6325130213518,6.014512951951474,None,,,,,,,,D17T06,2021_Nov_02_1015,ER,2021.1.4,59.9406206664071,
4,,1,DISTANZIEREN,,Stimuli/9400.jpg,,StimuliNegative.xlsx,24,Nehmen Sie die Position eines uninvolvierten Beobachters ein. Denken Sie über das Bild in einer neutralen Weise nach.,,,,,,,,,0,0,0,1,0,19,19,15,,,,,3.5,,,,,,,,691.2002195569221,6.012479581055231,None,,,,,,,,D17T06,2021_Nov_02_1015,ER,2021.1.4,59.9406206664071,
4,,1,DISTANZIEREN,,,,StimuliNegative.xlsx,24,Nehmen Sie die Position eines uninvolvierten Beobachters ein. Denken Sie über das Bild in einer neutralen Weise nach.,,,,,,,,,0,0,0,1,,,,,,,,,,,,,94.81481481481482,12.717952205683105,171.48148148148147,7.364080703584477,,,,,,,,,,,D17T06,2021_Nov_02_1015,ER,2021.1.4,59.9406206664071,
5,,1,UNTERDRÜCKEN,,Stimuli/3180.jpg,,StimuliNegative.xlsx,25,"Unterdrücken Sie alle aufkommenden Emotionen. Wenn Sie also die Bilder ansehen, verhalten Sie sich so, dass eine außenstehende Person nicht sehen kann, welche Emotionen Sie gerade empfinden.",,,,,,,,,0,1,1,2,0,0,0,7,,,,,4.0,,,,,,,,740.8975730690872,6.000444374978542,None,,,,,,,,D17T06,2021_Nov_02_1015,ER,2021.1.4,59.9406206664071,
5,,1,UNTERDRÜCKEN,,Stimuli/9920.jpg,,StimuliNegative.xlsx,25,"Unterdrücken Sie alle aufkommenden Emotionen. Wenn Sie also die Bilder ansehen, verhalten Sie sich so, dass eine außenstehende Person nicht sehen kann, welche Emotionen Sie gerade empfinden.",,,,,,,,,0,1,1,2,0,1,1,19,,,,,4.4,,,,,,,,751.3567988199648,6.0007943698437884,None,,,,,,,,D17T06,2021_Nov_02_1015,ER,2021.1.4,59.9406206664071,
5,,1,UNTERDRÜCKEN,,Stimuli/9326.jpg,,StimuliNegative.xlsx,25,"Unterdrücken Sie alle aufkommenden Emotionen. Wenn Sie also die Bilder ansehen, verhalten Sie sich so, dass eine außenstehende Person nicht sehen kann, welche Emotionen Sie gerade empfinden.",,,,,,,,,0,1,1,2,0,2,2,16,,,,,4.1,,,,,,,,761.5159307041904,6.013856142293662,None,,,,,,,,D17T06,2021_Nov_02_1015,ER,2021.1.4,59.9406206664071,
5,,1,UNTERDRÜCKEN,,Stimuli/9182.jpg,,StimuliNegative.xlsx,25,"Unterdrücken Sie alle aufkommenden Emotionen. Wenn Sie also die Bilder ansehen, verhalten Sie sich so, dass eine außenstehende Person nicht sehen kann, welche Emotionen Sie gerade empfinden.",,,,,,,,,0,1,1,2,0,3,3,13,,,,,3.8,,,,,,,,771.3879474065034,6.0053526448318735,None,,,,,,,,D17T06,2021_Nov_02_1015,ER,2021.1.4,59.9406206664071,
5,,1,UNTERDRÜCKEN,,Stimuli/3022.jpg,,StimuliNegative.xlsx,25,"Unterdrücken Sie alle aufkommenden Emotionen. Wenn Sie also die Bilder ansehen, verhalten Sie sich so, dass eine außenstehende Person nicht sehen kann, welche Emotionen Sie gerade empfinden.",,,,,,,,,0,1,1,2,0,4,4,6,,,,,3.5,,,,,,,,780.9506574515253,6.011831881827675,None,,,,,,,,D17T06,2021_Nov_02_1015,ER,2021.1.4,59.9406206664071,
5,,1,UNTERDRÜCKEN,,Stimuli/3017.jpg,,StimuliNegative.xlsx,25,"Unterdrücken Sie alle aufkommenden Emotionen. Wenn Sie also die Bilder ansehen, verhalten Sie sich so, dass eine außenstehende Person nicht sehen kann, welche Emotionen Sie gerade empfinden.",,,,,,,,,0,1,1,2,0,5,5,5,,,,,3.2,,,,,,,,790.206280147424,6.0156104154884815,None,,,,,,,,D17T06,2021_Nov_02_1015,ER,2021.1.4,59.9406206664071,
5,,1,UNTERDRÜCKEN,,Stimuli/9300.jpg,,StimuliNegative.xlsx,25,"Unterdrücken Sie alle aufkommenden Emotionen. Wenn Sie also die Bilder ansehen, verhalten Sie sich so, dass eine außenstehende Person nicht sehen kann, welche Emotionen Sie gerade empfinden.",,,,,,,,,0,1,1,2,0,6,6,15,,,,,4.1,,,,,,,,800.3667241116054,6.013414718792774,None,,,,,,,,D17T06,2021_Nov_02_1015,ER,2021.1.4,59.9406206664071,
5,,1,UNTERDRÜCKEN,,Stimuli/255.jpg,,StimuliNegative.xlsx,25,"Unterdrücken Sie alle aufkommenden Emotionen. Wenn Sie also die Bilder ansehen, verhalten Sie sich so, dass eine außenstehende Person nicht sehen kann, welche Emotionen Sie gerade empfinden.",,,,,,,,,0,1,1,2,0,7,7,2,,,,,3.9,,,,,,,,810.3347869939171,6.009963852004148,None,,,,,,,,D17T06,2021_Nov_02_1015,ER,2021.1.4,59.9406206664071,
5,,1,UNTERDRÜCKEN,,Stimuli/3280.jpg,,StimuliNegative.xlsx,25,"Unterdrücken Sie alle aufkommenden Emotionen. Wenn Sie also die Bilder ansehen, verhalten Sie sich so, dass eine außenstehende Person nicht sehen kann, welche Emotionen Sie gerade empfinden.",,,,,,,,,0,1,1,2,0,8,8,8,,,,,3.3,,,,,,,,819.7066532400204,6.015473753912374,None,,,,,,,,D17T06,2021_Nov_02_1015,ER,2021.1.4,59.9406206664071,
5,,1,UNTERDRÜCKEN,,Stimuli/9424.jpg,,StimuliNegative.xlsx,25,"Unterdrücken Sie alle aufkommenden Emotionen. Wenn Sie also die Bilder ansehen, verhalten Sie sich so, dass eine außenstehende Person nicht sehen kann, welche Emotionen Sie gerade empfinden.",,,,,,,,,0,1,1,2,0,9,9,17,,,,,5.0,,,,,,,,830.774874341907,6.013828681549057,None,,,,,,,,D17T06,2021_Nov_02_1015,ER,2021.1.4,59.9406206664071,
5,,1,UNTERDRÜCKEN,,Stimuli/9425.jpg,,StimuliNegative.xlsx,25,"Unterdrücken Sie alle aufkommenden Emotionen. Wenn Sie also die Bilder ansehen, verhalten Sie sich so, dass eine außenstehende Person nicht sehen kann, welche Emotionen Sie gerade empfinden.",,,,,,,,,0,1,1,2,0,10,10,18,,,,,3.0,,,,,,,,839.8270790854003,6.008462498895824,None,,,,,,,,D17T06,2021_Nov_02_1015,ER,2021.1.4,59.9406206664071,
5,,1,UNTERDRÜCKEN,,Stimuli/230.jpg,,StimuliNegative.xlsx,25,"Unterdrücken Sie alle aufkommenden Emotionen. Wenn Sie also die Bilder ansehen, verhalten Sie sich so, dass eine außenstehende Person nicht sehen kann, welche Emotionen Sie gerade empfinden.",,,,,,,,,0,1,1,2,0,11,11,1,,,,,3.9,,,,,,,,849.7732177205617,6.016440201899968,None,,,,,,,,D17T06,2021_Nov_02_1015,ER,2021.1.4,59.9406206664071,
5,,1,UNTERDRÜCKEN,,Stimuli/9180.jpg,,StimuliNegative.xlsx,25,"Unterdrücken Sie alle aufkommenden Emotionen. Wenn Sie also die Bilder ansehen, verhalten Sie sich so, dass eine außenstehende Person nicht sehen kann, welche Emotionen Sie gerade empfinden.",,,,,,,,,0,1,1,2,0,12,12,12,,,,,4.2,,,,,,,,860.0399305400206,6.016830104519613,None,,,,,,,,D17T06,2021_Nov_02_1015,ER,2021.1.4,59.9406206664071,
5,,1,UNTERDRÜCKEN,,Stimuli/1111.jpg,,StimuliNegative.xlsx,25,"Unterdrücken Sie alle aufkommenden Emotionen. Wenn Sie also die Bilder ansehen, verhalten Sie sich so, dass eine außenstehende Person nicht sehen kann, welche Emotionen Sie gerade empfinden.",,,,,,,,,0,1,1,2,0,13,13,4,,,,,4.0,,,,,,,,870.0895906824153,6.016315730754286,None,,,,,,,,D17T06,2021_Nov_02_1015,ER,2021.1.4,59.9406206664071,
5,,1,UNTERDRÜCKEN,,Stimuli/6244.jpg,,StimuliNegative.xlsx,25,"Unterdrücken Sie alle aufkommenden Emotionen. Wenn Sie also die Bilder ansehen, verhalten Sie sich so, dass eine außenstehende Person nicht sehen kann, welche Emotionen Sie gerade empfinden.",,,,,,,,,0,1,1,2,0,14,14,10,,,,,3.5,,,,,,,,879.6354951963294,6.007950498955324,None,,,,,,,,D17T06,2021_Nov_02_1015,ER,2021.1.4,59.9406206664071,
5,,1,UNTERDRÜCKEN,,Stimuli/327.jpg,,StimuliNegative.xlsx,25,"Unterdrücken Sie alle aufkommenden Emotionen. Wenn Sie also die Bilder ansehen, verhalten Sie sich so, dass eine außenstehende Person nicht sehen kann, welche Emotionen Sie gerade empfinden.",,,,,,,,,0,1,1,2,0,15,15,3,,,,,4.9,,,,,,,,890.59474789456,6.00544150697533,None,,,,,,,,D17T06,2021_Nov_02_1015,ER,2021.1.4,59.9406206664071,
5,,1,UNTERDRÜCKEN,,Stimuli/225.jpg,,StimuliNegative.xlsx,25,"Unterdrücken Sie alle aufkommenden Emotionen. Wenn Sie also die Bilder ansehen, verhalten Sie sich so, dass eine außenstehende Person nicht sehen kann, welche Emotionen Sie gerade empfinden.",,,,,,,,,0,1,1,2,0,16,16,0,,,,,3.7,,,,,,,,900.3333773901686,6.011469568009488,None,,,,,,,,D17T06,2021_Nov_02_1015,ER,2021.1.4,59.9406206664071,
5,,1,UNTERDRÜCKEN,,Stimuli/9253.jpg,,StimuliNegative.xlsx,25,"Unterdrücken Sie alle aufkommenden Emotionen. Wenn Sie also die Bilder ansehen, verhalten Sie sich so, dass eine außenstehende Person nicht sehen kann, welche Emotionen Sie gerade empfinden.",,,,,,,,,0,1,1,2,0,17,17,14,,,,,3.2,,,,,,,,909.5922090678941,6.012661924818531,None,,,,,,,,D17T06,2021_Nov_02_1015,ER,2021.1.4,59.9406206664071,
5,,1,UNTERDRÜCKEN,,Stimuli/6190.jpg,,StimuliNegative.xlsx,25,"Unterdrücken Sie alle aufkommenden Emotionen. Wenn Sie also die Bilder ansehen, verhalten Sie sich so, dass eine außenstehende Person nicht sehen kann, welche Emotionen Sie gerade empfinden.",,,,,,,,,0,1,1,2,0,18,18,9,,,,,4.0,,,,,,,,919.6525275344029,6.008210990112275,None,,,,,,,,D17T06,2021_Nov_02_1015,ER,2021.1.4,59.9406206664071,
5,,1,UNTERDRÜCKEN,,Stimuli/6836.jpg,,StimuliNegative.xlsx,25,"Unterdrücken Sie alle aufkommenden Emotionen. Wenn Sie also die Bilder ansehen, verhalten Sie sich so, dass eine außenstehende Person nicht sehen kann, welche Emotionen Sie gerade empfinden.",,,,,,,,,0,1,1,2,0,19,19,11,,,,,3.1,,,,,,,,928.8185101443669,6.008504203055054,None,,,,,,,,D17T06,2021_Nov_02_1015,ER,2021.1.4,59.9406206664071,
5,,1,UNTERDRÜCKEN,,,,StimuliNegative.xlsx,25,"Unterdrücken Sie alle aufkommenden Emotionen. Wenn Sie also die Bilder ansehen, verhalten Sie sich so, dass eine außenstehende Person nicht sehen kann, welche Emotionen Sie gerade empfinden.",,,,,,,,,0,1,1,2,,,,,,,,,,,,,199.62962962962962,10.068765502772294,257.77777777777777,11.930701966048218,,,,,,,,,,,D17T06,2021_Nov_02_1015,ER,2021.1.4,59.9406206664071,
3,,1,ABLENKEN,,Stimuli/9145.jpg,,StimuliNegative.xlsx,23,"Denken Sie während des Betrachtens der Bilder an etwas Neutrales, das mit dem Bild nichts zu tun hat. Das könnten geometrische Figuren, Alltagstätigkeiten oder bekannte Orte sein.",,,,,,,,,0,2,2,0,0,0,0,16,,,,,4.3,,,,,,,,975.4310625473736,6.000791931641288,None,,,,,,,,D17T06,2021_Nov_02_1015,ER,2021.1.4,59.9406206664071,
3,,1,ABLENKEN,,Stimuli/3185.jpg,,StimuliNegative.xlsx,23,"Denken Sie während des Betrachtens der Bilder an etwas Neutrales, das mit dem Bild nichts zu tun hat. Das könnten geometrische Figuren, Alltagstätigkeiten oder bekannte Orte sein.",,,,,,,,,0,2,2,0,0,1,1,9,,,,,3.4,,,,,,,,984.8762384559959,6.01006297999993,None,,,,,,,,D17T06,2021_Nov_02_1015,ER,2021.1.4,59.9406206664071,
3,,1,ABLENKEN,,Stimuli/228.jpg,,StimuliNegative.xlsx,23,"Denken Sie während des Betrachtens der Bilder an etwas Neutrales, das mit dem Bild nichts zu tun hat. Das könnten geometrische Figuren, Alltagstätigkeiten oder bekannte Orte sein.",,,,,,,,,0,2,2,0,0,2,2,3,,,,,4.7,,,,,,,,995.6285254530376,6.005265065818094,None,,,,,,,,D17T06,2021_Nov_02_1015,ER,2021.1.4,59.9406206664071,
3,,1,ABLENKEN,,Stimuli/3160.jpg,,StimuliNegative.xlsx,23,"Denken Sie während des Betrachtens der Bilder an etwas Neutrales, das mit dem Bild nichts zu tun hat. Das könnten geometrische Figuren, Alltagstätigkeiten oder bekannte Orte sein.",,,,,,,,,0,2,2,0,0,3,3,8,,,,,4.9,,,,,,,,1006.5920419300674,6.012976310797967,None,,,,,,,,D17T06,2021_Nov_02_1015,ER,2021.1.4,59.9406206664071,
3,,1,ABLENKEN,,Stimuli/9160.jpg,,StimuliNegative.xlsx,23,"Denken Sie während des Betrachtens der Bilder an etwas Neutrales, das mit dem Bild nichts zu tun hat. Das könnten geometrische Figuren, Alltagstätigkeiten oder bekannte Orte sein.",,,,,,,,,0,2,2,0,0,4,4,17,,,,,3.7,,,,,,,,1016.3505207257112,6.011872302857228,None,,,,,,,,D17T06,2021_Nov_02_1015,ER,2021.1.4,59.9406206664071,
3,,1,ABLENKEN,,Stimuli/9043.jpg,,StimuliNegative.xlsx,23,"Denken Sie während des Betrachtens der Bilder an etwas Neutrales, das mit dem Bild nichts zu tun hat. Das könnten geometrische Figuren, Alltagstätigkeiten oder bekannte Orte sein.",,,,,,,,,0,2,2,0,0,5,5,15,,,,,3.8,,,,,,,,1026.2223330771085,6.001574239344336,None,,,,,,,,D17T06,2021_Nov_02_1015,ER,2021.1.4,59.9406206664071,
3,,1,ABLENKEN,,Stimuli/222.jpg,,StimuliNegative.xlsx,23,"Denken Sie während des Betrachtens der Bilder an etwas Neutrales, das mit dem Bild nichts zu tun hat. Das könnten geometrische Figuren, Alltagstätigkeiten oder bekannte Orte sein.",,,,,,,,,0,2,2,0,0,6,6,2,,,,,3.3,,,,,,,,1035.571618394577,6.001559995929711,None,,,,,,,,D17T06,2021_Nov_02_1015,ER,2021.1.4,59.9406206664071,
3,,1,ABLENKEN,,Stimuli/3051.jpg,,StimuliNegative.xlsx,23,"Denken Sie während des Betrachtens der Bilder an etwas Neutrales, das mit dem Bild nichts zu tun hat. Das könnten geometrische Figuren, Alltagstätigkeiten oder bekannte Orte sein.",,,,,,,,,0,2,2,0,0,7,7,7,,,,,4.0,,,,,,,,1045.620490968111,6.005782519234344,None,,,,,,,,D17T06,2021_Nov_02_1015,ER,2021.1.4,59.9406206664071,
3,,1,ABLENKEN,,Stimuli/246.jpg,,StimuliNegative.xlsx,23,"Denken Sie während des Betrachtens der Bilder an etwas Neutrales, das mit dem Bild nichts zu tun hat. Das könnten geometrische Figuren, Alltagstätigkeiten oder bekannte Orte sein.",,,,,,,,,0,2,2,0,0,8,8,4,,,,,3.3,,,,,,,,1054.9695898996433,6.007109548780136,None,,,,,,,,D17T06,2021_Nov_02_1015,ER,2021.1.4,59.9406206664071,
3,,1,ABLENKEN,,Stimuli/2703.jpg,,StimuliNegative.xlsx,23,"Denken Sie während des Betrachtens der Bilder an etwas Neutrales, das mit dem Bild nichts zu tun hat. Das könnten geometrische Figuren, Alltagstätigkeiten oder bekannte Orte sein.",,,,,,,,,0,2,2,0,0,9,9,6,,,,,4.7,,,,,,,,1065.7523566111922,6.008400712511502,None,,,,,,,,D17T06,2021_Nov_02_1015,ER,2021.1.4,59.9406206664071,
3,,1,ABLENKEN,,Stimuli/9184.jpg,,StimuliNegative.xlsx,23,"Denken Sie während des Betrachtens der Bilder an etwas Neutrales, das mit dem Bild nichts zu tun hat. Das könnten geometrische Figuren, Alltagstätigkeiten oder bekannte Orte sein.",,,,,,,,,0,2,2,0,0,10,10,18,,,,,4.0,,,,,,,,1075.79468803294,6.007206238340586,None,,,,,,,,D17T06,2021_Nov_02_1015,ER,2021.1.4,59.9406206664071,
3,,1,ABLENKEN,,Stimuli/251.jpg,,StimuliNegative.xlsx,23,"Denken Sie während des Betrachtens der Bilder an etwas Neutrales, das mit dem Bild nichts zu tun hat. Das könnten geometrische Figuren, Alltagstätigkeiten oder bekannte Orte sein.",,,,,,,,,0,2,2,0,0,11,11,5,,,,,3.8,,,,,,,,1085.6372304140823,6.003309008083306,None,,,,,,,,D17T06,2021_Nov_02_1015,ER,2021.1.4,59.9406206664071,
3,,1,ABLENKEN,,Stimuli/210.jpg,,StimuliNegative.xlsx,23,"Denken Sie während des Betrachtens der Bilder an etwas Neutrales, das mit dem Bild nichts zu tun hat. Das könnten geometrische Figuren, Alltagstätigkeiten oder bekannte Orte sein.",,,,,,,,,0,2,2,0,0,12,12,0,,,,,4.2,,,,,,,,1095.8878588650841,6.003249659552239,None,,,,,,,,D17T06,2021_Nov_02_1015,ER,2021.1.4,59.9406206664071,
3,,1,ABLENKEN,,Stimuli/218.jpg,,StimuliNegative.xlsx,23,"Denken Sie während des Betrachtens der Bilder an etwas Neutrales, das mit dem Bild nichts zu tun hat. Das könnten geometrische Figuren, Alltagstätigkeiten oder bekannte Orte sein.",,,,,,,,,0,2,2,0,0,13,13,1,,,,,3.4,,,,,,,,1105.330737831653,6.001578730531037,None,,,,,,,,D17T06,2021_Nov_02_1015,ER,2021.1.4,59.9406206664071,
3,,1,ABLENKEN,,Stimuli/9042.jpg,,StimuliNegative.xlsx,23,"Denken Sie während des Betrachtens der Bilder an etwas Neutrales, das mit dem Bild nichts zu tun hat. Das könnten geometrische Figuren, Alltagstätigkeiten oder bekannte Orte sein.",,,,,,,,,0,2,2,0,0,14,14,14,,,,,3.8,,,,,,,,1115.1953314974671,6.006863108719699,None,,,,,,,,D17T06,2021_Nov_02_1015,ER,2021.1.4,59.9406206664071,
3,,1,ABLENKEN,,Stimuli/9031.jpg,,StimuliNegative.xlsx,23,"Denken Sie während des Betrachtens der Bilder an etwas Neutrales, das mit dem Bild nichts zu tun hat. Das könnten geometrische Figuren, Alltagstätigkeiten oder bekannte Orte sein.",,,,,,,,,0,2,2,0,0,15,15,12,,,,,3.8,,,,,,,,1125.044180203462,6.008236333495006,None,,,,,,,,D17T06,2021_Nov_02_1015,ER,2021.1.4,59.9406206664071,
3,,1,ABLENKEN,,Stimuli/3301.jpg,,StimuliNegative.xlsx,23,"Denken Sie während des Betrachtens der Bilder an etwas Neutrales, das mit dem Bild nichts zu tun hat. Das könnten geometrische Figuren, Alltagstätigkeiten oder bekannte Orte sein.",,,,,,,,,0,2,2,0,0,16,16,10,,,,,3.7,,,,,,,,1134.797464894713,6.000311562907882,None,,,,,,,,D17T06,2021_Nov_02_1015,ER,2021.1.4,59.9406206664071,
3,,1,ABLENKEN,,Stimuli/6562.jpg,,StimuliNegative.xlsx,23,"Denken Sie während des Betrachtens der Bilder an etwas Neutrales, das mit dem Bild nichts zu tun hat. Das könnten geometrische Figuren, Alltagstätigkeiten oder bekannte Orte sein.",,,,,,,,,0,2,2,0,0,17,17,11,,,,,4.8,,,,,,,,1145.6305647911504,6.00395555223804,None,,,,,,,,D17T06,2021_Nov_02_1015,ER,2021.1.4,59.9406206664071,
3,,1,ABLENKEN,,Stimuli/9040.jpg,,StimuliNegative.xlsx,23,"Denken Sie während des Betrachtens der Bilder an etwas Neutrales, das mit dem Bild nichts zu tun hat. Das könnten geometrische Figuren, Alltagstätigkeiten oder bekannte Orte sein.",,,,,,,,,0,2,2,0,0,18,18,13,,,,,4.1,,,,,,,,1155.7940762636717,6.008628481766209,None,,,,,,,,D17T06,2021_Nov_02_1015,ER,2021.1.4,59.9406206664071,
3,,1,ABLENKEN,,Stimuli/9904.jpg,,StimuliNegative.xlsx,23,"Denken Sie während des Betrachtens der Bilder an etwas Neutrales, das mit dem Bild nichts zu tun hat. Das könnten geometrische Figuren, Alltagstätigkeiten oder bekannte Orte sein.",,,,,,,,,0,2,2,0,0,19,19,19,,,,,3.7,,,,,,,,1165.5442498174962,6.007455180864781,None,,,,,,,,D17T06,2021_Nov_02_1015,ER,2021.1.4,59.9406206664071,
3,,1,ABLENKEN,,,,StimuliNegative.xlsx,23,"Denken Sie während des Betrachtens der Bilder an etwas Neutrales, das mit dem Bild nichts zu tun hat. Das könnten geometrische Figuren, Alltagstätigkeiten oder bekannte Orte sein.",,,,,,,,,0,2,2,0,,,,,,,,,,,,,250.0,7.869098366820253,354.81481481481484,7.465668095741421,,,,,,,,,,,D17T06,2021_Nov_02_1015,ER,2021.1.4,59.9406206664071,
,,,,,,,,,,,,,,,,,,,,,,,,,,,,,,,,,,,,,,,,,3,20.714225770090707,,,,,,D17T06,2021_Nov_02_1015,ER,2021.1.4,59.9406206664071,
,,,,,,,,,,,,,,,,,,,,,,,,,,,,,,,,,,,,,,,,,,,space,6.532174190389924,,,,D17T06,2021_Nov_02_1015,ER,2021.1.4,59.9406206664071,
,,,,,Stimuli/9411.jpg,,,,,,,,,,,,,,,,,,,,,0,0,0,15,4.3,,,,,,,,,,,,,,,1326.9653793739853,6.014869363047183,None,D17T06,2021_Nov_02_1015,ER,2021.1.4,59.9406206664071,
,,,,,Stimuli/9905.jpg,,,,,,,,,,,,,,,,,,,,,0,1,1,19,4.2,,,,,,,,,,,,,,,1337.2471230480587,6.003234517760575,None,D17T06,2021_Nov_02_1015,ER,2021.1.4,59.9406206664071,
,,,,,Stimuli/9230.jpg,,,,,,,,,,,,,,,,,,,,,0,2,2,11,4.7,,,,,,,,,,,,,,,1347.9903281419538,6.016423327848315,None,D17T06,2021_Nov_02_1015,ER,2021.1.4,59.9406206664071,
,,,,,Stimuli/6838.jpg,,,,,,,,,,,,,,,,,,,,,0,3,3,7,3.0,,,,,,,,,,,,,,,1357.0509045332437,6.011939992080443,None,D17T06,2021_Nov_02_1015,ER,2021.1.4,59.9406206664071,
,,,,,Stimuli/9421.jpg,,,,,,,,,,,,,,,,,,,,,0,4,4,17,4.5,,,,,,,,,,,,,,,1367.620829414227,6.003045757883228,None,D17T06,2021_Nov_02_1015,ER,2021.1.4,59.9406206664071,
,,,,,Stimuli/9120.jpg,,,,,,,,,,,,,,,,,,,,,0,5,5,8,3.3,,,,,,,,,,,,,,,1376.9887369641801,6.016790966852568,None,D17T06,2021_Nov_02_1015,ER,2021.1.4,59.9406206664071,
,,,,,Stimuli/9185.jpg,,,,,,,,,,,,,,,,,,,,,0,6,6,10,4.0,,,,,,,,,,,,,,,1387.067361352616,6.012869162717834,None,D17T06,2021_Nov_02_1015,ER,2021.1.4,59.9406206664071,
,,,,,Stimuli/9332.jpg,,,,,,,,,,,,,,,,,,,,,0,7,7,14,3.4,,,,,,,,,,,,,,,1396.5265758754686,6.01035908004269,None,D17T06,2021_Nov_02_1015,ER,2021.1.4,59.9406206664071,
,,,,,Stimuli/227.jpg,,,,,,,,,,,,,,,,,,,,,0,8,8,0,4.0,,,,,,,,,,,,,,,1406.5870018106652,6.003741256543435,None,D17T06,2021_Nov_02_1015,ER,2021.1.4,59.9406206664071,
,,,,,Stimuli/9420.jpg,,,,,,,,,,,,,,,,,,,,,0,9,9,16,4.4,,,,,,,,,,,,,,,1417.0641536539188,6.002585214562714,None,D17T06,2021_Nov_02_1015,ER,2021.1.4,59.9406206664071,
,,,,,Stimuli/6561.jpg,,,,,,,,,,,,,,,,,,,,,0,10,10,6,4.4,,,,,,,,,,,,,,,1427.4967198000522,6.002250489895232,None,D17T06,2021_Nov_02_1015,ER,2021.1.4,59.9406206664071,
,,,,,Stimuli/9254.jpg,,,,,,,,,,,,,,,,,,,,,0,11,11,12,4.6,,,,,,,,,,,,,,,1438.146572487778,6.003717645420693,None,D17T06,2021_Nov_02_1015,ER,2021.1.4,59.9406206664071,
,,,,,Stimuli/3061.jpg,,,,,,,,,,,,,,,,,,,,,0,12,12,4,4.3,,,,,,,,,,,,,,,1448.4962049128953,6.002070199116133,None,D17T06,2021_Nov_02_1015,ER,2021.1.4,59.9406206664071,
,,,,,Stimuli/9181.jpg,,,,,,,,,,,,,,,,,,,,,0,13,13,9,4.5,,,,,,,,,,,,,,,1459.04778858379,6.000647442531772,None,D17T06,2021_Nov_02_1015,ER,2021.1.4,59.9406206664071,
,,,,,Stimuli/3230.jpg,,,,,,,,,,,,,,,,,,,,,0,14,14,5,3.7,,,,,,,,,,,,,,,1468.7998930446338,6.0127051047747955,None,D17T06,2021_Nov_02_1015,ER,2021.1.4,59.9406206664071,
,,,,,Stimuli/9599.jpg,,,,,,,,,,,,,,,,,,,,,0,15,15,18,3.8,,,,,,,,,,,,,,,1478.681038487237,6.000849034287967,None,D17T06,2021_Nov_02_1015,ER,2021.1.4,59.9406206664071,
,,,,,Stimuli/1051.jpg,,,,,,,,,,,,,,,,,,,,,0,16,16,2,4.0,,,,,,,,,,,,,,,1488.7293220685096,6.003826589905657,None,D17T06,2021_Nov_02_1015,ER,2021.1.4,59.9406206664071,
,,,,,Stimuli/9295.jpg,,,,,,,,,,,,,,,,,,,,,0,17,17,13,4.5,,,,,,,,,,,,,,,1499.2894143696176,6.00121654511895,None,D17T06,2021_Nov_02_1015,ER,2021.1.4,59.9406206664071,
,,,,,Stimuli/252.jpg,,,,,,,,,,,,,,,,,,,,,0,18,18,1,3.5,,,,,,,,,,,,,,,1508.8530672516208,6.006631040596403,None,D17T06,2021_Nov_02_1015,ER,2021.1.4,59.9406206664071,
,,,,,Stimuli/2800.jpg,,,,,,,,,,,,,,,,,,,,,0,19,19,3,4.3,,,,,,,,,,,,,,,1519.2322458574781,6.0145921900402755,None,D17T06,2021_Nov_02_1015,ER,2021.1.4,59.9406206664071,
,,,,,,,,,,,,,,,,,,,,,,,,,,,,,,,,,,265.55555555555554,9.601461317157373,155.92592592592592,5.847793267457746,,,,,,,,,,,D17T06,2021_Nov_02_1015,ER,2021.1.4,59.9406206664071,
