Block,conds_view_File,n_reps,instr_1,TriggerBlockView,ImageFile,Trigger,conds_reg_File,TriggerBlockReg,instr_2,blocks_view.thisRepN,blocks_view.thisTrialN,blocks_view.thisN,blocks_view.thisIndex,trials_view.thisRepN,trials_view.thisTrialN,trials_view.thisN,trials_view.thisIndex,blocks_reg.thisRepN,blocks_reg.thisTrialN,blocks_reg.thisN,blocks_reg.thisIndex,trials_reg.thisRepN,trials_reg.thisTrialN,trials_reg.thisN,trials_reg.thisIndex,trials_choice.thisRepN,trials_choice.thisTrialN,trials_choice.thisN,trials_choice.thisIndex,Fix_jitter,image_view.started,image_view.lasted,image_view.stopped,slider_arousal.response,slider_arousal.rt,slider_effort.response,slider_effort.rt,image_reg.started,image_reg.lasted,image_reg.stopped,resp_choice.keys,resp_choice.rt,key_resp.keys,key_resp.rt,image.started,image.lased,image.stopped,participant,date,expName,psychopyVersion,frameRate,
,,,,,,,,,,,,,,,,,,,,,,,,,,,,,,,,,,,,,,,,,,,,,,,,E03T01,2021_Oct_26_0847,ER,2021.1.4,60.05045318104658,
1,StimuliNeutral.xlsx,1,ANSCHAUEN,21,Stimuli/7233.jpg,1,,,,0,0,0,0,0,0,0,18,,,,,,,,,,,,,3.1,74.7487043614965,6.033827079460025,None,,,,,,,,,,,,,,,E03T01,2021_Oct_26_0847,ER,2021.1.4,60.05045318104658,
1,StimuliNeutral.xlsx,1,ANSCHAUEN,21,Stimuli/107.jpg,1,,,,0,0,0,0,0,1,1,1,,,,,,,,,,,,,3.1,83.91037052928004,6.013484841678292,None,,,,,,,,,,,,,,,E03T01,2021_Oct_26_0847,ER,2021.1.4,60.05045318104658,
1,StimuliNeutral.xlsx,1,ANSCHAUEN,21,Stimuli/7041.jpg,1,,,,0,0,0,0,0,2,2,12,,,,,,,,,,,,,3.5,93.48430974187795,6.002017137943767,None,,,,,,,,,,,,,,,E03T01,2021_Oct_26_0847,ER,2021.1.4,60.05045318104658,
1,StimuliNeutral.xlsx,1,ANSCHAUEN,21,Stimuli/083.jpg,1,,,,0,0,0,0,0,3,3,0,,,,,,,,,,,,,4.7,104.24198340228759,6.002597981598228,None,,,,,,,,,,,,,,,E03T01,2021_Oct_26_0847,ER,2021.1.4,60.05045318104658,
1,StimuliNeutral.xlsx,1,ANSCHAUEN,21,Stimuli/7235.jpg,1,,,,0,0,0,0,0,4,4,19,,,,,,,,,,,,,3.4,113.70000984857325,6.0005680760368705,None,,,,,,,,,,,,,,,E03T01,2021_Oct_26_0847,ER,2021.1.4,60.05045318104658,
1,StimuliNeutral.xlsx,1,ANSCHAUEN,21,Stimuli/143.jpg,1,,,,0,0,0,0,0,5,5,4,,,,,,,,,,,,,4.6,124.3493997316109,6.003230731235817,None,,,,,,,,,,,,,,,E03T01,2021_Oct_26_0847,ER,2021.1.4,60.05045318104658,
1,StimuliNeutral.xlsx,1,ANSCHAUEN,21,Stimuli/7009.jpg,1,,,,0,0,0,0,0,6,6,9,,,,,,,,,,,,,4.5,134.89781081606634,6.006607491639443,None,,,,,,,,,,,,,,,E03T01,2021_Oct_26_0847,ER,2021.1.4,60.05045318104658,
1,StimuliNeutral.xlsx,1,ANSCHAUEN,21,Stimuli/7100.jpg,1,,,,0,0,0,0,0,7,7,13,,,,,,,,,,,,,3.2,144.1537744422676,6.0115281427279115,None,,,,,,,,,,,,,,,E03T01,2021_Oct_26_0847,ER,2021.1.4,60.05045318104658,
1,StimuliNeutral.xlsx,1,ANSCHAUEN,21,Stimuli/7211.jpg,1,,,,0,0,0,0,0,8,8,16,,,,,,,,,,,,,4.9,155.10397155897226,6.010752123198472,None,,,,,,,,,,,,,,,E03T01,2021_Oct_26_0847,ER,2021.1.4,60.05045318104658,
1,StimuliNeutral.xlsx,1,ANSCHAUEN,21,Stimuli/7021.jpg,1,,,,0,0,0,0,0,9,9,10,,,,,,,,,,,,,3.1,164.26784644753207,6.016613814630546,None,,,,,,,,,,,,,,,E03T01,2021_Oct_26_0847,ER,2021.1.4,60.05045318104658,
1,StimuliNeutral.xlsx,1,ANSCHAUEN,21,Stimuli/7025.jpg,1,,,,0,0,0,0,0,10,10,11,,,,,,,,,,,,,4.7,175.0344784996705,6.014782677520998,None,,,,,,,,,,,,,,,E03T01,2021_Oct_26_0847,ER,2021.1.4,60.05045318104658,
1,StimuliNeutral.xlsx,1,ANSCHAUEN,21,Stimuli/7002.jpg,1,,,,0,0,0,0,0,11,11,6,,,,,,,,,,,,,3.0,184.0952941896394,6.012236601556651,None,,,,,,,,,,,,,,,E03T01,2021_Oct_26_0847,ER,2021.1.4,60.05045318104658,
1,StimuliNeutral.xlsx,1,ANSCHAUEN,21,Stimuli/7150.jpg,1,,,,0,0,0,0,0,12,12,14,,,,,,,,,,,,,4.6,194.75800248235464,6.0028505810769275,None,,,,,,,,,,,,,,,E03T01,2021_Oct_26_0847,ER,2021.1.4,60.05045318104658,
1,StimuliNeutral.xlsx,1,ANSCHAUEN,21,Stimuli/7004.jpg,1,,,,0,0,0,0,0,13,13,7,,,,,,,,,,,,,3.4,204.201569747529,6.0154900456545874,None,,,,,,,,,,,,,,,E03T01,2021_Oct_26_0847,ER,2021.1.4,60.05045318104658,
1,StimuliNeutral.xlsx,1,ANSCHAUEN,21,Stimuli/7000.jpg,1,,,,0,0,0,0,0,14,14,5,,,,,,,,,,,,,3.4,213.64639968890697,6.010203680256382,None,,,,,,,,,,,,,,,E03T01,2021_Oct_26_0847,ER,2021.1.4,60.05045318104658,
1,StimuliNeutral.xlsx,1,ANSCHAUEN,21,Stimuli/140.jpg,1,,,,0,0,0,0,0,15,15,3,,,,,,,,,,,,,3.6,223.29062402050477,6.003461387823336,None,,,,,,,,,,,,,,,E03T01,2021_Oct_26_0847,ER,2021.1.4,60.05045318104658,
1,StimuliNeutral.xlsx,1,ANSCHAUEN,21,Stimuli/7185.jpg,1,,,,0,0,0,0,0,16,16,15,,,,,,,,,,,,,4.0,233.33472657576203,6.000761198578402,None,,,,,,,,,,,,,,,E03T01,2021_Oct_26_0847,ER,2021.1.4,60.05045318104658,
1,StimuliNeutral.xlsx,1,ANSCHAUEN,21,Stimuli/7224.jpg,1,,,,0,0,0,0,0,17,17,17,,,,,,,,,,,,,3.6,242.98394130088855,6.016079808003269,None,,,,,,,,,,,,,,,E03T01,2021_Oct_26_0847,ER,2021.1.4,60.05045318104658,
1,StimuliNeutral.xlsx,1,ANSCHAUEN,21,Stimuli/124.jpg,1,,,,0,0,0,0,0,18,18,2,,,,,,,,,,,,,3.2,252.2442280529067,6.012220882344991,None,,,,,,,,,,,,,,,E03T01,2021_Oct_26_0847,ER,2021.1.4,60.05045318104658,
1,StimuliNeutral.xlsx,1,ANSCHAUEN,21,Stimuli/7006.jpg,1,,,,0,0,0,0,0,19,19,8,,,,,,,,,,,,,3.1,261.4188071368262,6.01376733975485,None,,,,,,,,,,,,,,,E03T01,2021_Oct_26_0847,ER,2021.1.4,60.05045318104658,
1,StimuliNeutral.xlsx,1,ANSCHAUEN,21,,,,,,0,0,0,0,,,,,,,,,,,,,,,,,,,,,10.370370370370363,4.1525788138387725,12.222222222222223,5.597472273977473,,,,,,,,,,,E03T01,2021_Oct_26_0847,ER,2021.1.4,60.05045318104658,
2,StimuliNegative.xlsx,1,ANSCHAUEN,22,Stimuli/3225.jpg,,,,,0,1,1,1,0,0,0,9,,,,,,,,,,,,,3.3,286.41194165637717,6.011188221164048,None,,,,,,,,,,,,,,,E03T01,2021_Oct_26_0847,ER,2021.1.4,60.05045318104658,
2,StimuliNegative.xlsx,1,ANSCHAUEN,22,Stimuli/223.jpg,,,,,0,1,1,1,0,1,1,0,,,,,,,,,,,,,4.8,297.26876811124384,6.014367880765349,None,,,,,,,,,,,,,,,E03T01,2021_Oct_26_0847,ER,2021.1.4,60.05045318104658,
2,StimuliNegative.xlsx,1,ANSCHAUEN,22,Stimuli/238.jpg,,,,,0,1,1,1,0,2,2,1,,,,,,,,,,,,,3.0,306.32164491782896,6.008936512982473,None,,,,,,,,,,,,,,,E03T01,2021_Oct_26_0847,ER,2021.1.4,60.05045318104658,
2,StimuliNegative.xlsx,1,ANSCHAUEN,22,Stimuli/3016.jpg,,,,,0,1,1,1,0,3,3,4,,,,,,,,,,,,,3.6,315.9812478485983,6.0058507199864835,None,,,,,,,,,,,,,,,E03T01,2021_Oct_26_0847,ER,2021.1.4,60.05045318104658,
2,StimuliNegative.xlsx,1,ANSCHAUEN,22,Stimuli/9402.jpg,,,,,0,1,1,1,0,4,4,16,,,,,,,,,,,,,3.9,325.95191468973644,6.015334456576966,None,,,,,,,,,,,,,,,E03T01,2021_Oct_26_0847,ER,2021.1.4,60.05045318104658,
2,StimuliNegative.xlsx,1,ANSCHAUEN,22,Stimuli/9400.jpg,,,,,0,1,1,1,0,5,5,15,,,,,,,,,,,,,4.3,336.3187022025231,6.013838236918673,None,,,,,,,,,,,,,,,E03T01,2021_Oct_26_0847,ER,2021.1.4,60.05045318104658,
2,StimuliNegative.xlsx,1,ANSCHAUEN,22,Stimuli/3220.jpg,,,,,0,1,1,1,0,6,6,8,,,,,,,,,,,,,4.4,346.7730121592758,6.004732725676149,None,,,,,,,,,,,,,,,E03T01,2021_Oct_26_0847,ER,2021.1.4,60.05045318104658,
2,StimuliNegative.xlsx,1,ANSCHAUEN,22,Stimuli/2981.jpg,,,,,0,1,1,1,0,7,7,3,,,,,,,,,,,,,3.7,356.53080868686084,6.007121095317416,None,,,,,,,,,,,,,,,E03T01,2021_Oct_26_0847,ER,2021.1.4,60.05045318104658,
2,StimuliNegative.xlsx,1,ANSCHAUEN,22,Stimuli/3101.jpg,,,,,0,1,1,1,0,8,8,5,,,,,,,,,,,,,4.0,366.59399606497027,6.012467258027755,None,,,,,,,,,,,,,,,E03T01,2021_Oct_26_0847,ER,2021.1.4,60.05045318104658,
2,StimuliNegative.xlsx,1,ANSCHAUEN,22,Stimuli/9403.jpg,,,,,0,1,1,1,0,9,9,17,,,,,,,,,,,,,3.9,376.54137910786085,6.001867323415354,None,,,,,,,,,,,,,,,E03T01,2021_Oct_26_0847,ER,2021.1.4,60.05045318104658,
2,StimuliNegative.xlsx,1,ANSCHAUEN,22,Stimuli/6020.jpg,,,,,0,1,1,1,0,10,10,10,,,,,,,,,,,,,3.8,386.39629999978933,6.013754956889898,None,,,,,,,,,,,,,,,E03T01,2021_Oct_26_0847,ER,2021.1.4,60.05045318104658,
2,StimuliNegative.xlsx,1,ANSCHAUEN,22,Stimuli/9373.jpg,,,,,0,1,1,1,0,11,11,14,,,,,,,,,,,,,3.0,395.4458112741122,6.011742566712201,None,,,,,,,,,,,,,,,E03T01,2021_Oct_26_0847,ER,2021.1.4,60.05045318104658,
2,StimuliNegative.xlsx,1,ANSCHAUEN,22,Stimuli/6571.jpg,,,,,0,1,1,1,0,12,12,11,,,,,,,,,,,,,3.4,404.9107834013412,6.0139743853360415,None,,,,,,,,,,,,,,,E03T01,2021_Oct_26_0847,ER,2021.1.4,60.05045318104658,
2,StimuliNegative.xlsx,1,ANSCHAUEN,22,Stimuli/3181.jpg,,,,,0,1,1,1,0,13,13,6,,,,,,,,,,,,,4.1,415.0717486171052,6.008089788490906,None,,,,,,,,,,,,,,,E03T01,2021_Oct_26_0847,ER,2021.1.4,60.05045318104658,
2,StimuliNegative.xlsx,1,ANSCHAUEN,22,Stimuli/9405.jpg,,,,,0,1,1,1,0,14,14,18,,,,,,,,,,,,,4.5,425.63330134935677,6.002214431180619,None,,,,,,,,,,,,,,,E03T01,2021_Oct_26_0847,ER,2021.1.4,60.05045318104658,
2,StimuliNegative.xlsx,1,ANSCHAUEN,22,Stimuli/8231.jpg,,,,,0,1,1,1,0,15,15,13,,,,,,,,,,,,,4.5,436.2014651661739,6.01569888764061,None,,,,,,,,,,,,,,,E03T01,2021_Oct_26_0847,ER,2021.1.4,60.05045318104658,
2,StimuliNegative.xlsx,1,ANSCHAUEN,22,Stimuli/9423.jpg,,,,,0,1,1,1,0,16,16,19,,,,,,,,,,,,,3.1,445.349092724151,6.004629748174921,None,,,,,,,,,,,,,,,E03T01,2021_Oct_26_0847,ER,2021.1.4,60.05045318104658,
2,StimuliNegative.xlsx,1,ANSCHAUEN,22,Stimuli/3215.jpg,,,,,0,1,1,1,0,17,17,7,,,,,,,,,,,,,3.6,455.0084797552554,6.000132106244564,None,,,,,,,,,,,,,,,E03T01,2021_Oct_26_0847,ER,2021.1.4,60.05045318104658,
2,StimuliNegative.xlsx,1,ANSCHAUEN,22,Stimuli/6831.jpg,,,,,0,1,1,1,0,18,18,12,,,,,,,,,,,,,3.3,464.34321563434787,6.015051637892611,None,,,,,,,,,,,,,,,E03T01,2021_Oct_26_0847,ER,2021.1.4,60.05045318104658,
2,StimuliNegative.xlsx,1,ANSCHAUEN,22,Stimuli/245.jpg,,,,,0,1,1,1,0,19,19,2,,,,,,,,,,,,,4.1,474.49580054334365,6.008521074661985,None,,,,,,,,,,,,,,,E03T01,2021_Oct_26_0847,ER,2021.1.4,60.05045318104658,
2,StimuliNegative.xlsx,1,ANSCHAUEN,22,,,,,,0,1,1,1,,,,,,,,,,,,,,,,,,,,,338.88888888888886,5.568275455851108,27.037037037037038,4.0646556882420555,,,,,,,,,,,E03T01,2021_Oct_26_0847,ER,2021.1.4,60.05045318104658,
5,,1,UNTERDRÜCKEN,,Stimuli/3051.jpg,,StimuliNegative.xlsx,25,"Unterdrücken Sie alle aufkommenden Emotionen. Wenn Sie also die Bilder ansehen, verhalten Sie sich so, dass eine außenstehende Person nicht sehen kann, welche Emotionen Sie gerade empfinden.",,,,,,,,,0,0,0,2,0,0,0,7,,,,,4.1,,,,,,,,510.83577383332886,6.014796343632042,None,,,,,,,,E03T01,2021_Oct_26_0847,ER,2021.1.4,60.05045318104658,
5,,1,UNTERDRÜCKEN,,Stimuli/3185.jpg,,StimuliNegative.xlsx,25,"Unterdrücken Sie alle aufkommenden Emotionen. Wenn Sie also die Bilder ansehen, verhalten Sie sich so, dass eine außenstehende Person nicht sehen kann, welche Emotionen Sie gerade empfinden.",,,,,,,,,0,0,0,2,0,1,1,9,,,,,4.0,,,,,,,,520.8853637042921,6.01392113219481,None,,,,,,,,E03T01,2021_Oct_26_0847,ER,2021.1.4,60.05045318104658,
5,,1,UNTERDRÜCKEN,,Stimuli/9042.jpg,,StimuliNegative.xlsx,25,"Unterdrücken Sie alle aufkommenden Emotionen. Wenn Sie also die Bilder ansehen, verhalten Sie sich so, dass eine außenstehende Person nicht sehen kann, welche Emotionen Sie gerade empfinden.",,,,,,,,,0,0,0,2,0,2,2,14,,,,,4.9,,,,,,,,531.8515710788779,6.015147108351812,None,,,,,,,,E03T01,2021_Oct_26_0847,ER,2021.1.4,60.05045318104658,
5,,1,UNTERDRÜCKEN,,Stimuli/210.jpg,,StimuliNegative.xlsx,25,"Unterdrücken Sie alle aufkommenden Emotionen. Wenn Sie also die Bilder ansehen, verhalten Sie sich so, dass eine außenstehende Person nicht sehen kann, welche Emotionen Sie gerade empfinden.",,,,,,,,,0,0,0,2,0,3,3,0,,,,,3.3,,,,,,,,541.2175466421759,6.0161159300478175,None,,,,,,,,E03T01,2021_Oct_26_0847,ER,2021.1.4,60.05045318104658,
5,,1,UNTERDRÜCKEN,,Stimuli/9031.jpg,,StimuliNegative.xlsx,25,"Unterdrücken Sie alle aufkommenden Emotionen. Wenn Sie also die Bilder ansehen, verhalten Sie sich so, dass eine außenstehende Person nicht sehen kann, welche Emotionen Sie gerade empfinden.",,,,,,,,,0,0,0,2,0,4,4,12,,,,,4.9,,,,,,,,552.2045827185502,6.0102409574901685,None,,,,,,,,E03T01,2021_Oct_26_0847,ER,2021.1.4,60.05045318104658,
5,,1,UNTERDRÜCKEN,,Stimuli/9043.jpg,,StimuliNegative.xlsx,25,"Unterdrücken Sie alle aufkommenden Emotionen. Wenn Sie also die Bilder ansehen, verhalten Sie sich so, dass eine außenstehende Person nicht sehen kann, welche Emotionen Sie gerade empfinden.",,,,,,,,,0,0,0,2,0,5,5,15,,,,,4.8,,,,,,,,563.063647407922,6.008596334606409,None,,,,,,,,E03T01,2021_Oct_26_0847,ER,2021.1.4,60.05045318104658,
5,,1,UNTERDRÜCKEN,,Stimuli/228.jpg,,StimuliNegative.xlsx,25,"Unterdrücken Sie alle aufkommenden Emotionen. Wenn Sie also die Bilder ansehen, verhalten Sie sich so, dass eine außenstehende Person nicht sehen kann, welche Emotionen Sie gerade empfinden.",,,,,,,,,0,0,0,2,0,6,6,3,,,,,4.3,,,,,,,,573.4198805397609,6.01231956097763,None,,,,,,,,E03T01,2021_Oct_26_0847,ER,2021.1.4,60.05045318104658,
5,,1,UNTERDRÜCKEN,,Stimuli/9160.jpg,,StimuliNegative.xlsx,25,"Unterdrücken Sie alle aufkommenden Emotionen. Wenn Sie also die Bilder ansehen, verhalten Sie sich so, dass eine außenstehende Person nicht sehen kann, welche Emotionen Sie gerade empfinden.",,,,,,,,,0,0,0,2,0,7,7,17,,,,,3.6,,,,,,,,583.0857666955562,6.013911700574681,None,,,,,,,,E03T01,2021_Oct_26_0847,ER,2021.1.4,60.05045318104658,
5,,1,UNTERDRÜCKEN,,Stimuli/9040.jpg,,StimuliNegative.xlsx,25,"Unterdrücken Sie alle aufkommenden Emotionen. Wenn Sie also die Bilder ansehen, verhalten Sie sich so, dass eine außenstehende Person nicht sehen kann, welche Emotionen Sie gerade empfinden.",,,,,,,,,0,0,0,2,0,8,8,13,,,,,3.8,,,,,,,,592.9280309919268,6.013193232822232,None,,,,,,,,E03T01,2021_Oct_26_0847,ER,2021.1.4,60.05045318104658,
5,,1,UNTERDRÜCKEN,,Stimuli/9184.jpg,,StimuliNegative.xlsx,25,"Unterdrücken Sie alle aufkommenden Emotionen. Wenn Sie also die Bilder ansehen, verhalten Sie sich so, dass eine außenstehende Person nicht sehen kann, welche Emotionen Sie gerade empfinden.",,,,,,,,,0,0,0,2,0,9,9,18,,,,,3.2,,,,,,,,602.200676635257,6.016153463860974,None,,,,,,,,E03T01,2021_Oct_26_0847,ER,2021.1.4,60.05045318104658,
5,,1,UNTERDRÜCKEN,,Stimuli/6562.jpg,,StimuliNegative.xlsx,25,"Unterdrücken Sie alle aufkommenden Emotionen. Wenn Sie also die Bilder ansehen, verhalten Sie sich so, dass eine außenstehende Person nicht sehen kann, welche Emotionen Sie gerade empfinden.",,,,,,,,,0,0,0,2,0,10,10,11,,,,,4.7,,,,,,,,612.966345319408,6.000898822559975,None,,,,,,,,E03T01,2021_Oct_26_0847,ER,2021.1.4,60.05045318104658,
5,,1,UNTERDRÜCKEN,,Stimuli/251.jpg,,StimuliNegative.xlsx,25,"Unterdrücken Sie alle aufkommenden Emotionen. Wenn Sie also die Bilder ansehen, verhalten Sie sich so, dass eine außenstehende Person nicht sehen kann, welche Emotionen Sie gerade empfinden.",,,,,,,,,0,0,0,2,0,11,11,5,,,,,4.3,,,,,,,,623.3281475714175,6.010921955690719,None,,,,,,,,E03T01,2021_Oct_26_0847,ER,2021.1.4,60.05045318104658,
5,,1,UNTERDRÜCKEN,,Stimuli/3160.jpg,,StimuliNegative.xlsx,25,"Unterdrücken Sie alle aufkommenden Emotionen. Wenn Sie also die Bilder ansehen, verhalten Sie sich so, dass eine außenstehende Person nicht sehen kann, welche Emotionen Sie gerade empfinden.",,,,,,,,,0,0,0,2,0,12,12,8,,,,,3.9,,,,,,,,633.2919476489769,6.000722060794942,None,,,,,,,,E03T01,2021_Oct_26_0847,ER,2021.1.4,60.05045318104658,
5,,1,UNTERDRÜCKEN,,Stimuli/2703.jpg,,StimuliNegative.xlsx,25,"Unterdrücken Sie alle aufkommenden Emotionen. Wenn Sie also die Bilder ansehen, verhalten Sie sich so, dass eine außenstehende Person nicht sehen kann, welche Emotionen Sie gerade empfinden.",,,,,,,,,0,0,0,2,0,13,13,6,,,,,4.1,,,,,,,,643.4513050058158,6.016472020186484,None,,,,,,,,E03T01,2021_Oct_26_0847,ER,2021.1.4,60.05045318104658,
5,,1,UNTERDRÜCKEN,,Stimuli/246.jpg,,StimuliNegative.xlsx,25,"Unterdrücken Sie alle aufkommenden Emotionen. Wenn Sie also die Bilder ansehen, verhalten Sie sich so, dass eine außenstehende Person nicht sehen kann, welche Emotionen Sie gerade empfinden.",,,,,,,,,0,0,0,2,0,14,14,4,,,,,4.9,,,,,,,,654.4063507217215,6.004318570368923,None,,,,,,,,E03T01,2021_Oct_26_0847,ER,2021.1.4,60.05045318104658,
5,,1,UNTERDRÜCKEN,,Stimuli/3301.jpg,,StimuliNegative.xlsx,25,"Unterdrücken Sie alle aufkommenden Emotionen. Wenn Sie also die Bilder ansehen, verhalten Sie sich so, dass eine außenstehende Person nicht sehen kann, welche Emotionen Sie gerade empfinden.",,,,,,,,,0,0,0,2,0,15,15,10,,,,,3.1,,,,,,,,663.5416412029881,6.000138522242196,None,,,,,,,,E03T01,2021_Oct_26_0847,ER,2021.1.4,60.05045318104658,
5,,1,UNTERDRÜCKEN,,Stimuli/222.jpg,,StimuliNegative.xlsx,25,"Unterdrücken Sie alle aufkommenden Emotionen. Wenn Sie also die Bilder ansehen, verhalten Sie sich so, dass eine außenstehende Person nicht sehen kann, welche Emotionen Sie gerade empfinden.",,,,,,,,,0,0,0,2,0,16,16,2,,,,,5.0,,,,,,,,674.57705933135,6.013955778675154,None,,,,,,,,E03T01,2021_Oct_26_0847,ER,2021.1.4,60.05045318104658,
5,,1,UNTERDRÜCKEN,,Stimuli/9145.jpg,,StimuliNegative.xlsx,25,"Unterdrücken Sie alle aufkommenden Emotionen. Wenn Sie also die Bilder ansehen, verhalten Sie sich so, dass eine außenstehende Person nicht sehen kann, welche Emotionen Sie gerade empfinden.",,,,,,,,,0,0,0,2,0,17,17,16,,,,,4.5,,,,,,,,685.1645790486364,6.005101198563352,None,,,,,,,,E03T01,2021_Oct_26_0847,ER,2021.1.4,60.05045318104658,
5,,1,UNTERDRÜCKEN,,Stimuli/9904.jpg,,StimuliNegative.xlsx,25,"Unterdrücken Sie alle aufkommenden Emotionen. Wenn Sie also die Bilder ansehen, verhalten Sie sich so, dass eine außenstehende Person nicht sehen kann, welche Emotionen Sie gerade empfinden.",,,,,,,,,0,0,0,2,0,18,18,19,,,,,4.8,,,,,,,,696.0207234787522,6.010473667061888,None,,,,,,,,E03T01,2021_Oct_26_0847,ER,2021.1.4,60.05045318104658,
5,,1,UNTERDRÜCKEN,,Stimuli/218.jpg,,StimuliNegative.xlsx,25,"Unterdrücken Sie alle aufkommenden Emotionen. Wenn Sie also die Bilder ansehen, verhalten Sie sich so, dass eine außenstehende Person nicht sehen kann, welche Emotionen Sie gerade empfinden.",,,,,,,,,0,0,0,2,0,19,19,1,,,,,4.1,,,,,,,,706.1693111966597,6.011386797530577,None,,,,,,,,E03T01,2021_Oct_26_0847,ER,2021.1.4,60.05045318104658,
5,,1,UNTERDRÜCKEN,,,,StimuliNegative.xlsx,25,"Unterdrücken Sie alle aufkommenden Emotionen. Wenn Sie also die Bilder ansehen, verhalten Sie sich so, dass eine außenstehende Person nicht sehen kann, welche Emotionen Sie gerade empfinden.",,,,,,,,,0,0,0,2,,,,,,,,,,,,,352.5925925925926,7.5514246970415115,317.037037037037,4.497807800536975,,,,,,,,,,,E03T01,2021_Oct_26_0847,ER,2021.1.4,60.05045318104658,
3,,1,ABLENKEN,,Stimuli/9599.jpg,,StimuliNegative.xlsx,23,"Denken Sie während des Betrachtens der Bilder an etwas Neutrales, das mit dem Bild nichts zu tun hat. Das könnten geometrische Figuren, Alltagstätigkeiten oder bekannte Orte sein.",,,,,,,,,0,1,1,0,0,0,0,18,,,,,3.6,,,,,,,,744.1339322061976,6.016502047306858,None,,,,,,,,E03T01,2021_Oct_26_0847,ER,2021.1.4,60.05045318104658,
3,,1,ABLENKEN,,Stimuli/9411.jpg,,StimuliNegative.xlsx,23,"Denken Sie während des Betrachtens der Bilder an etwas Neutrales, das mit dem Bild nichts zu tun hat. Das könnten geometrische Figuren, Alltagstätigkeiten oder bekannte Orte sein.",,,,,,,,,0,1,1,0,0,1,1,15,,,,,3.4,,,,,,,,753.5947127363179,6.011914516682737,None,,,,,,,,E03T01,2021_Oct_26_0847,ER,2021.1.4,60.05045318104658,
3,,1,ABLENKEN,,Stimuli/1051.jpg,,StimuliNegative.xlsx,23,"Denken Sie während des Betrachtens der Bilder an etwas Neutrales, das mit dem Bild nichts zu tun hat. Das könnten geometrische Figuren, Alltagstätigkeiten oder bekannte Orte sein.",,,,,,,,,0,1,1,0,0,2,2,2,,,,,4.6,,,,,,,,764.2670431596925,6.016138065373525,None,,,,,,,,E03T01,2021_Oct_26_0847,ER,2021.1.4,60.05045318104658,
3,,1,ABLENKEN,,Stimuli/9254.jpg,,StimuliNegative.xlsx,23,"Denken Sie während des Betrachtens der Bilder an etwas Neutrales, das mit dem Bild nichts zu tun hat. Das könnten geometrische Figuren, Alltagstätigkeiten oder bekannte Orte sein.",,,,,,,,,0,1,1,0,0,3,3,12,,,,,4.5,,,,,,,,774.8339994783746,6.016732511110604,None,,,,,,,,E03T01,2021_Oct_26_0847,ER,2021.1.4,60.05045318104658,
3,,1,ABLENKEN,,Stimuli/9295.jpg,,StimuliNegative.xlsx,23,"Denken Sie während des Betrachtens der Bilder an etwas Neutrales, das mit dem Bild nichts zu tun hat. Das könnten geometrische Figuren, Alltagstätigkeiten oder bekannte Orte sein.",,,,,,,,,0,1,1,0,0,4,4,13,,,,,4.3,,,,,,,,785.19862254092,6.003316064598039,None,,,,,,,,E03T01,2021_Oct_26_0847,ER,2021.1.4,60.05045318104658,
3,,1,ABLENKEN,,Stimuli/227.jpg,,StimuliNegative.xlsx,23,"Denken Sie während des Betrachtens der Bilder an etwas Neutrales, das mit dem Bild nichts zu tun hat. Das könnten geometrische Figuren, Alltagstätigkeiten oder bekannte Orte sein.",,,,,,,,,0,1,1,0,0,5,5,0,,,,,3.4,,,,,,,,794.668019167264,6.015157053247094,None,,,,,,,,E03T01,2021_Oct_26_0847,ER,2021.1.4,60.05045318104658,
3,,1,ABLENKEN,,Stimuli/9230.jpg,,StimuliNegative.xlsx,23,"Denken Sie während des Betrachtens der Bilder an etwas Neutrales, das mit dem Bild nichts zu tun hat. Das könnten geometrische Figuren, Alltagstätigkeiten oder bekannte Orte sein.",,,,,,,,,0,1,1,0,0,6,6,11,,,,,3.5,,,,,,,,804.2417845051968,6.001349420752376,None,,,,,,,,E03T01,2021_Oct_26_0847,ER,2021.1.4,60.05045318104658,
3,,1,ABLENKEN,,Stimuli/9332.jpg,,StimuliNegative.xlsx,23,"Denken Sie während des Betrachtens der Bilder an etwas Neutrales, das mit dem Bild nichts zu tun hat. Das könnten geometrische Figuren, Alltagstätigkeiten oder bekannte Orte sein.",,,,,,,,,0,1,1,0,0,7,7,14,,,,,4.1,,,,,,,,814.4065069522476,6.005050832522102,None,,,,,,,,E03T01,2021_Oct_26_0847,ER,2021.1.4,60.05045318104658,
3,,1,ABLENKEN,,Stimuli/3230.jpg,,StimuliNegative.xlsx,23,"Denken Sie während des Betrachtens der Bilder an etwas Neutrales, das mit dem Bild nichts zu tun hat. Das könnten geometrische Figuren, Alltagstätigkeiten oder bekannte Orte sein.",,,,,,,,,0,1,1,0,0,8,8,5,,,,,3.7,,,,,,,,824.1360411575297,6.01311559882015,None,,,,,,,,E03T01,2021_Oct_26_0847,ER,2021.1.4,60.05045318104658,
3,,1,ABLENKEN,,Stimuli/9905.jpg,,StimuliNegative.xlsx,23,"Denken Sie während des Betrachtens der Bilder an etwas Neutrales, das mit dem Bild nichts zu tun hat. Das könnten geometrische Figuren, Alltagstätigkeiten oder bekannte Orte sein.",,,,,,,,,0,1,1,0,0,9,9,19,,,,,4.5,,,,,,,,834.6792761042016,6.008964101900347,None,,,,,,,,E03T01,2021_Oct_26_0847,ER,2021.1.4,60.05045318104658,
3,,1,ABLENKEN,,Stimuli/2800.jpg,,StimuliNegative.xlsx,23,"Denken Sie während des Betrachtens der Bilder an etwas Neutrales, das mit dem Bild nichts zu tun hat. Das könnten geometrische Figuren, Alltagstätigkeiten oder bekannte Orte sein.",,,,,,,,,0,1,1,0,0,10,10,3,,,,,4.6,,,,,,,,845.3410993044963,6.003598049515858,None,,,,,,,,E03T01,2021_Oct_26_0847,ER,2021.1.4,60.05045318104658,
3,,1,ABLENKEN,,Stimuli/3061.jpg,,StimuliNegative.xlsx,23,"Denken Sie während des Betrachtens der Bilder an etwas Neutrales, das mit dem Bild nichts zu tun hat. Das könnten geometrische Figuren, Alltagstätigkeiten oder bekannte Orte sein.",,,,,,,,,0,1,1,0,0,11,11,4,,,,,3.5,,,,,,,,854.8952825766755,6.010260783135891,None,,,,,,,,E03T01,2021_Oct_26_0847,ER,2021.1.4,60.05045318104658,
3,,1,ABLENKEN,,Stimuli/9120.jpg,,StimuliNegative.xlsx,23,"Denken Sie während des Betrachtens der Bilder an etwas Neutrales, das mit dem Bild nichts zu tun hat. Das könnten geometrische Figuren, Alltagstätigkeiten oder bekannte Orte sein.",,,,,,,,,0,1,1,0,0,12,12,8,,,,,4.3,,,,,,,,865.2491331131896,6.002347884583287,None,,,,,,,,E03T01,2021_Oct_26_0847,ER,2021.1.4,60.05045318104658,
3,,1,ABLENKEN,,Stimuli/6838.jpg,,StimuliNegative.xlsx,23,"Denken Sie während des Betrachtens der Bilder an etwas Neutrales, das mit dem Bild nichts zu tun hat. Das könnten geometrische Figuren, Alltagstätigkeiten oder bekannte Orte sein.",,,,,,,,,0,1,1,0,0,13,13,7,,,,,4.7,,,,,,,,875.9901382302633,6.00384057557676,None,,,,,,,,E03T01,2021_Oct_26_0847,ER,2021.1.4,60.05045318104658,
3,,1,ABLENKEN,,Stimuli/6561.jpg,,StimuliNegative.xlsx,23,"Denken Sie während des Betrachtens der Bilder an etwas Neutrales, das mit dem Bild nichts zu tun hat. Das könnten geometrische Figuren, Alltagstätigkeiten oder bekannte Orte sein.",,,,,,,,,0,1,1,0,0,14,14,6,,,,,3.6,,,,,,,,885.6430476303212,6.0152662543114275,None,,,,,,,,E03T01,2021_Oct_26_0847,ER,2021.1.4,60.05045318104658,
3,,1,ABLENKEN,,Stimuli/252.jpg,,StimuliNegative.xlsx,23,"Denken Sie während des Betrachtens der Bilder an etwas Neutrales, das mit dem Bild nichts zu tun hat. Das könnten geometrische Figuren, Alltagstätigkeiten oder bekannte Orte sein.",,,,,,,,,0,1,1,0,0,15,15,1,,,,,4.6,,,,,,,,896.297084648977,6.006458960357122,None,,,,,,,,E03T01,2021_Oct_26_0847,ER,2021.1.4,60.05045318104658,
3,,1,ABLENKEN,,Stimuli/9181.jpg,,StimuliNegative.xlsx,23,"Denken Sie während des Betrachtens der Bilder an etwas Neutrales, das mit dem Bild nichts zu tun hat. Das könnten geometrische Figuren, Alltagstätigkeiten oder bekannte Orte sein.",,,,,,,,,0,1,1,0,0,16,16,9,,,,,4.8,,,,,,,,907.1451644414337,6.011001193779521,None,,,,,,,,E03T01,2021_Oct_26_0847,ER,2021.1.4,60.05045318104658,
3,,1,ABLENKEN,,Stimuli/9185.jpg,,StimuliNegative.xlsx,23,"Denken Sie während des Betrachtens der Bilder an etwas Neutrales, das mit dem Bild nichts zu tun hat. Das könnten geometrische Figuren, Alltagstätigkeiten oder bekannte Orte sein.",,,,,,,,,0,1,1,0,0,17,17,10,,,,,4.8,,,,,,,,918.0242118780734,6.003644437296316,None,,,,,,,,E03T01,2021_Oct_26_0847,ER,2021.1.4,60.05045318104658,
3,,1,ABLENKEN,,Stimuli/9420.jpg,,StimuliNegative.xlsx,23,"Denken Sie während des Betrachtens der Bilder an etwas Neutrales, das mit dem Bild nichts zu tun hat. Das könnten geometrische Figuren, Alltagstätigkeiten oder bekannte Orte sein.",,,,,,,,,0,1,1,0,0,18,18,16,,,,,3.1,,,,,,,,927.1793208559975,6.008082538493909,None,,,,,,,,E03T01,2021_Oct_26_0847,ER,2021.1.4,60.05045318104658,
3,,1,ABLENKEN,,Stimuli/9421.jpg,,StimuliNegative.xlsx,23,"Denken Sie während des Betrachtens der Bilder an etwas Neutrales, das mit dem Bild nichts zu tun hat. Das könnten geometrische Figuren, Alltagstätigkeiten oder bekannte Orte sein.",,,,,,,,,0,1,1,0,0,19,19,17,,,,,4.8,,,,,,,,938.0497810686938,6.000498462002724,None,,,,,,,,E03T01,2021_Oct_26_0847,ER,2021.1.4,60.05045318104658,
3,,1,ABLENKEN,,,,StimuliNegative.xlsx,23,"Denken Sie während des Betrachtens der Bilder an etwas Neutrales, das mit dem Bild nichts zu tun hat. Das könnten geometrische Figuren, Alltagstätigkeiten oder bekannte Orte sein.",,,,,,,,,0,1,1,0,,,,,,,,,,,,,347.4074074074074,9.018912231433205,331.85185185185185,3.297693851753138,,,,,,,,,,,E03T01,2021_Oct_26_0847,ER,2021.1.4,60.05045318104658,
4,,1,DISTANZIEREN,,Stimuli/9180.jpg,,StimuliNegative.xlsx,24,Nehmen Sie die Position eines uninvolvierten Beobachters ein. Denken Sie über das Bild in einer neutralen Weise nach.,,,,,,,,,0,2,2,1,0,0,0,12,,,,,4.4,,,,,,,,976.1683064452372,6.014631259138696,None,,,,,,,,E03T01,2021_Oct_26_0847,ER,2021.1.4,60.05045318104658,
4,,1,DISTANZIEREN,,Stimuli/6836.jpg,,StimuliNegative.xlsx,24,Nehmen Sie die Position eines uninvolvierten Beobachters ein. Denken Sie über das Bild in einer neutralen Weise nach.,,,,,,,,,0,2,2,1,0,1,1,11,,,,,3.6,,,,,,,,985.8091652446892,5.99818868865259,None,,,,,,,,E03T01,2021_Oct_26_0847,ER,2021.1.4,60.05045318104658,
4,,1,DISTANZIEREN,,Stimuli/9253.jpg,,StimuliNegative.xlsx,24,Nehmen Sie die Position eines uninvolvierten Beobachters ein. Denken Sie über das Bild in einer neutralen Weise nach.,,,,,,,,,0,2,2,1,0,2,2,14,,,,,4.3,,,,,,,,996.1687449814053,6.014414717908949,None,,,,,,,,E03T01,2021_Oct_26_0847,ER,2021.1.4,60.05045318104658,
4,,1,DISTANZIEREN,,Stimuli/255.jpg,,StimuliNegative.xlsx,24,Nehmen Sie die Position eines uninvolvierten Beobachters ein. Denken Sie über das Bild in einer neutralen Weise nach.,,,,,,,,,0,2,2,1,0,3,3,2,,,,,4.3,,,,,,,,1006.5075114149367,6.00360446551349,None,,,,,,,,E03T01,2021_Oct_26_0847,ER,2021.1.4,60.05045318104658,
4,,1,DISTANZIEREN,,Stimuli/3022.jpg,,StimuliNegative.xlsx,24,Nehmen Sie die Position eines uninvolvierten Beobachters ein. Denken Sie über das Bild in einer neutralen Weise nach.,,,,,,,,,0,2,2,1,0,4,4,6,,,,,3.0,,,,,,,,1015.5564500580076,6.0044080739608034,None,,,,,,,,E03T01,2021_Oct_26_0847,ER,2021.1.4,60.05045318104658,
4,,1,DISTANZIEREN,,Stimuli/9425.jpg,,StimuliNegative.xlsx,24,Nehmen Sie die Position eines uninvolvierten Beobachters ein. Denken Sie über das Bild in einer neutralen Weise nach.,,,,,,,,,0,2,2,1,0,5,5,18,,,,,3.0,,,,,,,,1024.6136695592431,6.005945356446318,None,,,,,,,,E03T01,2021_Oct_26_0847,ER,2021.1.4,60.05045318104658,
4,,1,DISTANZIEREN,,Stimuli/327.jpg,,StimuliNegative.xlsx,24,Nehmen Sie die Position eines uninvolvierten Beobachters ein. Denken Sie über das Bild in einer neutralen Weise nach.,,,,,,,,,0,2,2,1,0,6,6,3,,,,,4.9,,,,,,,,1035.5840813630493,6.015086156083271,None,,,,,,,,E03T01,2021_Oct_26_0847,ER,2021.1.4,60.05045318104658,
4,,1,DISTANZIEREN,,Stimuli/9182.jpg,,StimuliNegative.xlsx,24,Nehmen Sie die Position eines uninvolvierten Beobachters ein. Denken Sie über das Bild in einer neutralen Weise nach.,,,,,,,,,0,2,2,1,0,7,7,13,,,,,4.1,,,,,,,,1045.752758976072,6.011780613800511,None,,,,,,,,E03T01,2021_Oct_26_0847,ER,2021.1.4,60.05045318104658,
4,,1,DISTANZIEREN,,Stimuli/9326.jpg,,StimuliNegative.xlsx,24,Nehmen Sie die Position eines uninvolvierten Beobachters ein. Denken Sie über das Bild in einer neutralen Weise nach.,,,,,,,,,0,2,2,1,0,8,8,16,,,,,4.9,,,,,,,,1056.7202309516724,6.010525637073442,None,,,,,,,,E03T01,2021_Oct_26_0847,ER,2021.1.4,60.05045318104658,
4,,1,DISTANZIEREN,,Stimuli/9920.jpg,,StimuliNegative.xlsx,24,Nehmen Sie die Position eines uninvolvierten Beobachters ein. Denken Sie über das Bild in einer neutralen Weise nach.,,,,,,,,,0,2,2,1,0,9,9,19,,,,,3.3,,,,,,,,1066.06275718275,6.0101260462543,None,,,,,,,,E03T01,2021_Oct_26_0847,ER,2021.1.4,60.05045318104658,
4,,1,DISTANZIEREN,,Stimuli/9300.jpg,,StimuliNegative.xlsx,24,Nehmen Sie die Position eines uninvolvierten Beobachters ein. Denken Sie über das Bild in einer neutralen Weise nach.,,,,,,,,,0,2,2,1,0,10,10,15,,,,,4.7,,,,,,,,1076.828356894548,6.012370376032777,None,,,,,,,,E03T01,2021_Oct_26_0847,ER,2021.1.4,60.05045318104658,
4,,1,DISTANZIEREN,,Stimuli/6244.jpg,,StimuliNegative.xlsx,24,Nehmen Sie die Position eines uninvolvierten Beobachters ein. Denken Sie über das Bild in einer neutralen Weise nach.,,,,,,,,,0,2,2,1,0,11,11,10,,,,,3.1,,,,,,,,1085.9932589906966,6.0139997287187725,None,,,,,,,,E03T01,2021_Oct_26_0847,ER,2021.1.4,60.05045318104658,
4,,1,DISTANZIEREN,,Stimuli/9424.jpg,,StimuliNegative.xlsx,24,Nehmen Sie die Position eines uninvolvierten Beobachters ein. Denken Sie über das Bild in einer neutralen Weise nach.,,,,,,,,,0,2,2,1,0,12,12,17,,,,,4.0,,,,,,,,1096.066216389183,6.001734832301736,None,,,,,,,,E03T01,2021_Oct_26_0847,ER,2021.1.4,60.05045318104658,
4,,1,DISTANZIEREN,,Stimuli/3180.jpg,,StimuliNegative.xlsx,24,Nehmen Sie die Position eines uninvolvierten Beobachters ein. Denken Sie über das Bild in einer neutralen Weise nach.,,,,,,,,,0,2,2,1,0,13,13,7,,,,,4.5,,,,,,,,1106.6259626862593,6.0158485097344965,None,,,,,,,,E03T01,2021_Oct_26_0847,ER,2021.1.4,60.05045318104658,
4,,1,DISTANZIEREN,,Stimuli/1111.jpg,,StimuliNegative.xlsx,24,Nehmen Sie die Position eines uninvolvierten Beobachters ein. Denken Sie über das Bild in einer neutralen Weise nach.,,,,,,,,,0,2,2,1,0,14,14,4,,,,,3.2,,,,,,,,1115.8702192904893,6.010620722780004,None,,,,,,,,E03T01,2021_Oct_26_0847,ER,2021.1.4,60.05045318104658,
4,,1,DISTANZIEREN,,Stimuli/3017.jpg,,StimuliNegative.xlsx,24,Nehmen Sie die Position eines uninvolvierten Beobachters ein. Denken Sie über das Bild in einer neutralen Weise nach.,,,,,,,,,0,2,2,1,0,15,15,5,,,,,3.3,,,,,,,,1125.2337785741547,6.016358777065761,None,,,,,,,,E03T01,2021_Oct_26_0847,ER,2021.1.4,60.05045318104658,
4,,1,DISTANZIEREN,,Stimuli/6190.jpg,,StimuliNegative.xlsx,24,Nehmen Sie die Position eines uninvolvierten Beobachters ein. Denken Sie über das Bild in einer neutralen Weise nach.,,,,,,,,,0,2,2,1,0,16,16,9,,,,,3.2,,,,,,,,1134.4937980981776,6.012893924606033,None,,,,,,,,E03T01,2021_Oct_26_0847,ER,2021.1.4,60.05045318104658,
4,,1,DISTANZIEREN,,Stimuli/225.jpg,,StimuliNegative.xlsx,24,Nehmen Sie die Position eines uninvolvierten Beobachters ein. Denken Sie über das Bild in einer neutralen Weise nach.,,,,,,,,,0,2,2,1,0,17,17,0,,,,,4.7,,,,,,,,1145.2665423880098,6.016200621728785,None,,,,,,,,E03T01,2021_Oct_26_0847,ER,2021.1.4,60.05045318104658,
4,,1,DISTANZIEREN,,Stimuli/230.jpg,,StimuliNegative.xlsx,24,Nehmen Sie die Position eines uninvolvierten Beobachters ein. Denken Sie über das Bild in einer neutralen Weise nach.,,,,,,,,,0,2,2,1,0,18,18,1,,,,,4.2,,,,,,,,1155.5137628805824,6.006322747794911,None,,,,,,,,E03T01,2021_Oct_26_0847,ER,2021.1.4,60.05045318104658,
4,,1,DISTANZIEREN,,Stimuli/3280.jpg,,StimuliNegative.xlsx,24,Nehmen Sie die Position eines uninvolvierten Beobachters ein. Denken Sie über das Bild in einer neutralen Weise nach.,,,,,,,,,0,2,2,1,0,19,19,8,,,,,3.3,,,,,,,,1164.8870604252443,6.009511582436971,None,,,,,,,,E03T01,2021_Oct_26_0847,ER,2021.1.4,60.05045318104658,
4,,1,DISTANZIEREN,,,,StimuliNegative.xlsx,24,Nehmen Sie die Position eines uninvolvierten Beobachters ein. Denken Sie über das Bild in einer neutralen Weise nach.,,,,,,,,,0,2,2,1,,,,,,,,,,,,,364.0740740740741,5.23602290393319,338.88888888888886,6.380335616529919,,,,,,,,,,,E03T01,2021_Oct_26_0847,ER,2021.1.4,60.05045318104658,
,,,,,,,,,,,,,,,,,,,,,,,,,,,,,,,,,,,,,,,,,2,34.50355721125379,,,,,,E03T01,2021_Oct_26_0847,ER,2021.1.4,60.05045318104658,
,,,,,,,,,,,,,,,,,,,,,,,,,,,,,,,,,,,,,,,,,,,space,9.849318087566644,,,,E03T01,2021_Oct_26_0847,ER,2021.1.4,60.05045318104658,
,,,,,Stimuli/9570.jpg,,,,,,,,,,,,,,,,,,,,,0,0,0,18,4.6,,,,,,,,,,,,,,,1323.3838981209556,6.00102201057598,None,E03T01,2021_Oct_26_0847,ER,2021.1.4,60.05045318104658,
,,,,,Stimuli/9409.jpg,,,,,,,,,,,,,,,,,,,,,0,1,1,17,4.0,,,,,,,,,,,,,,,1333.450722108828,6.016352360951714,None,E03T01,2021_Oct_26_0847,ER,2021.1.4,60.05045318104658,
,,,,,Stimuli/9800.jpg,,,,,,,,,,,,,,,,,,,,,0,2,2,19,4.7,,,,,,,,,,,,,,,1344.2181436544051,6.0147669583093375,None,E03T01,2021_Oct_26_0847,ER,2021.1.4,60.05045318104658,
,,,,,Stimuli/253.jpg,,,,,,,,,,,,,,,,,,,,,0,3,3,3,4.4,,,,,,,,,,,,,,,1354.6668790373951,6.000442642485723,None,E03T01,2021_Oct_26_0847,ER,2021.1.4,60.05045318104658,
,,,,,Stimuli/6242.jpg,,,,,,,,,,,,,,,,,,,,,0,4,4,8,3.5,,,,,,,,,,,,,,,1364.2164491789881,6.000888557056896,None,E03T01,2021_Oct_26_0847,ER,2021.1.4,60.05045318104658,
,,,,,Stimuli/226.jpg,,,,,,,,,,,,,,,,,,,,,0,5,5,2,4.9,,,,,,,,,,,,,,,1375.1680860543856,6.012900533154607,None,E03T01,2021_Oct_26_0847,ER,2021.1.4,60.05045318104658,
,,,,,Stimuli/326.jpg,,,,,,,,,,,,,,,,,,,,,0,6,6,5,4.2,,,,,,,,,,,,,,,1385.413997354568,6.0042358034988865,None,E03T01,2021_Oct_26_0847,ER,2021.1.4,60.05045318104658,
,,,,,Stimuli/9340.jpg,,,,,,,,,,,,,,,,,,,,,0,7,7,16,3.6,,,,,,,,,,,,,,,1395.0729962154292,6.005363293574192,None,E03T01,2021_Oct_26_0847,ER,2021.1.4,60.05045318104658,
,,,,,Stimuli/9041.jpg,,,,,,,,,,,,,,,,,,,,,0,8,8,14,3.6,,,,,,,,,,,,,,,1404.7342772606062,6.015423639677465,None,E03T01,2021_Oct_26_0847,ER,2021.1.4,60.05045318104658,
,,,,,Stimuli/9140.jpg,,,,,,,,,,,,,,,,,,,,,0,9,9,15,3.7,,,,,,,,,,,,,,,1414.5005352578592,6.000571925658733,None,E03T01,2021_Oct_26_0847,ER,2021.1.4,60.05045318104658,
,,,,,Stimuli/6825.jpg,,,,,,,,,,,,,,,,,,,,,0,10,10,11,4.1,,,,,,,,,,,,,,,1424.672846914269,6.004555835388601,None,E03T01,2021_Oct_26_0847,ER,2021.1.4,60.05045318104658,
,,,,,Stimuli/208.jpg,,,,,,,,,,,,,,,,,,,,,0,11,11,0,4.1,,,,,,,,,,,,,,,1434.8161786147393,6.0010335594415665,None,E03T01,2021_Oct_26_0847,ER,2021.1.4,60.05045318104658,
,,,,,Stimuli/6410.jpg,,,,,,,,,,,,,,,,,,,,,0,12,12,9,4.1,,,,,,,,,,,,,,,1444.9886641458143,6.005856366129592,None,E03T01,2021_Oct_26_0847,ER,2021.1.4,60.05045318104658,
,,,,,Stimuli/6555.jpg,,,,,,,,,,,,,,,,,,,,,0,13,13,10,3.2,,,,,,,,,,,,,,,1454.2433509805705,6.012780360761099,None,E03T01,2021_Oct_26_0847,ER,2021.1.4,60.05045318104658,
,,,,,Stimuli/6940.jpg,,,,,,,,,,,,,,,,,,,,,0,14,14,12,3.2,,,,,,,,,,,,,,,1463.5184411338996,6.0139216454699636,None,E03T01,2021_Oct_26_0847,ER,2021.1.4,60.05045318104658,
,,,,,Stimuli/254.jpg,,,,,,,,,,,,,,,,,,,,,0,15,15,4,3.5,,,,,,,,,,,,,,,1473.0612295244355,6.010879609966651,None,E03T01,2021_Oct_26_0847,ER,2021.1.4,60.05045318104658,
,,,,,Stimuli/8230.jpg,,,,,,,,,,,,,,,,,,,,,0,16,16,13,4.6,,,,,,,,,,,,,,,1483.7309710767586,6.004520996357314,None,E03T01,2021_Oct_26_0847,ER,2021.1.4,60.05045318104658,
,,,,,Stimuli/3350.jpg,,,,,,,,,,,,,,,,,,,,,0,17,17,7,4.3,,,,,,,,,,,,,,,1494.0764374568826,6.0147436681436375,None,E03T01,2021_Oct_26_0847,ER,2021.1.4,60.05045318104658,
,,,,,Stimuli/219.jpg,,,,,,,,,,,,,,,,,,,,,0,18,18,1,4.1,,,,,,,,,,,,,,,1504.2430192715256,6.0125464962329715,None,E03T01,2021_Oct_26_0847,ER,2021.1.4,60.05045318104658,
,,,,,Stimuli/1301.jpg,,,,,,,,,,,,,,,,,,,,,0,19,19,6,3.4,,,,,,,,,,,,,,,1513.7161099310033,6.016659689252265,None,E03T01,2021_Oct_26_0847,ER,2021.1.4,60.05045318104658,
,,,,,,,,,,,,,,,,,,,,,,,,,,,,,,,,,,333.7037037037037,6.20396421267651,288.51851851851853,4.76485128107015,,,,,,,,,,,E03T01,2021_Oct_26_0847,ER,2021.1.4,60.05045318104658,
