Block,conds_view_File,n_reps,instr_1,TriggerBlockView,ImageFile,Trigger,conds_reg_File,TriggerBlockReg,instr_2,blocks_view.thisRepN,blocks_view.thisTrialN,blocks_view.thisN,blocks_view.thisIndex,trials_view.thisRepN,trials_view.thisTrialN,trials_view.thisN,trials_view.thisIndex,blocks_reg.thisRepN,blocks_reg.thisTrialN,blocks_reg.thisN,blocks_reg.thisIndex,trials_reg.thisRepN,trials_reg.thisTrialN,trials_reg.thisN,trials_reg.thisIndex,trials_choice.thisRepN,trials_choice.thisTrialN,trials_choice.thisN,trials_choice.thisIndex,Fix_jitter,image_view.started,image_view.lasted,image_view.stopped,slider_arousal.response,slider_arousal.rt,slider_effort.response,slider_effort.rt,image_reg.started,image_reg.lasted,image_reg.stopped,resp_choice.keys,resp_choice.rt,key_resp.keys,key_resp.rt,image.started,image.lased,image.stopped,participant,date,expName,psychopyVersion,frameRate,
,,,,,,,,,,,,,,,,,,,,,,,,,,,,,,,,,,,,,,,,,,,,,,,,E12K08,2021_Oct_14_1331,ER_paradigm,2021.1.4,60.02628518174762,
1,StimuliNeutral.xlsx,1,ANSCHAUEN,21,Stimuli/7224.jpg,1,,,,0,0,0,0,0,0,0,17,,,,,,,,,,,,,4.8,93.64082222797515,6.035909981717396,None,,,,,,,,,,,,,,,E12K08,2021_Oct_14_1331,ER_paradigm,2021.1.4,60.02628518174762,
1,StimuliNeutral.xlsx,1,ANSCHAUEN,21,Stimuli/7185.jpg,1,,,,0,0,0,0,0,1,1,15,,,,,,,,,,,,,4.3,104.00077473646934,6.004570752687414,None,,,,,,,,,,,,,,,E12K08,2021_Oct_14_1331,ER_paradigm,2021.1.4,60.02628518174762,
1,StimuliNeutral.xlsx,1,ANSCHAUEN,21,Stimuli/7006.jpg,1,,,,0,0,0,0,0,2,2,8,,,,,,,,,,,,,3.2,113.25224617435788,6.000629381150247,None,,,,,,,,,,,,,,,E12K08,2021_Oct_14_1331,ER_paradigm,2021.1.4,60.02628518174762,
1,StimuliNeutral.xlsx,1,ANSCHAUEN,21,Stimuli/7009.jpg,1,,,,0,0,0,0,0,3,3,9,,,,,,,,,,,,,3.9,123.20239356676802,6.000454223340057,None,,,,,,,,,,,,,,,E12K08,2021_Oct_14_1331,ER_paradigm,2021.1.4,60.02628518174762,
1,StimuliNeutral.xlsx,1,ANSCHAUEN,21,Stimuli/7000.jpg,1,,,,0,0,0,0,0,4,4,5,,,,,,,,,,,,,3.9,133.15263014209268,6.000754173071073,None,,,,,,,,,,,,,,,E12K08,2021_Oct_14_1331,ER_paradigm,2021.1.4,60.02628518174762,
1,StimuliNeutral.xlsx,1,ANSCHAUEN,21,Stimuli/7025.jpg,1,,,,0,0,0,0,0,5,5,11,,,,,,,,,,,,,5.0,144.20800118311718,6.00590785480108,None,,,,,,,,,,,,,,,E12K08,2021_Oct_14_1331,ER_paradigm,2021.1.4,60.02628518174762,
1,StimuliNeutral.xlsx,1,ANSCHAUEN,21,Stimuli/083.jpg,1,,,,0,0,0,0,0,6,6,0,,,,,,,,,,,,,3.3,153.5664125595208,6.005568542683704,None,,,,,,,,,,,,,,,E12K08,2021_Oct_14_1331,ER_paradigm,2021.1.4,60.02628518174762,
1,StimuliNeutral.xlsx,1,ANSCHAUEN,21,Stimuli/7002.jpg,1,,,,0,0,0,0,0,7,7,6,,,,,,,,,,,,,4.1,163.73016393936996,6.012145622225944,None,,,,,,,,,,,,,,,E12K08,2021_Oct_14_1331,ER_paradigm,2021.1.4,60.02628518174762,
1,StimuliNeutral.xlsx,1,ANSCHAUEN,21,Stimuli/7235.jpg,1,,,,0,0,0,0,0,8,8,19,,,,,,,,,,,,,3.5,173.27469941668596,6.0055439692619075,None,,,,,,,,,,,,,,,E12K08,2021_Oct_14_1331,ER_paradigm,2021.1.4,60.02628518174762,
1,StimuliNeutral.xlsx,1,ANSCHAUEN,21,Stimuli/7233.jpg,1,,,,0,0,0,0,0,9,9,18,,,,,,,,,,,,,3.2,182.5372048342274,6.014757173851194,None,,,,,,,,,,,,,,,E12K08,2021_Oct_14_1331,ER_paradigm,2021.1.4,60.02628518174762,
1,StimuliNeutral.xlsx,1,ANSCHAUEN,21,Stimuli/124.jpg,1,,,,0,0,0,0,0,10,10,2,,,,,,,,,,,,,4.9,193.50410866970196,6.012916092030082,None,,,,,,,,,,,,,,,E12K08,2021_Oct_14_1331,ER_paradigm,2021.1.4,60.02628518174762,
1,StimuliNeutral.xlsx,1,ANSCHAUEN,21,Stimuli/143.jpg,1,,,,0,0,0,0,0,11,11,4,,,,,,,,,,,,,4.3,203.86580281144325,6.006136586521279,None,,,,,,,,,,,,,,,E12K08,2021_Oct_14_1331,ER_paradigm,2021.1.4,60.02628518174762,
1,StimuliNeutral.xlsx,1,ANSCHAUEN,21,Stimuli/7021.jpg,1,,,,0,0,0,0,0,12,12,10,,,,,,,,,,,,,3.2,213.14222204685075,6.003376182836291,None,,,,,,,,,,,,,,,E12K08,2021_Oct_14_1331,ER_paradigm,2021.1.4,60.02628518174762,
1,StimuliNeutral.xlsx,1,ANSCHAUEN,21,Stimuli/7211.jpg,1,,,,0,0,0,0,0,13,13,16,,,,,,,,,,,,,4.5,223.71071917679683,6.001303706641011,None,,,,,,,,,,,,,,,E12K08,2021_Oct_14_1331,ER_paradigm,2021.1.4,60.02628518174762,
1,StimuliNeutral.xlsx,1,ANSCHAUEN,21,Stimuli/140.jpg,1,,,,0,0,0,0,0,14,14,3,,,,,,,,,,,,,4.6,234.36286346448696,6.012491125818542,None,,,,,,,,,,,,,,,E12K08,2021_Oct_14_1331,ER_paradigm,2021.1.4,60.02628518174762,
1,StimuliNeutral.xlsx,1,ANSCHAUEN,21,Stimuli/7004.jpg,1,,,,0,0,0,0,0,15,15,7,,,,,,,,,,,,,3.4,243.82698322110082,6.001389360735175,None,,,,,,,,,,,,,,,E12K08,2021_Oct_14_1331,ER_paradigm,2021.1.4,60.02628518174762,
1,StimuliNeutral.xlsx,1,ANSCHAUEN,21,Stimuli/7041.jpg,1,,,,0,0,0,0,0,16,16,12,,,,,,,,,,,,,4.5,254.39388115382144,6.002004979486173,None,,,,,,,,,,,,,,,E12K08,2021_Oct_14_1331,ER_paradigm,2021.1.4,60.02628518174762,
1,StimuliNeutral.xlsx,1,ANSCHAUEN,21,Stimuli/107.jpg,1,,,,0,0,0,0,0,17,17,1,,,,,,,,,,,,,3.4,263.850283059513,6.005022762495173,None,,,,,,,,,,,,,,,E12K08,2021_Oct_14_1331,ER_paradigm,2021.1.4,60.02628518174762,
1,StimuliNeutral.xlsx,1,ANSCHAUEN,21,Stimuli/7100.jpg,1,,,,0,0,0,0,0,18,18,13,,,,,,,,,,,,,4.5,274.42810686166285,6.016168894475413,None,,,,,,,,,,,,,,,E12K08,2021_Oct_14_1331,ER_paradigm,2021.1.4,60.02628518174762,
1,StimuliNeutral.xlsx,1,ANSCHAUEN,21,Stimuli/7150.jpg,1,,,,0,0,0,0,0,19,19,14,,,,,,,,,,,,,3.4,283.88448406561156,6.002136187442829,None,,,,,,,,,,,,,,,E12K08,2021_Oct_14_1331,ER_paradigm,2021.1.4,60.02628518174762,
1,StimuliNeutral.xlsx,1,ANSCHAUEN,21,,,,,,0,0,0,0,,,,,,,,,,,,,,,,,,,,,17.407407407407405,6.8843162862440295,5.9259259259259345,10.03176451604304,,,,,,,,,,,E12K08,2021_Oct_14_1331,ER_paradigm,2021.1.4,60.02628518174762,
2,StimuliNegative.xlsx,1,ANSCHAUEN,22,Stimuli/9403.jpg,,,,,0,1,1,1,0,0,0,17,,,,,,,,,,,,,4.2,319.45812397002555,6.005340035525023,None,,,,,,,,,,,,,,,E12K08,2021_Oct_14_1331,ER_paradigm,2021.1.4,60.02628518174762,
2,StimuliNegative.xlsx,1,ANSCHAUEN,22,Stimuli/3101.jpg,,,,,0,1,1,1,0,1,1,5,,,,,,,,,,,,,4.4,329.9243911742278,6.006062160491183,None,,,,,,,,,,,,,,,E12K08,2021_Oct_14_1331,ER_paradigm,2021.1.4,60.02628518174762,
2,StimuliNegative.xlsx,1,ANSCHAUEN,22,Stimuli/6571.jpg,,,,,0,1,1,1,0,2,2,11,,,,,,,,,,,,,3.6,339.58349878688796,6.005606621862626,None,,,,,,,,,,,,,,,E12K08,2021_Oct_14_1331,ER_paradigm,2021.1.4,60.02628518174762,
2,StimuliNegative.xlsx,1,ANSCHAUEN,22,Stimuli/9405.jpg,,,,,0,1,1,1,0,3,3,18,,,,,,,,,,,,,4.2,349.8434470928778,6.001691876879704,None,,,,,,,,,,,,,,,E12K08,2021_Oct_14_1331,ER_paradigm,2021.1.4,60.02628518174762,
2,StimuliNegative.xlsx,1,ANSCHAUEN,22,Stimuli/3225.jpg,,,,,0,1,1,1,0,4,4,9,,,,,,,,,,,,,3.9,359.80764817276076,6.007428134771089,None,,,,,,,,,,,,,,,E12K08,2021_Oct_14_1331,ER_paradigm,2021.1.4,60.02628518174762,
2,StimuliNegative.xlsx,1,ANSCHAUEN,22,Stimuli/9402.jpg,,,,,0,1,1,1,0,5,5,16,,,,,,,,,,,,,5.0,370.859381641601,6.003614987734636,None,,,,,,,,,,,,,,,E12K08,2021_Oct_14_1331,ER_paradigm,2021.1.4,60.02628518174762,
2,StimuliNegative.xlsx,1,ANSCHAUEN,22,Stimuli/3215.jpg,,,,,0,1,1,1,0,6,6,7,,,,,,,,,,,,,4.1,381.0144883739804,6.009472925767113,None,,,,,,,,,,,,,,,E12K08,2021_Oct_14_1331,ER_paradigm,2021.1.4,60.02628518174762,
2,StimuliNegative.xlsx,1,ANSCHAUEN,22,Stimuli/6020.jpg,,,,,0,1,1,1,0,7,7,10,,,,,,,,,,,,,4.4,391.47661980072417,6.002668076911505,None,,,,,,,,,,,,,,,E12K08,2021_Oct_14_1331,ER_paradigm,2021.1.4,60.02628518174762,
2,StimuliNegative.xlsx,1,ANSCHAUEN,22,Stimuli/8231.jpg,,,,,0,1,1,1,0,8,8,13,,,,,,,,,,,,,4.9,402.435546898183,6.000026273671665,None,,,,,,,,,,,,,,,E12K08,2021_Oct_14_1331,ER_paradigm,2021.1.4,60.02628518174762,
2,StimuliNegative.xlsx,1,ANSCHAUEN,22,Stimuli/245.jpg,,,,,0,1,1,1,0,9,9,2,,,,,,,,,,,,,3.5,411.9719882240056,6.010118603652245,None,,,,,,,,,,,,,,,E12K08,2021_Oct_14_1331,ER_paradigm,2021.1.4,60.02628518174762,
2,StimuliNegative.xlsx,1,ANSCHAUEN,22,Stimuli/9373.jpg,,,,,0,1,1,1,0,10,10,14,,,,,,,,,,,,,4.2,422.2427587804268,6.002579856402917,None,,,,,,,,,,,,,,,E12K08,2021_Oct_14_1331,ER_paradigm,2021.1.4,60.02628518174762,
2,StimuliNegative.xlsx,1,ANSCHAUEN,22,Stimuli/6831.jpg,,,,,0,1,1,1,0,11,11,12,,,,,,,,,,,,,3.7,432.000044912259,6.0053762861343785,None,,,,,,,,,,,,,,,E12K08,2021_Oct_14_1331,ER_paradigm,2021.1.4,60.02628518174762,
2,StimuliNegative.xlsx,1,ANSCHAUEN,22,Stimuli/3220.jpg,,,,,0,1,1,1,0,12,12,8,,,,,,,,,,,,,4.8,442.8434461304719,6.000717826220807,None,,,,,,,,,,,,,,,E12K08,2021_Oct_14_1331,ER_paradigm,2021.1.4,60.02628518174762,
2,StimuliNegative.xlsx,1,ANSCHAUEN,22,Stimuli/3016.jpg,,,,,0,1,1,1,0,13,13,4,,,,,,,,,,,,,4.9,453.7988174602183,6.007773959166116,None,,,,,,,,,,,,,,,E12K08,2021_Oct_14_1331,ER_paradigm,2021.1.4,60.02628518174762,
2,StimuliNegative.xlsx,1,ANSCHAUEN,22,Stimuli/223.jpg,,,,,0,1,1,1,0,14,14,0,,,,,,,,,,,,,3.2,463.0522182004365,6.0004417120680955,None,,,,,,,,,,,,,,,E12K08,2021_Oct_14_1331,ER_paradigm,2021.1.4,60.02628518174762,
2,StimuliNegative.xlsx,1,ANSCHAUEN,22,Stimuli/3181.jpg,,,,,0,1,1,1,0,15,15,6,,,,,,,,,,,,,3.3,472.4009862732096,6.00434298337359,None,,,,,,,,,,,,,,,E12K08,2021_Oct_14_1331,ER_paradigm,2021.1.4,60.02628518174762,
2,StimuliNegative.xlsx,1,ANSCHAUEN,22,Stimuli/2981.jpg,,,,,0,1,1,1,0,16,16,3,,,,,,,,,,,,,4.0,482.46370816783974,6.012715366312932,None,,,,,,,,,,,,,,,E12K08,2021_Oct_14_1331,ER_paradigm,2021.1.4,60.02628518174762,
2,StimuliNegative.xlsx,1,ANSCHAUEN,22,Stimuli/238.jpg,,,,,0,1,1,1,0,17,17,1,,,,,,,,,,,,,3.7,492.2154739414259,6.00665147349082,None,,,,,,,,,,,,,,,E12K08,2021_Oct_14_1331,ER_paradigm,2021.1.4,60.02628518174762,
2,StimuliNegative.xlsx,1,ANSCHAUEN,22,Stimuli/9400.jpg,,,,,0,1,1,1,0,18,18,15,,,,,,,,,,,,,3.5,501.76359213381056,6.010921025321295,None,,,,,,,,,,,,,,,E12K08,2021_Oct_14_1331,ER_paradigm,2021.1.4,60.02628518174762,
2,StimuliNegative.xlsx,1,ANSCHAUEN,22,Stimuli/9423.jpg,,,,,0,1,1,1,0,19,19,19,,,,,,,,,,,,,3.4,511.22231760730574,6.010204033184436,None,,,,,,,,,,,,,,,E12K08,2021_Oct_14_1331,ER_paradigm,2021.1.4,60.02628518174762,
2,StimuliNegative.xlsx,1,ANSCHAUEN,22,,,,,,0,1,1,1,,,,,,,,,,,,,,,,,,,,,175.55555555555554,6.953503621371965,58.518518518518526,6.380418704159183,,,,,,,,,,,E12K08,2021_Oct_14_1331,ER_paradigm,2021.1.4,60.02628518174762,
3,,1,ABLENKEN,,Stimuli/6940.jpg,,StimuliNegative.xlsx,23,"Denken Sie während des Betrachtens der Bilder an etwas Neutrales, das mit dem Bild nichts zu tun hat. Das könnten geometrische Figuren, Alltagstätigkeiten oder bekannte Orte sein.",,,,,,,,,0,0,0,0,0,0,0,12,,,,,4.4,,,,,,,,548.9591503755469,6.003883915925144,None,,,,,,,,E12K08,2021_Oct_14_1331,ER_paradigm,2021.1.4,60.02628518174762,
3,,1,ABLENKEN,,Stimuli/226.jpg,,StimuliNegative.xlsx,23,"Denken Sie während des Betrachtens der Bilder an etwas Neutrales, das mit dem Bild nichts zu tun hat. Das könnten geometrische Figuren, Alltagstätigkeiten oder bekannte Orte sein.",,,,,,,,,0,0,0,0,0,1,1,2,,,,,5.0,,,,,,,,560.0331593624896,6.004770066877427,None,,,,,,,,E12K08,2021_Oct_14_1331,ER_paradigm,2021.1.4,60.02628518174762,
3,,1,ABLENKEN,,Stimuli/9140.jpg,,StimuliNegative.xlsx,23,"Denken Sie während des Betrachtens der Bilder an etwas Neutrales, das mit dem Bild nichts zu tun hat. Das könnten geometrische Figuren, Alltagstätigkeiten oder bekannte Orte sein.",,,,,,,,,0,0,0,0,0,2,2,15,,,,,3.6,,,,,,,,569.6916285794669,6.0059761855955,None,,,,,,,,E12K08,2021_Oct_14_1331,ER_paradigm,2021.1.4,60.02628518174762,
3,,1,ABLENKEN,,Stimuli/9409.jpg,,StimuliNegative.xlsx,23,"Denken Sie während des Betrachtens der Bilder an etwas Neutrales, das mit dem Bild nichts zu tun hat. Das könnten geometrische Figuren, Alltagstätigkeiten oder bekannte Orte sein.",,,,,,,,,0,0,0,0,0,3,3,17,,,,,3.5,,,,,,,,579.2553467242442,6.0120682127389955,None,,,,,,,,E12K08,2021_Oct_14_1331,ER_paradigm,2021.1.4,60.02628518174762,
3,,1,ABLENKEN,,Stimuli/219.jpg,,StimuliNegative.xlsx,23,"Denken Sie während des Betrachtens der Bilder an etwas Neutrales, das mit dem Bild nichts zu tun hat. Das könnten geometrische Figuren, Alltagstätigkeiten oder bekannte Orte sein.",,,,,,,,,0,0,0,0,0,4,4,1,,,,,4.2,,,,,,,,589.49896685764,6.007644355218872,None,,,,,,,,E12K08,2021_Oct_14_1331,ER_paradigm,2021.1.4,60.02628518174762,
3,,1,ABLENKEN,,Stimuli/6242.jpg,,StimuliNegative.xlsx,23,"Denken Sie während des Betrachtens der Bilder an etwas Neutrales, das mit dem Bild nichts zu tun hat. Das könnten geometrische Figuren, Alltagstätigkeiten oder bekannte Orte sein.",,,,,,,,,0,0,0,0,0,5,5,8,,,,,4.7,,,,,,,,600.2667836310216,6.005719640355437,None,,,,,,,,E12K08,2021_Oct_14_1331,ER_paradigm,2021.1.4,60.02628518174762,
3,,1,ABLENKEN,,Stimuli/208.jpg,,StimuliNegative.xlsx,23,"Denken Sie während des Betrachtens der Bilder an etwas Neutrales, das mit dem Bild nichts zu tun hat. Das könnten geometrische Figuren, Alltagstätigkeiten oder bekannte Orte sein.",,,,,,,,,0,0,0,0,0,6,6,0,,,,,3.1,,,,,,,,609.4187150666835,6.0011490801489344,None,,,,,,,,E12K08,2021_Oct_14_1331,ER_paradigm,2021.1.4,60.02628518174762,
3,,1,ABLENKEN,,Stimuli/8230.jpg,,StimuliNegative.xlsx,23,"Denken Sie während des Betrachtens der Bilder an etwas Neutrales, das mit dem Bild nichts zu tun hat. Das könnten geometrische Figuren, Alltagstätigkeiten oder bekannte Orte sein.",,,,,,,,,0,0,0,0,0,7,7,13,,,,,3.5,,,,,,,,618.968984556278,5.998359066453759,None,,,,,,,,E12K08,2021_Oct_14_1331,ER_paradigm,2021.1.4,60.02628518174762,
3,,1,ABLENKEN,,Stimuli/9340.jpg,,StimuliNegative.xlsx,23,"Denken Sie während des Betrachtens der Bilder an etwas Neutrales, das mit dem Bild nichts zu tun hat. Das könnten geometrische Figuren, Alltagstätigkeiten oder bekannte Orte sein.",,,,,,,,,0,0,0,0,0,8,8,16,,,,,3.7,,,,,,,,628.7100143751309,6.002304832976279,None,,,,,,,,E12K08,2021_Oct_14_1331,ER_paradigm,2021.1.4,60.02628518174762,
3,,1,ABLENKEN,,Stimuli/3350.jpg,,StimuliNegative.xlsx,23,"Denken Sie während des Betrachtens der Bilder an etwas Neutrales, das mit dem Bild nichts zu tun hat. Das könnten geometrische Figuren, Alltagstätigkeiten oder bekannte Orte sein.",,,,,,,,,0,0,0,0,0,9,9,7,,,,,4.6,,,,,,,,639.3754498042949,6.004864286381235,None,,,,,,,,E12K08,2021_Oct_14_1331,ER_paradigm,2021.1.4,60.02628518174762,
3,,1,ABLENKEN,,Stimuli/1301.jpg,,StimuliNegative.xlsx,23,"Denken Sie während des Betrachtens der Bilder an etwas Neutrales, das mit dem Bild nichts zu tun hat. Das könnten geometrische Figuren, Alltagstätigkeiten oder bekannte Orte sein.",,,,,,,,,0,0,0,0,0,10,10,6,,,,,4.7,,,,,,,,650.1407838921541,6.006303403483798,None,,,,,,,,E12K08,2021_Oct_14_1331,ER_paradigm,2021.1.4,60.02628518174762,
3,,1,ABLENKEN,,Stimuli/254.jpg,,StimuliNegative.xlsx,23,"Denken Sie während des Betrachtens der Bilder an etwas Neutrales, das mit dem Bild nichts zu tun hat. Das könnten geometrische Figuren, Alltagstätigkeiten oder bekannte Orte sein.",,,,,,,,,0,0,0,0,0,11,11,4,,,,,5.0,,,,,,,,661.2044569642712,6.012013997226859,None,,,,,,,,E12K08,2021_Oct_14_1331,ER_paradigm,2021.1.4,60.02628518174762,
3,,1,ABLENKEN,,Stimuli/9570.jpg,,StimuliNegative.xlsx,23,"Denken Sie während des Betrachtens der Bilder an etwas Neutrales, das mit dem Bild nichts zu tun hat. Das könnten geometrische Figuren, Alltagstätigkeiten oder bekannte Orte sein.",,,,,,,,,0,0,0,0,0,12,12,18,,,,,4.7,,,,,,,,671.9801468566711,6.011764509627028,None,,,,,,,,E12K08,2021_Oct_14_1331,ER_paradigm,2021.1.4,60.02628518174762,
3,,1,ABLENKEN,,Stimuli/9041.jpg,,StimuliNegative.xlsx,23,"Denken Sie während des Betrachtens der Bilder an etwas Neutrales, das mit dem Bild nichts zu tun hat. Das könnten geometrische Figuren, Alltagstätigkeiten oder bekannte Orte sein.",,,,,,,,,0,0,0,0,0,13,13,14,,,,,3.3,,,,,,,,681.3364829659031,5.999490213779609,None,,,,,,,,E12K08,2021_Oct_14_1331,ER_paradigm,2021.1.4,60.02628518174762,
3,,1,ABLENKEN,,Stimuli/326.jpg,,StimuliNegative.xlsx,23,"Denken Sie während des Betrachtens der Bilder an etwas Neutrales, das mit dem Bild nichts zu tun hat. Das könnten geometrische Figuren, Alltagstätigkeiten oder bekannte Orte sein.",,,,,,,,,0,0,0,0,0,14,14,5,,,,,4.2,,,,,,,,691.5897005282641,6.009408444595465,None,,,,,,,,E12K08,2021_Oct_14_1331,ER_paradigm,2021.1.4,60.02628518174762,
3,,1,ABLENKEN,,Stimuli/6410.jpg,,StimuliNegative.xlsx,23,"Denken Sie während des Betrachtens der Bilder an etwas Neutrales, das mit dem Bild nichts zu tun hat. Das könnten geometrische Figuren, Alltagstätigkeiten oder bekannte Orte sein.",,,,,,,,,0,0,0,0,0,15,15,9,,,,,4.6,,,,,,,,702.2609511325745,6.01551340005426,None,,,,,,,,E12K08,2021_Oct_14_1331,ER_paradigm,2021.1.4,60.02628518174762,
3,,1,ABLENKEN,,Stimuli/9800.jpg,,StimuliNegative.xlsx,23,"Denken Sie während des Betrachtens der Bilder an etwas Neutrales, das mit dem Bild nichts zu tun hat. Das könnten geometrische Figuren, Alltagstätigkeiten oder bekannte Orte sein.",,,,,,,,,0,0,0,0,0,16,16,19,,,,,4.1,,,,,,,,712.4242983020922,6.005721148124394,None,,,,,,,,E12K08,2021_Oct_14_1331,ER_paradigm,2021.1.4,60.02628518174762,
3,,1,ABLENKEN,,Stimuli/253.jpg,,StimuliNegative.xlsx,23,"Denken Sie während des Betrachtens der Bilder an etwas Neutrales, das mit dem Bild nichts zu tun hat. Das könnten geometrische Figuren, Alltagstätigkeiten oder bekannte Orte sein.",,,,,,,,,0,0,0,0,0,17,17,3,,,,,3.6,,,,,,,,722.0887475863674,6.010175161019106,None,,,,,,,,E12K08,2021_Oct_14_1331,ER_paradigm,2021.1.4,60.02628518174762,
3,,1,ABLENKEN,,Stimuli/6555.jpg,,StimuliNegative.xlsx,23,"Denken Sie während des Betrachtens der Bilder an etwas Neutrales, das mit dem Bild nichts zu tun hat. Das könnten geometrische Figuren, Alltagstätigkeiten oder bekannte Orte sein.",,,,,,,,,0,0,0,0,0,18,18,10,,,,,3.4,,,,,,,,731.557399631527,6.005067033152045,None,,,,,,,,E12K08,2021_Oct_14_1331,ER_paradigm,2021.1.4,60.02628518174762,
3,,1,ABLENKEN,,Stimuli/6825.jpg,,StimuliNegative.xlsx,23,"Denken Sie während des Betrachtens der Bilder an etwas Neutrales, das mit dem Bild nichts zu tun hat. Das könnten geometrische Figuren, Alltagstätigkeiten oder bekannte Orte sein.",,,,,,,,,0,0,0,0,0,19,19,11,,,,,4.4,,,,,,,,742.0233768308563,6.008436414987955,None,,,,,,,,E12K08,2021_Oct_14_1331,ER_paradigm,2021.1.4,60.02628518174762,
3,,1,ABLENKEN,,,,StimuliNegative.xlsx,23,"Denken Sie während des Betrachtens der Bilder an etwas Neutrales, das mit dem Bild nichts zu tun hat. Das könnten geometrische Figuren, Alltagstätigkeiten oder bekannte Orte sein.",,,,,,,,,0,0,0,0,,,,,,,,,,,,,150.37037037037038,11.618485115916883,224.0740740740741,6.547576678860423,,,,,,,,,,,E12K08,2021_Oct_14_1331,ER_paradigm,2021.1.4,60.02628518174762,
4,,1,DISTANZIEREN,,Stimuli/9905.jpg,,StimuliNegative.xlsx,24,Nehmen Sie die Position eines uninvolvierten Beobachters ein. Denken Sie über das Bild in einer neutralen Weise nach.,,,,,,,,,0,1,1,1,0,0,0,19,,,,,3.4,,,,,,,,783.7236660978851,6.008275372460048,None,,,,,,,,E12K08,2021_Oct_14_1331,ER_paradigm,2021.1.4,60.02628518174762,
4,,1,DISTANZIEREN,,Stimuli/2800.jpg,,StimuliNegative.xlsx,24,Nehmen Sie die Position eines uninvolvierten Beobachters ein. Denken Sie über das Bild in einer neutralen Weise nach.,,,,,,,,,0,1,1,1,0,1,1,3,,,,,5.0,,,,,,,,794.7801939503825,6.0119626689302095,None,,,,,,,,E12K08,2021_Oct_14_1331,ER_paradigm,2021.1.4,60.02628518174762,
4,,1,DISTANZIEREN,,Stimuli/9230.jpg,,StimuliNegative.xlsx,24,Nehmen Sie die Position eines uninvolvierten Beobachters ein. Denken Sie über das Bild in einer neutralen Weise nach.,,,,,,,,,0,1,1,1,0,2,2,11,,,,,3.1,,,,,,,,803.9319633811101,6.007228916822896,None,,,,,,,,E12K08,2021_Oct_14_1331,ER_paradigm,2021.1.4,60.02628518174762,
4,,1,DISTANZIEREN,,Stimuli/1051.jpg,,StimuliNegative.xlsx,24,Nehmen Sie die Position eines uninvolvierten Beobachters ein. Denken Sie über das Bild in einer neutralen Weise nach.,,,,,,,,,0,1,1,1,0,3,3,2,,,,,4.4,,,,,,,,814.3677662791697,6.0033674249471005,None,,,,,,,,E12K08,2021_Oct_14_1331,ER_paradigm,2021.1.4,60.02628518174762,
4,,1,DISTANZIEREN,,Stimuli/9254.jpg,,StimuliNegative.xlsx,24,Nehmen Sie die Position eines uninvolvierten Beobachters ein. Denken Sie über das Bild in einer neutralen Weise nach.,,,,,,,,,0,1,1,1,0,4,4,12,,,,,3.6,,,,,,,,824.0290521363959,6.0137964685482075,None,,,,,,,,E12K08,2021_Oct_14_1331,ER_paradigm,2021.1.4,60.02628518174762,
4,,1,DISTANZIEREN,,Stimuli/227.jpg,,StimuliNegative.xlsx,24,Nehmen Sie die Position eines uninvolvierten Beobachters ein. Denken Sie über das Bild in einer neutralen Weise nach.,,,,,,,,,0,1,1,1,0,5,5,0,,,,,3.7,,,,,,,,833.7929958690347,6.002743465346612,None,,,,,,,,E12K08,2021_Oct_14_1331,ER_paradigm,2021.1.4,60.02628518174762,
4,,1,DISTANZIEREN,,Stimuli/9295.jpg,,StimuliNegative.xlsx,24,Nehmen Sie die Position eines uninvolvierten Beobachters ein. Denken Sie über das Bild in einer neutralen Weise nach.,,,,,,,,,0,1,1,1,0,6,6,13,,,,,3.4,,,,,,,,843.2590696297211,6.003675394723359,None,,,,,,,,E12K08,2021_Oct_14_1331,ER_paradigm,2021.1.4,60.02628518174762,
4,,1,DISTANZIEREN,,Stimuli/252.jpg,,StimuliNegative.xlsx,24,Nehmen Sie die Position eines uninvolvierten Beobachters ein. Denken Sie über das Bild in einer neutralen Weise nach.,,,,,,,,,0,1,1,1,0,7,7,1,,,,,4.6,,,,,,,,853.9013636965865,6.0025128088154815,None,,,,,,,,E12K08,2021_Oct_14_1331,ER_paradigm,2021.1.4,60.02628518174762,
4,,1,DISTANZIEREN,,Stimuli/9332.jpg,,StimuliNegative.xlsx,24,Nehmen Sie die Position eines uninvolvierten Beobachters ein. Denken Sie über das Bild in einer neutralen Weise nach.,,,,,,,,,0,1,1,1,0,8,8,14,,,,,4.8,,,,,,,,864.7640714117751,6.009797352678106,None,,,,,,,,E12K08,2021_Oct_14_1331,ER_paradigm,2021.1.4,60.02628518174762,
4,,1,DISTANZIEREN,,Stimuli/9421.jpg,,StimuliNegative.xlsx,24,Nehmen Sie die Position eines uninvolvierten Beobachters ein. Denken Sie über das Bild in einer neutralen Weise nach.,,,,,,,,,0,1,1,1,0,9,9,17,,,,,4.7,,,,,,,,875.5243653817588,6.005370832503104,None,,,,,,,,E12K08,2021_Oct_14_1331,ER_paradigm,2021.1.4,60.02628518174762,
4,,1,DISTANZIEREN,,Stimuli/3230.jpg,,StimuliNegative.xlsx,24,Nehmen Sie die Position eines uninvolvierten Beobachters ein. Denken Sie über das Bild in einer neutralen Weise nach.,,,,,,,,,0,1,1,1,0,10,10,5,,,,,4.5,,,,,,,,886.0890725586414,6.009726359229717,None,,,,,,,,E12K08,2021_Oct_14_1331,ER_paradigm,2021.1.4,60.02628518174762,
4,,1,DISTANZIEREN,,Stimuli/9185.jpg,,StimuliNegative.xlsx,24,Nehmen Sie die Position eines uninvolvierten Beobachters ein. Denken Sie über das Bild in einer neutralen Weise nach.,,,,,,,,,0,1,1,1,0,11,11,10,,,,,4.2,,,,,,,,896.3394490998144,6.011083030255577,None,,,,,,,,E12K08,2021_Oct_14_1331,ER_paradigm,2021.1.4,60.02628518174762,
4,,1,DISTANZIEREN,,Stimuli/3061.jpg,,StimuliNegative.xlsx,24,Nehmen Sie die Position eines uninvolvierten Beobachters ein. Denken Sie über das Bild in einer neutralen Weise nach.,,,,,,,,,0,1,1,1,0,12,12,4,,,,,3.1,,,,,,,,905.4896616791602,6.007281111284101,None,,,,,,,,E12K08,2021_Oct_14_1331,ER_paradigm,2021.1.4,60.02628518174762,
4,,1,DISTANZIEREN,,Stimuli/9411.jpg,,StimuliNegative.xlsx,24,Nehmen Sie die Position eines uninvolvierten Beobachters ein. Denken Sie über das Bild in einer neutralen Weise nach.,,,,,,,,,0,1,1,1,0,13,13,15,,,,,4.8,,,,,,,,916.34231899317,6.0029743464392595,None,,,,,,,,E12K08,2021_Oct_14_1331,ER_paradigm,2021.1.4,60.02628518174762,
4,,1,DISTANZIEREN,,Stimuli/6838.jpg,,StimuliNegative.xlsx,24,Nehmen Sie die Position eines uninvolvierten Beobachters ein. Denken Sie über das Bild in einer neutralen Weise nach.,,,,,,,,,0,1,1,1,0,14,14,7,,,,,3.3,,,,,,,,925.6956527178818,6.013541976441957,None,,,,,,,,E12K08,2021_Oct_14_1331,ER_paradigm,2021.1.4,60.02628518174762,
4,,1,DISTANZIEREN,,Stimuli/9181.jpg,,StimuliNegative.xlsx,24,Nehmen Sie die Position eines uninvolvierten Beobachters ein. Denken Sie über das Bild in einer neutralen Weise nach.,,,,,,,,,0,1,1,1,0,15,15,9,,,,,3.7,,,,,,,,935.4438595157371,6.017036791801729,None,,,,,,,,E12K08,2021_Oct_14_1331,ER_paradigm,2021.1.4,60.02628518174762,
4,,1,DISTANZIEREN,,Stimuli/9120.jpg,,StimuliNegative.xlsx,24,Nehmen Sie die Position eines uninvolvierten Beobachters ein. Denken Sie über das Bild in einer neutralen Weise nach.,,,,,,,,,0,1,1,1,0,16,16,8,,,,,3.5,,,,,,,,944.9913903199322,6.003792711960159,None,,,,,,,,E12K08,2021_Oct_14_1331,ER_paradigm,2021.1.4,60.02628518174762,
4,,1,DISTANZIEREN,,Stimuli/9599.jpg,,StimuliNegative.xlsx,24,Nehmen Sie die Position eines uninvolvierten Beobachters ein. Denken Sie über das Bild in einer neutralen Weise nach.,,,,,,,,,0,1,1,1,0,17,17,18,,,,,3.4,,,,,,,,954.4564166625769,6.0085041041793374,None,,,,,,,,E12K08,2021_Oct_14_1331,ER_paradigm,2021.1.4,60.02628518174762,
4,,1,DISTANZIEREN,,Stimuli/6561.jpg,,StimuliNegative.xlsx,24,Nehmen Sie die Position eines uninvolvierten Beobachters ein. Denken Sie über das Bild in einer neutralen Weise nach.,,,,,,,,,0,1,1,1,0,18,18,6,,,,,3.1,,,,,,,,963.6074264345216,6.005973202139103,None,,,,,,,,E12K08,2021_Oct_14_1331,ER_paradigm,2021.1.4,60.02628518174762,
4,,1,DISTANZIEREN,,Stimuli/9420.jpg,,StimuliNegative.xlsx,24,Nehmen Sie die Position eines uninvolvierten Beobachters ein. Denken Sie über das Bild in einer neutralen Weise nach.,,,,,,,,,0,1,1,1,0,19,19,16,,,,,4.7,,,,,,,,974.3584607798884,6.003816772097707,None,,,,,,,,E12K08,2021_Oct_14_1331,ER_paradigm,2021.1.4,60.02628518174762,
4,,1,DISTANZIEREN,,,,StimuliNegative.xlsx,24,Nehmen Sie die Position eines uninvolvierten Beobachters ein. Denken Sie über das Bild in einer neutralen Weise nach.,,,,,,,,,0,1,1,1,,,,,,,,,,,,,271.48148148148147,10.302182511230058,274.8148148148148,8.349022147838696,,,,,,,,,,,E12K08,2021_Oct_14_1331,ER_paradigm,2021.1.4,60.02628518174762,
5,,1,UNTERDRÜCKEN,,Stimuli/6190.jpg,,StimuliNegative.xlsx,25,"Unterdrücken Sie alle aufkommenden Emotionen. Wenn Sie also die Bilder ansehen, verhalten Sie sich so, dass eine außenstehende Person nicht sehen kann, welche Emotionen Sie gerade empfinden.",,,,,,,,,0,2,2,2,0,0,0,9,,,,,4.2,,,,,,,,1020.1993019993333,6.0049383916093575,None,,,,,,,,E12K08,2021_Oct_14_1331,ER_paradigm,2021.1.4,60.02628518174762,
5,,1,UNTERDRÜCKEN,,Stimuli/225.jpg,,StimuliNegative.xlsx,25,"Unterdrücken Sie alle aufkommenden Emotionen. Wenn Sie also die Bilder ansehen, verhalten Sie sich so, dass eine außenstehende Person nicht sehen kann, welche Emotionen Sie gerade empfinden.",,,,,,,,,0,2,2,2,0,1,1,0,,,,,4.2,,,,,,,,1030.4523697472305,5.998083176861655,None,,,,,,,,E12K08,2021_Oct_14_1331,ER_paradigm,2021.1.4,60.02628518174762,
5,,1,UNTERDRÜCKEN,,Stimuli/6244.jpg,,StimuliNegative.xlsx,25,"Unterdrücken Sie alle aufkommenden Emotionen. Wenn Sie also die Bilder ansehen, verhalten Sie sich so, dass eine außenstehende Person nicht sehen kann, welche Emotionen Sie gerade empfinden.",,,,,,,,,0,2,2,2,0,2,2,10,,,,,3.1,,,,,,,,1039.6022265573247,5.998526204218251,None,,,,,,,,E12K08,2021_Oct_14_1331,ER_paradigm,2021.1.4,60.02628518174762,
5,,1,UNTERDRÜCKEN,,Stimuli/9326.jpg,,StimuliNegative.xlsx,25,"Unterdrücken Sie alle aufkommenden Emotionen. Wenn Sie also die Bilder ansehen, verhalten Sie sich so, dass eine außenstehende Person nicht sehen kann, welche Emotionen Sie gerade empfinden.",,,,,,,,,0,2,2,2,0,3,3,16,,,,,4.9,,,,,,,,1050.5593292546582,6.001680648814727,None,,,,,,,,E12K08,2021_Oct_14_1331,ER_paradigm,2021.1.4,60.02628518174762,
5,,1,UNTERDRÜCKEN,,Stimuli/9425.jpg,,StimuliNegative.xlsx,25,"Unterdrücken Sie alle aufkommenden Emotionen. Wenn Sie also die Bilder ansehen, verhalten Sie sich so, dass eine außenstehende Person nicht sehen kann, welche Emotionen Sie gerade empfinden.",,,,,,,,,0,2,2,2,0,4,4,18,,,,,3.2,,,,,,,,1059.82391828022,6.006298270654042,None,,,,,,,,E12K08,2021_Oct_14_1331,ER_paradigm,2021.1.4,60.02628518174762,
5,,1,UNTERDRÜCKEN,,Stimuli/230.jpg,,StimuliNegative.xlsx,25,"Unterdrücken Sie alle aufkommenden Emotionen. Wenn Sie also die Bilder ansehen, verhalten Sie sich so, dass eine außenstehende Person nicht sehen kann, welche Emotionen Sie gerade empfinden.",,,,,,,,,0,2,2,2,0,5,5,1,,,,,4.0,,,,,,,,1069.8801975112838,6.010019892922173,None,,,,,,,,E12K08,2021_Oct_14_1331,ER_paradigm,2021.1.4,60.02628518174762,
5,,1,UNTERDRÜCKEN,,Stimuli/3022.jpg,,StimuliNegative.xlsx,25,"Unterdrücken Sie alle aufkommenden Emotionen. Wenn Sie also die Bilder ansehen, verhalten Sie sich so, dass eine außenstehende Person nicht sehen kann, welche Emotionen Sie gerade empfinden.",,,,,,,,,0,2,2,2,0,6,6,6,,,,,3.8,,,,,,,,1079.7482427276627,6.008754105060689,None,,,,,,,,E12K08,2021_Oct_14_1331,ER_paradigm,2021.1.4,60.02628518174762,
5,,1,UNTERDRÜCKEN,,Stimuli/327.jpg,,StimuliNegative.xlsx,25,"Unterdrücken Sie alle aufkommenden Emotionen. Wenn Sie also die Bilder ansehen, verhalten Sie sich so, dass eine außenstehende Person nicht sehen kann, welche Emotionen Sie gerade empfinden.",,,,,,,,,0,2,2,2,0,7,7,3,,,,,3.7,,,,,,,,1089.4898519146582,6.006966083866246,None,,,,,,,,E12K08,2021_Oct_14_1331,ER_paradigm,2021.1.4,60.02628518174762,
5,,1,UNTERDRÜCKEN,,Stimuli/1111.jpg,,StimuliNegative.xlsx,25,"Unterdrücken Sie alle aufkommenden Emotionen. Wenn Sie also die Bilder ansehen, verhalten Sie sich so, dass eine außenstehende Person nicht sehen kann, welche Emotionen Sie gerade empfinden.",,,,,,,,,0,2,2,2,0,8,8,4,,,,,4.0,,,,,,,,1099.5565876820428,6.0087764649506425,None,,,,,,,,E12K08,2021_Oct_14_1331,ER_paradigm,2021.1.4,60.02628518174762,
5,,1,UNTERDRÜCKEN,,Stimuli/3280.jpg,,StimuliNegative.xlsx,25,"Unterdrücken Sie alle aufkommenden Emotionen. Wenn Sie also die Bilder ansehen, verhalten Sie sich so, dass eine außenstehende Person nicht sehen kann, welche Emotionen Sie gerade empfinden.",,,,,,,,,0,2,2,2,0,9,9,8,,,,,5.0,,,,,,,,1110.625336481041,6.004434411901457,None,,,,,,,,E12K08,2021_Oct_14_1331,ER_paradigm,2021.1.4,60.02628518174762,
5,,1,UNTERDRÜCKEN,,Stimuli/9253.jpg,,StimuliNegative.xlsx,25,"Unterdrücken Sie alle aufkommenden Emotionen. Wenn Sie also die Bilder ansehen, verhalten Sie sich so, dass eine außenstehende Person nicht sehen kann, welche Emotionen Sie gerade empfinden.",,,,,,,,,0,2,2,2,0,10,10,14,,,,,3.6,,,,,,,,1120.2769613905348,6.017128861933088,None,,,,,,,,E12K08,2021_Oct_14_1331,ER_paradigm,2021.1.4,60.02628518174762,
5,,1,UNTERDRÜCKEN,,Stimuli/3180.jpg,,StimuliNegative.xlsx,25,"Unterdrücken Sie alle aufkommenden Emotionen. Wenn Sie also die Bilder ansehen, verhalten Sie sich so, dass eine außenstehende Person nicht sehen kann, welche Emotionen Sie gerade empfinden.",,,,,,,,,0,2,2,2,0,11,11,7,,,,,3.7,,,,,,,,1130.0416644611541,6.003476176772892,None,,,,,,,,E12K08,2021_Oct_14_1331,ER_paradigm,2021.1.4,60.02628518174762,
5,,1,UNTERDRÜCKEN,,Stimuli/9180.jpg,,StimuliNegative.xlsx,25,"Unterdrücken Sie alle aufkommenden Emotionen. Wenn Sie also die Bilder ansehen, verhalten Sie sich so, dass eine außenstehende Person nicht sehen kann, welche Emotionen Sie gerade empfinden.",,,,,,,,,0,2,2,2,0,12,12,12,,,,,4.2,,,,,,,,1140.2975238267554,6.0081486557282915,None,,,,,,,,E12K08,2021_Oct_14_1331,ER_paradigm,2021.1.4,60.02628518174762,
5,,1,UNTERDRÜCKEN,,Stimuli/3017.jpg,,StimuliNegative.xlsx,25,"Unterdrücken Sie alle aufkommenden Emotionen. Wenn Sie also die Bilder ansehen, verhalten Sie sich so, dass eine außenstehende Person nicht sehen kann, welche Emotionen Sie gerade empfinden.",,,,,,,,,0,2,2,2,0,13,13,5,,,,,4.6,,,,,,,,1150.936512030551,6.012908071983475,None,,,,,,,,E12K08,2021_Oct_14_1331,ER_paradigm,2021.1.4,60.02628518174762,
5,,1,UNTERDRÜCKEN,,Stimuli/9300.jpg,,StimuliNegative.xlsx,25,"Unterdrücken Sie alle aufkommenden Emotionen. Wenn Sie also die Bilder ansehen, verhalten Sie sich so, dass eine außenstehende Person nicht sehen kann, welche Emotionen Sie gerade empfinden.",,,,,,,,,0,2,2,2,0,14,14,15,,,,,4.2,,,,,,,,1161.208741272987,6.003136447614452,None,,,,,,,,E12K08,2021_Oct_14_1331,ER_paradigm,2021.1.4,60.02628518174762,
5,,1,UNTERDRÜCKEN,,Stimuli/9920.jpg,,StimuliNegative.xlsx,25,"Unterdrücken Sie alle aufkommenden Emotionen. Wenn Sie also die Bilder ansehen, verhalten Sie sich so, dass eine außenstehende Person nicht sehen kann, welche Emotionen Sie gerade empfinden.",,,,,,,,,0,2,2,2,0,15,15,19,,,,,4.3,,,,,,,,1171.5763051261893,6.0017547540428495,None,,,,,,,,E12K08,2021_Oct_14_1331,ER_paradigm,2021.1.4,60.02628518174762,
5,,1,UNTERDRÜCKEN,,Stimuli/9424.jpg,,StimuliNegative.xlsx,25,"Unterdrücken Sie alle aufkommenden Emotionen. Wenn Sie also die Bilder ansehen, verhalten Sie sich so, dass eine außenstehende Person nicht sehen kann, welche Emotionen Sie gerade empfinden.",,,,,,,,,0,2,2,2,0,16,16,17,,,,,3.7,,,,,,,,1181.3392033655964,6.009314128851656,None,,,,,,,,E12K08,2021_Oct_14_1331,ER_paradigm,2021.1.4,60.02628518174762,
5,,1,UNTERDRÜCKEN,,Stimuli/9182.jpg,,StimuliNegative.xlsx,25,"Unterdrücken Sie alle aufkommenden Emotionen. Wenn Sie also die Bilder ansehen, verhalten Sie sich so, dass eine außenstehende Person nicht sehen kann, welche Emotionen Sie gerade empfinden.",,,,,,,,,0,2,2,2,0,17,17,13,,,,,3.3,,,,,,,,1190.7023395116566,6.000599867380515,None,,,,,,,,E12K08,2021_Oct_14_1331,ER_paradigm,2021.1.4,60.02628518174762,
5,,1,UNTERDRÜCKEN,,Stimuli/255.jpg,,StimuliNegative.xlsx,25,"Unterdrücken Sie alle aufkommenden Emotionen. Wenn Sie also die Bilder ansehen, verhalten Sie sich so, dass eine außenstehende Person nicht sehen kann, welche Emotionen Sie gerade empfinden.",,,,,,,,,0,2,2,2,0,18,18,2,,,,,3.6,,,,,,,,1200.3478371058027,6.007350500723987,None,,,,,,,,E12K08,2021_Oct_14_1331,ER_paradigm,2021.1.4,60.02628518174762,
5,,1,UNTERDRÜCKEN,,Stimuli/6836.jpg,,StimuliNegative.xlsx,25,"Unterdrücken Sie alle aufkommenden Emotionen. Wenn Sie also die Bilder ansehen, verhalten Sie sich so, dass eine außenstehende Person nicht sehen kann, welche Emotionen Sie gerade empfinden.",,,,,,,,,0,2,2,2,0,19,19,11,,,,,3.8,,,,,,,,1210.2012470209538,6.00124628310914,None,,,,,,,,E12K08,2021_Oct_14_1331,ER_paradigm,2021.1.4,60.02628518174762,
5,,1,UNTERDRÜCKEN,,,,StimuliNegative.xlsx,25,"Unterdrücken Sie alle aufkommenden Emotionen. Wenn Sie also die Bilder ansehen, verhalten Sie sich so, dass eine außenstehende Person nicht sehen kann, welche Emotionen Sie gerade empfinden.",,,,,,,,,0,2,2,2,,,,,,,,,,,,,244.07407407407408,7.620229636379918,117.03703703703705,4.180703191241264,,,,,,,,,,,E12K08,2021_Oct_14_1331,ER_paradigm,2021.1.4,60.02628518174762,
,,,,,,,,,,,,,,,,,,,,,,,,,,,,,,,,,,,,,,,,,3,16.349136032496062,,,,,,E12K08,2021_Oct_14_1331,ER_paradigm,2021.1.4,60.02628518174762,
,,,,,,,,,,,,,,,,,,,,,,,,,,,,,,,,,,,,,,,,,,,space,9.414278056287003,,,,E12K08,2021_Oct_14_1331,ER_paradigm,2021.1.4,60.02628518174762,
,,,,,Stimuli/9904.jpg,,,,,,,,,,,,,,,,,,,,,0,0,0,19,4.3,,,,,,,,,,,,,,,1334.532374841564,6.007940230764689,None,E12K08,2021_Oct_14_1331,ER_paradigm,2021.1.4,60.02628518174762,
,,,,,Stimuli/246.jpg,,,,,,,,,,,,,,,,,,,,,0,1,1,4,4.3,,,,,,,,,,,,,,,1344.8951404614863,6.011959557152295,None,E12K08,2021_Oct_14_1331,ER_paradigm,2021.1.4,60.02628518174762,
,,,,,Stimuli/3301.jpg,,,,,,,,,,,,,,,,,,,,,0,2,2,10,3.7,,,,,,,,,,,,,,,1354.6578394829448,6.003567926102733,None,E12K08,2021_Oct_14_1331,ER_paradigm,2021.1.4,60.02628518174762,
,,,,,Stimuli/9145.jpg,,,,,,,,,,,,,,,,,,,,,0,3,3,16,4.5,,,,,,,,,,,,,,,1365.2219133969738,6.009168484810289,None,E12K08,2021_Oct_14_1331,ER_paradigm,2021.1.4,60.02628518174762,
,,,,,Stimuli/9040.jpg,,,,,,,,,,,,,,,,,,,,,0,4,4,13,4.2,,,,,,,,,,,,,,,1375.4921745200563,6.003819113951977,None,E12K08,2021_Oct_14_1331,ER_paradigm,2021.1.4,60.02628518174762,
,,,,,Stimuli/9160.jpg,,,,,,,,,,,,,,,,,,,,,0,5,5,17,4.6,,,,,,,,,,,,,,,1386.151158624004,6.002676417760085,None,E12K08,2021_Oct_14_1331,ER_paradigm,2021.1.4,60.02628518174762,
,,,,,Stimuli/9031.jpg,,,,,,,,,,,,,,,,,,,,,0,6,6,12,4.7,,,,,,,,,,,,,,,1396.9046317050397,6.012345706339147,None,E12K08,2021_Oct_14_1331,ER_paradigm,2021.1.4,60.02628518174762,
,,,,,Stimuli/6562.jpg,,,,,,,,,,,,,,,,,,,,,0,7,7,11,3.1,,,,,,,,,,,,,,,1406.0579284733776,6.005992450247504,None,E12K08,2021_Oct_14_1331,ER_paradigm,2021.1.4,60.02628518174762,
,,,,,Stimuli/251.jpg,,,,,,,,,,,,,,,,,,,,,0,8,8,5,3.4,,,,,,,,,,,,,,,1415.51415714607,6.007760806290207,None,E12K08,2021_Oct_14_1331,ER_paradigm,2021.1.4,60.02628518174762,
,,,,,Stimuli/3185.jpg,,,,,,,,,,,,,,,,,,,,,0,9,9,9,4.9,,,,,,,,,,,,,,,1426.4810382046135,6.008486235515193,None,E12K08,2021_Oct_14_1331,ER_paradigm,2021.1.4,60.02628518174762,
,,,,,Stimuli/9043.jpg,,,,,,,,,,,,,,,,,,,,,0,10,10,15,3.1,,,,,,,,,,,,,,,1435.6447924716786,6.015221470369397,None,E12K08,2021_Oct_14_1331,ER_paradigm,2021.1.4,60.02628518174762,
,,,,,Stimuli/3051.jpg,,,,,,,,,,,,,,,,,,,,,0,11,11,7,4.2,,,,,,,,,,,,,,,1445.9082853173168,6.003891615169778,None,E12K08,2021_Oct_14_1331,ER_paradigm,2021.1.4,60.02628518174762,
,,,,,Stimuli/228.jpg,,,,,,,,,,,,,,,,,,,,,0,12,12,3,3.2,,,,,,,,,,,,,,,1455.1649104369353,6.006654039906607,None,E12K08,2021_Oct_14_1331,ER_paradigm,2021.1.4,60.02628518174762,
,,,,,Stimuli/2703.jpg,,,,,,,,,,,,,,,,,,,,,0,13,13,6,3.9,,,,,,,,,,,,,,,1465.1285276574508,6.013667827007339,None,E12K08,2021_Oct_14_1331,ER_paradigm,2021.1.4,60.02628518174762,
,,,,,Stimuli/9184.jpg,,,,,,,,,,,,,,,,,,,,,0,14,14,18,3.4,,,,,,,,,,,,,,,1474.5915027930614,6.003958983558732,None,E12K08,2021_Oct_14_1331,ER_paradigm,2021.1.4,60.02628518174762,
,,,,,Stimuli/218.jpg,,,,,,,,,,,,,,,,,,,,,0,15,15,1,4.8,,,,,,,,,,,,,,,1485.446612637219,6.010874926094402,None,E12K08,2021_Oct_14_1331,ER_paradigm,2021.1.4,60.02628518174762,
,,,,,Stimuli/210.jpg,,,,,,,,,,,,,,,,,,,,,0,16,16,0,4.7,,,,,,,,,,,,,,,1496.2020179078008,5.999074454581205,None,E12K08,2021_Oct_14_1331,ER_paradigm,2021.1.4,60.02628518174762,
,,,,,Stimuli/3160.jpg,,,,,,,,,,,,,,,,,,,,,0,17,17,8,4.1,,,,,,,,,,,,,,,1506.3600853204598,6.016242261858679,None,E12K08,2021_Oct_14_1331,ER_paradigm,2021.1.4,60.02628518174762,
,,,,,Stimuli/9042.jpg,,,,,,,,,,,,,,,,,,,,,0,18,18,14,5.0,,,,,,,,,,,,,,,1517.4274129672604,6.015783515212206,None,E12K08,2021_Oct_14_1331,ER_paradigm,2021.1.4,60.02628518174762,
,,,,,Stimuli/222.jpg,,,,,,,,,,,,,,,,,,,,,0,19,19,2,4.2,,,,,,,,,,,,,,,1527.6870764012065,6.012724573324704,None,E12K08,2021_Oct_14_1331,ER_paradigm,2021.1.4,60.02628518174762,
,,,,,,,,,,,,,,,,,,,,,,,,,,,,,,,,,,288.88888888888886,4.201342619904608,234.8148148148148,3.548711355006162,,,,,,,,,,,E12K08,2021_Oct_14_1331,ER_paradigm,2021.1.4,60.02628518174762,
