Block,conds_view_File,n_reps,instr_1,TriggerBlockView,ImageFile,Trigger,conds_reg_File,TriggerBlockReg,instr_2,blocks_view.thisRepN,blocks_view.thisTrialN,blocks_view.thisN,blocks_view.thisIndex,trials_view.thisRepN,trials_view.thisTrialN,trials_view.thisN,trials_view.thisIndex,blocks_reg.thisRepN,blocks_reg.thisTrialN,blocks_reg.thisN,blocks_reg.thisIndex,trials_reg.thisRepN,trials_reg.thisTrialN,trials_reg.thisN,trials_reg.thisIndex,trials_choice.thisRepN,trials_choice.thisTrialN,trials_choice.thisN,trials_choice.thisIndex,Fix_jitter,image_view.started,image_view.lasted,image_view.stopped,slider_arousal.response,slider_arousal.rt,slider_effort.response,slider_effort.rt,image_reg.started,image_reg.lasted,image_reg.stopped,resp_choice.keys,resp_choice.rt,key_resp.keys,key_resp.rt,image.started,image.lased,image.stopped,participant,date,expName,psychopyVersion,frameRate,
,,,,,,,,,,,,,,,,,,,,,,,,,,,,,,,,,,,,,,,,,,,,,,,,F07I10,2021_Oct_21_1450,ER,2021.1.4,59.97154555397503,
1,StimuliNeutral.xlsx,1,ANSCHAUEN,21,Stimuli/7211.jpg,1,,,,0,0,0,0,0,0,0,16,,,,,,,,,,,,,4.4,85.71266676485538,6.021000266540796,None,,,,,,,,,,,,,,,F07I10,2021_Oct_21_1450,ER,2021.1.4,59.97154555397503,
1,StimuliNeutral.xlsx,1,ANSCHAUEN,21,Stimuli/7235.jpg,1,,,,0,0,0,0,0,1,1,19,,,,,,,,,,,,,4.9,96.67670102766715,6.0113928926875815,None,,,,,,,,,,,,,,,F07I10,2021_Oct_21_1450,ER,2021.1.4,59.97154555397503,
1,StimuliNeutral.xlsx,1,ANSCHAUEN,21,Stimuli/083.jpg,1,,,,0,0,0,0,0,2,2,0,,,,,,,,,,,,,4.7,107.43554946454242,6.0111773138633,None,,,,,,,,,,,,,,,F07I10,2021_Oct_21_1450,ER,2021.1.4,59.97154555397503,
1,StimuliNeutral.xlsx,1,ANSCHAUEN,21,Stimuli/7000.jpg,1,,,,0,0,0,0,0,3,3,5,,,,,,,,,,,,,3.9,117.4092597529525,6.013273753924295,None,,,,,,,,,,,,,,,F07I10,2021_Oct_21_1450,ER,2021.1.4,59.97154555397503,
1,StimuliNeutral.xlsx,1,ANSCHAUEN,21,Stimuli/107.jpg,1,,,,0,0,0,0,0,4,4,1,,,,,,,,,,,,,3.4,126.85665290104225,6.0011941528646275,None,,,,,,,,,,,,,,,F07I10,2021_Oct_21_1450,ER,2021.1.4,59.97154555397503,
1,StimuliNeutral.xlsx,1,ANSCHAUEN,21,Stimuli/7021.jpg,1,,,,0,0,0,0,0,5,5,10,,,,,,,,,,,,,4.4,137.30722840351518,6.016654363949783,None,,,,,,,,,,,,,,,F07I10,2021_Oct_21_1450,ER,2021.1.4,59.97154555397503,
1,StimuliNeutral.xlsx,1,ANSCHAUEN,21,Stimuli/7100.jpg,1,,,,0,0,0,0,0,6,6,13,,,,,,,,,,,,,3.6,146.97092957783025,6.0070899134734645,None,,,,,,,,,,,,,,,F07I10,2021_Oct_21_1450,ER,2021.1.4,59.97154555397503,
1,StimuliNeutral.xlsx,1,ANSCHAUEN,21,Stimuli/7224.jpg,1,,,,0,0,0,0,0,7,7,17,,,,,,,,,,,,,3.6,156.63443249673583,6.011896487558261,None,,,,,,,,,,,,,,,F07I10,2021_Oct_21_1450,ER,2021.1.4,59.97154555397503,
1,StimuliNeutral.xlsx,1,ANSCHAUEN,21,Stimuli/7041.jpg,1,,,,0,0,0,0,0,8,8,12,,,,,,,,,,,,,4.4,167.0930379902711,6.013112711603753,None,,,,,,,,,,,,,,,F07I10,2021_Oct_21_1450,ER,2021.1.4,59.97154555397503,
1,StimuliNeutral.xlsx,1,ANSCHAUEN,21,Stimuli/7025.jpg,1,,,,0,0,0,0,0,9,9,11,,,,,,,,,,,,,3.2,176.3505873400718,6.013783123111352,None,,,,,,,,,,,,,,,F07I10,2021_Oct_21_1450,ER,2021.1.4,59.97154555397503,
1,StimuliNeutral.xlsx,1,ANSCHAUEN,21,Stimuli/143.jpg,1,,,,0,0,0,0,0,10,10,4,,,,,,,,,,,,,3.8,186.215889700572,5.999527972191572,None,,,,,,,,,,,,,,,F07I10,2021_Oct_21_1450,ER,2021.1.4,59.97154555397503,
1,StimuliNeutral.xlsx,1,ANSCHAUEN,21,Stimuli/7004.jpg,1,,,,0,0,0,0,0,11,11,7,,,,,,,,,,,,,3.6,195.86263200594112,6.008282077149488,None,,,,,,,,,,,,,,,F07I10,2021_Oct_21_1450,ER,2021.1.4,59.97154555397503,
1,StimuliNeutral.xlsx,1,ANSCHAUEN,21,Stimuli/140.jpg,1,,,,0,0,0,0,0,12,12,3,,,,,,,,,,,,,3.4,205.3108884318499,6.0106466435827315,None,,,,,,,,,,,,,,,F07I10,2021_Oct_21_1450,ER,2021.1.4,59.97154555397503,
1,StimuliNeutral.xlsx,1,ANSCHAUEN,21,Stimuli/7233.jpg,1,,,,0,0,0,0,0,13,13,18,,,,,,,,,,,,,3.5,214.86531711742282,6.002076807199046,None,,,,,,,,,,,,,,,F07I10,2021_Oct_21_1450,ER,2021.1.4,59.97154555397503,
1,StimuliNeutral.xlsx,1,ANSCHAUEN,21,Stimuli/124.jpg,1,,,,0,0,0,0,0,14,14,2,,,,,,,,,,,,,3.8,224.68725637102034,6.007401668815874,None,,,,,,,,,,,,,,,F07I10,2021_Oct_21_1450,ER,2021.1.4,59.97154555397503,
1,StimuliNeutral.xlsx,1,ANSCHAUEN,21,Stimuli/7002.jpg,1,,,,0,0,0,0,0,15,15,6,,,,,,,,,,,,,4.0,234.75172984378878,6.0129600098589435,None,,,,,,,,,,,,,,,F07I10,2021_Oct_21_1450,ER,2021.1.4,59.97154555397503,
1,StimuliNeutral.xlsx,1,ANSCHAUEN,21,Stimuli/7006.jpg,1,,,,0,0,0,0,0,16,16,8,,,,,,,,,,,,,4.8,245.62574710743502,6.0139971622265875,None,,,,,,,,,,,,,,,F07I10,2021_Oct_21_1450,ER,2021.1.4,59.97154555397503,
1,StimuliNeutral.xlsx,1,ANSCHAUEN,21,Stimuli/7009.jpg,1,,,,0,0,0,0,0,17,17,9,,,,,,,,,,,,,3.0,254.6708338826429,6.007148620206863,None,,,,,,,,,,,,,,,F07I10,2021_Oct_21_1450,ER,2021.1.4,59.97154555397503,
1,StimuliNeutral.xlsx,1,ANSCHAUEN,21,Stimuli/7150.jpg,1,,,,0,0,0,0,0,18,18,14,,,,,,,,,,,,,3.3,264.02681390184443,6.011400912888348,None,,,,,,,,,,,,,,,F07I10,2021_Oct_21_1450,ER,2021.1.4,59.97154555397503,
1,StimuliNeutral.xlsx,1,ANSCHAUEN,21,Stimuli/7185.jpg,1,,,,0,0,0,0,0,19,19,15,,,,,,,,,,,,,3.7,273.7721941146301,6.004744851845317,None,,,,,,,,,,,,,,,F07I10,2021_Oct_21_1450,ER,2021.1.4,59.97154555397503,
1,StimuliNeutral.xlsx,1,ANSCHAUEN,21,,,,,,0,0,0,0,,,,,,,,,,,,,,,,,,,,,0,3.7343850501347333,0,2.664494838216342,,,,,,,,,,,F07I10,2021_Oct_21_1450,ER,2021.1.4,59.97154555397503,
2,StimuliNegative.xlsx,1,ANSCHAUEN,22,Stimuli/218.jpg,,,,,0,1,1,1,0,0,0,1,,,,,,,,,,,,,3.7,297.5448139333166,6.008687185705639,None,,,,,,,,,,,,,,,F07I10,2021_Oct_21_1450,ER,2021.1.4,59.97154555397503,
2,StimuliNegative.xlsx,1,ANSCHAUEN,22,Stimuli/9904.jpg,,,,,0,1,1,1,0,1,1,19,,,,,,,,,,,,,5.0,308.6222365726717,6.004508485086262,None,,,,,,,,,,,,,,,F07I10,2021_Oct_21_1450,ER,2021.1.4,59.97154555397503,
2,StimuliNegative.xlsx,1,ANSCHAUEN,22,Stimuli/6562.jpg,,,,,0,1,1,1,0,2,2,11,,,,,,,,,,,,,3.4,318.05793745582923,6.016588856233284,None,,,,,,,,,,,,,,,F07I10,2021_Oct_21_1450,ER,2021.1.4,59.97154555397503,
2,StimuliNegative.xlsx,1,ANSCHAUEN,22,Stimuli/2703.jpg,,,,,0,1,1,1,0,3,3,6,,,,,,,,,,,,,3.2,327.3035038940143,6.008566564298235,None,,,,,,,,,,,,,,,F07I10,2021_Oct_21_1450,ER,2021.1.4,59.97154555397503,
2,StimuliNegative.xlsx,1,ANSCHAUEN,22,Stimuli/3160.jpg,,,,,0,1,1,1,0,4,4,8,,,,,,,,,,,,,4.4,337.775404699496,6.0134954281384125,None,,,,,,,,,,,,,,,F07I10,2021_Oct_21_1450,ER,2021.1.4,59.97154555397503,
2,StimuliNegative.xlsx,1,ANSCHAUEN,22,Stimuli/228.jpg,,,,,0,1,1,1,0,5,5,3,,,,,,,,,,,,,3.9,347.7236879123375,6.0010328537318856,None,,,,,,,,,,,,,,,F07I10,2021_Oct_21_1450,ER,2021.1.4,59.97154555397503,
2,StimuliNegative.xlsx,1,ANSCHAUEN,22,Stimuli/222.jpg,,,,,0,1,1,1,0,6,6,2,,,,,,,,,,,,,4.6,358.37908801808953,6.006556099047884,None,,,,,,,,,,,,,,,F07I10,2021_Oct_21_1450,ER,2021.1.4,59.97154555397503,
2,StimuliNegative.xlsx,1,ANSCHAUEN,22,Stimuli/210.jpg,,,,,0,1,1,1,0,7,7,0,,,,,,,,,,,,,3.7,368.1163500191178,5.998265296104364,None,,,,,,,,,,,,,,,F07I10,2021_Oct_21_1450,ER,2021.1.4,59.97154555397503,
2,StimuliNegative.xlsx,1,ANSCHAUEN,22,Stimuli/9031.jpg,,,,,0,1,1,1,0,8,8,12,,,,,,,,,,,,,3.2,377.3693895365577,6.0102800311287865,None,,,,,,,,,,,,,,,F07I10,2021_Oct_21_1450,ER,2021.1.4,59.97154555397503,
2,StimuliNegative.xlsx,1,ANSCHAUEN,22,Stimuli/9042.jpg,,,,,0,1,1,1,0,9,9,14,,,,,,,,,,,,,4.8,388.22257424879353,6.004946956993081,None,,,,,,,,,,,,,,,F07I10,2021_Oct_21_1450,ER,2021.1.4,59.97154555397503,
2,StimuliNegative.xlsx,1,ANSCHAUEN,22,Stimuli/3301.jpg,,,,,0,1,1,1,0,10,10,10,,,,,,,,,,,,,4.5,398.78166386438534,6.000483961659484,None,,,,,,,,,,,,,,,F07I10,2021_Oct_21_1450,ER,2021.1.4,59.97154555397503,
2,StimuliNegative.xlsx,1,ANSCHAUEN,22,Stimuli/9184.jpg,,,,,0,1,1,1,0,11,11,18,,,,,,,,,,,,,3.3,408.1121026027249,6.00771323137451,None,,,,,,,,,,,,,,,F07I10,2021_Oct_21_1450,ER,2021.1.4,59.97154555397503,
2,StimuliNegative.xlsx,1,ANSCHAUEN,22,Stimuli/9145.jpg,,,,,0,1,1,1,0,12,12,16,,,,,,,,,,,,,4.2,418.3688342284877,6.010888848919421,None,,,,,,,,,,,,,,,F07I10,2021_Oct_21_1450,ER,2021.1.4,59.97154555397503,
2,StimuliNegative.xlsx,1,ANSCHAUEN,22,Stimuli/9040.jpg,,,,,0,1,1,1,0,13,13,13,,,,,,,,,,,,,3.5,427.9386954079382,6.0055019442224875,None,,,,,,,,,,,,,,,F07I10,2021_Oct_21_1450,ER,2021.1.4,59.97154555397503,
2,StimuliNegative.xlsx,1,ANSCHAUEN,22,Stimuli/246.jpg,,,,,0,1,1,1,0,14,14,4,,,,,,,,,,,,,4.8,438.78800451301504,6.003782446263358,None,,,,,,,,,,,,,,,F07I10,2021_Oct_21_1450,ER,2021.1.4,59.97154555397503,
2,StimuliNegative.xlsx,1,ANSCHAUEN,22,Stimuli/251.jpg,,,,,0,1,1,1,0,15,15,5,,,,,,,,,,,,,3.2,448.0251733211335,6.014505569008179,None,,,,,,,,,,,,,,,F07I10,2021_Oct_21_1450,ER,2021.1.4,59.97154555397503,
2,StimuliNegative.xlsx,1,ANSCHAUEN,22,Stimuli/9160.jpg,,,,,0,1,1,1,0,16,16,17,,,,,,,,,,,,,4.8,458.89974332635757,5.999036247027107,None,,,,,,,,,,,,,,,F07I10,2021_Oct_21_1450,ER,2021.1.4,59.97154555397503,
2,StimuliNegative.xlsx,1,ANSCHAUEN,22,Stimuli/3185.jpg,,,,,0,1,1,1,0,17,17,9,,,,,,,,,,,,,4.7,469.65591114293784,6.002863669884391,None,,,,,,,,,,,,,,,F07I10,2021_Oct_21_1450,ER,2021.1.4,59.97154555397503,
2,StimuliNegative.xlsx,1,ANSCHAUEN,22,Stimuli/3051.jpg,,,,,0,1,1,1,0,18,18,7,,,,,,,,,,,,,4.1,479.8388968394138,6.004070269642398,None,,,,,,,,,,,,,,,F07I10,2021_Oct_21_1450,ER,2021.1.4,59.97154555397503,
2,StimuliNegative.xlsx,1,ANSCHAUEN,22,Stimuli/9043.jpg,,,,,0,1,1,1,0,19,19,15,,,,,,,,,,,,,4.8,490.7213861590717,6.005471853073686,None,,,,,,,,,,,,,,,F07I10,2021_Oct_21_1450,ER,2021.1.4,59.97154555397503,
2,StimuliNegative.xlsx,1,ANSCHAUEN,22,,,,,,0,1,1,1,,,,,,,,,,,,,,,,,,,,,204.81481481481484,4.618846980389208,2.592592592592591,2.9145775247598067,,,,,,,,,,,F07I10,2021_Oct_21_1450,ER,2021.1.4,59.97154555397503,
5,,1,UNTERDRÜCKEN,,Stimuli/9185.jpg,,StimuliNegative.xlsx,25,"Unterdrücken Sie alle aufkommenden Emotionen. Wenn Sie also die Bilder ansehen, verhalten Sie sich so, dass eine außenstehende Person nicht sehen kann, welche Emotionen Sie gerade empfinden.",,,,,,,,,0,0,0,2,0,0,0,10,,,,,4.0,,,,,,,,521.7939794474514,6.011047709966078,None,,,,,,,,F07I10,2021_Oct_21_1450,ER,2021.1.4,59.97154555397503,
5,,1,UNTERDRÜCKEN,,Stimuli/9120.jpg,,StimuliNegative.xlsx,25,"Unterdrücken Sie alle aufkommenden Emotionen. Wenn Sie also die Bilder ansehen, verhalten Sie sich so, dass eine außenstehende Person nicht sehen kann, welche Emotionen Sie gerade empfinden.",,,,,,,,,0,0,0,2,0,1,1,8,,,,,3.2,,,,,,,,531.0507973689819,6.01326278259512,None,,,,,,,,F07I10,2021_Oct_21_1450,ER,2021.1.4,59.97154555397503,
5,,1,UNTERDRÜCKEN,,Stimuli/227.jpg,,StimuliNegative.xlsx,25,"Unterdrücken Sie alle aufkommenden Emotionen. Wenn Sie also die Bilder ansehen, verhalten Sie sich so, dass eine außenstehende Person nicht sehen kann, welche Emotionen Sie gerade empfinden.",,,,,,,,,0,0,0,2,0,2,2,0,,,,,4.8,,,,,,,,541.9186837885063,6.011142346542329,None,,,,,,,,F07I10,2021_Oct_21_1450,ER,2021.1.4,59.97154555397503,
5,,1,UNTERDRÜCKEN,,Stimuli/9295.jpg,,StimuliNegative.xlsx,25,"Unterdrücken Sie alle aufkommenden Emotionen. Wenn Sie also die Bilder ansehen, verhalten Sie sich so, dass eine außenstehende Person nicht sehen kann, welche Emotionen Sie gerade empfinden.",,,,,,,,,0,0,0,2,0,3,3,13,,,,,4.0,,,,,,,,551.995816423092,6.007271230686456,None,,,,,,,,F07I10,2021_Oct_21_1450,ER,2021.1.4,59.97154555397503,
5,,1,UNTERDRÜCKEN,,Stimuli/3230.jpg,,StimuliNegative.xlsx,25,"Unterdrücken Sie alle aufkommenden Emotionen. Wenn Sie also die Bilder ansehen, verhalten Sie sich so, dass eine außenstehende Person nicht sehen kann, welche Emotionen Sie gerade empfinden.",,,,,,,,,0,0,0,2,0,4,4,5,,,,,4.7,,,,,,,,562.7423659585183,6.012856711633503,None,,,,,,,,F07I10,2021_Oct_21_1450,ER,2021.1.4,59.97154555397503,
5,,1,UNTERDRÜCKEN,,Stimuli/2800.jpg,,StimuliNegative.xlsx,25,"Unterdrücken Sie alle aufkommenden Emotionen. Wenn Sie also die Bilder ansehen, verhalten Sie sich so, dass eine außenstehende Person nicht sehen kann, welche Emotionen Sie gerade empfinden.",,,,,,,,,0,0,0,2,0,5,5,3,,,,,3.1,,,,,,,,571.8865837136982,6.008568489109166,None,,,,,,,,F07I10,2021_Oct_21_1450,ER,2021.1.4,59.97154555397503,
5,,1,UNTERDRÜCKEN,,Stimuli/9230.jpg,,StimuliNegative.xlsx,25,"Unterdrücken Sie alle aufkommenden Emotionen. Wenn Sie also die Bilder ansehen, verhalten Sie sich so, dass eine außenstehende Person nicht sehen kann, welche Emotionen Sie gerade empfinden.",,,,,,,,,0,0,0,2,0,6,6,11,,,,,3.5,,,,,,,,581.4538149595028,6.006832309532911,None,,,,,,,,F07I10,2021_Oct_21_1450,ER,2021.1.4,59.97154555397503,
5,,1,UNTERDRÜCKEN,,Stimuli/9411.jpg,,StimuliNegative.xlsx,25,"Unterdrücken Sie alle aufkommenden Emotionen. Wenn Sie also die Bilder ansehen, verhalten Sie sich so, dass eine außenstehende Person nicht sehen kann, welche Emotionen Sie gerade empfinden.",,,,,,,,,0,0,0,2,0,7,7,15,,,,,3.1,,,,,,,,590.6010601217858,6.01236517901998,None,,,,,,,,F07I10,2021_Oct_21_1450,ER,2021.1.4,59.97154555397503,
5,,1,UNTERDRÜCKEN,,Stimuli/6561.jpg,,StimuliNegative.xlsx,25,"Unterdrücken Sie alle aufkommenden Emotionen. Wenn Sie also die Bilder ansehen, verhalten Sie sich so, dass eine außenstehende Person nicht sehen kann, welche Emotionen Sie gerade empfinden.",,,,,,,,,0,0,0,2,0,8,8,6,,,,,3.4,,,,,,,,600.0498882165411,6.014666932285763,None,,,,,,,,F07I10,2021_Oct_21_1450,ER,2021.1.4,59.97154555397503,
5,,1,UNTERDRÜCKEN,,Stimuli/6838.jpg,,StimuliNegative.xlsx,25,"Unterdrücken Sie alle aufkommenden Emotionen. Wenn Sie also die Bilder ansehen, verhalten Sie sich so, dass eine außenstehende Person nicht sehen kann, welche Emotionen Sie gerade empfinden.",,,,,,,,,0,0,0,2,0,9,9,7,,,,,4.3,,,,,,,,610.4020333704539,6.010800949065015,None,,,,,,,,F07I10,2021_Oct_21_1450,ER,2021.1.4,59.97154555397503,
5,,1,UNTERDRÜCKEN,,Stimuli/9420.jpg,,StimuliNegative.xlsx,25,"Unterdrücken Sie alle aufkommenden Emotionen. Wenn Sie also die Bilder ansehen, verhalten Sie sich so, dass eine außenstehende Person nicht sehen kann, welche Emotionen Sie gerade empfinden.",,,,,,,,,0,0,0,2,0,10,10,16,,,,,4.8,,,,,,,,621.2599986718269,6.0121493433834985,None,,,,,,,,F07I10,2021_Oct_21_1450,ER,2021.1.4,59.97154555397503,
5,,1,UNTERDRÜCKEN,,Stimuli/9332.jpg,,StimuliNegative.xlsx,25,"Unterdrücken Sie alle aufkommenden Emotionen. Wenn Sie also die Bilder ansehen, verhalten Sie sich so, dass eine außenstehende Person nicht sehen kann, welche Emotionen Sie gerade empfinden.",,,,,,,,,0,0,0,2,0,11,11,14,,,,,5.0,,,,,,,,632.3131285911659,6.00447255524341,None,,,,,,,,F07I10,2021_Oct_21_1450,ER,2021.1.4,59.97154555397503,
5,,1,UNTERDRÜCKEN,,Stimuli/9254.jpg,,StimuliNegative.xlsx,25,"Unterdrücken Sie alle aufkommenden Emotionen. Wenn Sie also die Bilder ansehen, verhalten Sie sich so, dass eine außenstehende Person nicht sehen kann, welche Emotionen Sie gerade empfinden.",,,,,,,,,0,0,0,2,0,12,12,12,,,,,4.9,,,,,,,,643.2527921791188,6.008402313687839,None,,,,,,,,F07I10,2021_Oct_21_1450,ER,2021.1.4,59.97154555397503,
5,,1,UNTERDRÜCKEN,,Stimuli/3061.jpg,,StimuliNegative.xlsx,25,"Unterdrücken Sie alle aufkommenden Emotionen. Wenn Sie also die Bilder ansehen, verhalten Sie sich so, dass eine außenstehende Person nicht sehen kann, welche Emotionen Sie gerade empfinden.",,,,,,,,,0,0,0,2,0,13,13,4,,,,,4.3,,,,,,,,653.6252626965288,6.014113292447291,None,,,,,,,,F07I10,2021_Oct_21_1450,ER,2021.1.4,59.97154555397503,
5,,1,UNTERDRÜCKEN,,Stimuli/9181.jpg,,StimuliNegative.xlsx,25,"Unterdrücken Sie alle aufkommenden Emotionen. Wenn Sie also die Bilder ansehen, verhalten Sie sich so, dass eine außenstehende Person nicht sehen kann, welche Emotionen Sie gerade empfinden.",,,,,,,,,0,0,0,2,0,14,14,9,,,,,3.7,,,,,,,,663.3718731844565,6.00420365924947,None,,,,,,,,F07I10,2021_Oct_21_1450,ER,2021.1.4,59.97154555397503,
5,,1,UNTERDRÜCKEN,,Stimuli/1051.jpg,,StimuliNegative.xlsx,25,"Unterdrücken Sie alle aufkommenden Emotionen. Wenn Sie also die Bilder ansehen, verhalten Sie sich so, dass eine außenstehende Person nicht sehen kann, welche Emotionen Sie gerade empfinden.",,,,,,,,,0,0,0,2,0,15,15,2,,,,,5.0,,,,,,,,674.4413248603232,6.015030144131742,None,,,,,,,,F07I10,2021_Oct_21_1450,ER,2021.1.4,59.97154555397503,
5,,1,UNTERDRÜCKEN,,Stimuli/9421.jpg,,StimuliNegative.xlsx,25,"Unterdrücken Sie alle aufkommenden Emotionen. Wenn Sie also die Bilder ansehen, verhalten Sie sich so, dass eine außenstehende Person nicht sehen kann, welche Emotionen Sie gerade empfinden.",,,,,,,,,0,0,0,2,0,16,16,17,,,,,4.8,,,,,,,,685.2810660501709,6.002714496920817,None,,,,,,,,F07I10,2021_Oct_21_1450,ER,2021.1.4,59.97154555397503,
5,,1,UNTERDRÜCKEN,,Stimuli/9905.jpg,,StimuliNegative.xlsx,25,"Unterdrücken Sie alle aufkommenden Emotionen. Wenn Sie also die Bilder ansehen, verhalten Sie sich so, dass eine außenstehende Person nicht sehen kann, welche Emotionen Sie gerade empfinden.",,,,,,,,,0,0,0,2,0,17,17,19,,,,,4.0,,,,,,,,695.3476879328955,6.004258259548806,None,,,,,,,,F07I10,2021_Oct_21_1450,ER,2021.1.4,59.97154555397503,
5,,1,UNTERDRÜCKEN,,Stimuli/252.jpg,,StimuliNegative.xlsx,25,"Unterdrücken Sie alle aufkommenden Emotionen. Wenn Sie also die Bilder ansehen, verhalten Sie sich so, dass eine außenstehende Person nicht sehen kann, welche Emotionen Sie gerade empfinden.",,,,,,,,,0,0,0,2,0,18,18,1,,,,,3.2,,,,,,,,704.583463498624,6.013180336449295,None,,,,,,,,F07I10,2021_Oct_21_1450,ER,2021.1.4,59.97154555397503,
5,,1,UNTERDRÜCKEN,,Stimuli/9599.jpg,,StimuliNegative.xlsx,25,"Unterdrücken Sie alle aufkommenden Emotionen. Wenn Sie also die Bilder ansehen, verhalten Sie sich so, dass eine außenstehende Person nicht sehen kann, welche Emotionen Sie gerade empfinden.",,,,,,,,,0,0,0,2,0,19,19,18,,,,,3.2,,,,,,,,713.8465675323969,6.006193657172844,None,,,,,,,,F07I10,2021_Oct_21_1450,ER,2021.1.4,59.97154555397503,
5,,1,UNTERDRÜCKEN,,,,StimuliNegative.xlsx,25,"Unterdrücken Sie alle aufkommenden Emotionen. Wenn Sie also die Bilder ansehen, verhalten Sie sich so, dass eine außenstehende Person nicht sehen kann, welche Emotionen Sie gerade empfinden.",,,,,,,,,0,0,0,2,,,,,,,,,,,,,181.11111111111111,6.835462976479903,0.0,2.4651039766613394,,,,,,,,,,,F07I10,2021_Oct_21_1450,ER,2021.1.4,59.97154555397503,
4,,1,DISTANZIEREN,,Stimuli/8230.jpg,,StimuliNegative.xlsx,24,Nehmen Sie die Position eines uninvolvierten Beobachters ein. Denken Sie über das Bild in einer neutralen Weise nach.,,,,,,,,,0,1,1,1,0,0,0,13,,,,,3.2,,,,,,,,747.140303010121,6.016385211143643,None,,,,,,,,F07I10,2021_Oct_21_1450,ER,2021.1.4,59.97154555397503,
4,,1,DISTANZIEREN,,Stimuli/326.jpg,,StimuliNegative.xlsx,24,Nehmen Sie die Position eines uninvolvierten Beobachters ein. Denken Sie über das Bild in einer neutralen Weise nach.,,,,,,,,,0,1,1,1,0,1,1,5,,,,,3.5,,,,,,,,756.6800880536903,6.004898515995592,None,,,,,,,,F07I10,2021_Oct_21_1450,ER,2021.1.4,59.97154555397503,
4,,1,DISTANZIEREN,,Stimuli/9041.jpg,,StimuliNegative.xlsx,24,Nehmen Sie die Position eines uninvolvierten Beobachters ein. Denken Sie über das Bild in einer neutralen Weise nach.,,,,,,,,,0,1,1,1,0,2,2,14,,,,,4.0,,,,,,,,766.7245803831611,6.0157782540190965,None,,,,,,,,F07I10,2021_Oct_21_1450,ER,2021.1.4,59.97154555397503,
4,,1,DISTANZIEREN,,Stimuli/253.jpg,,StimuliNegative.xlsx,24,Nehmen Sie die Position eines uninvolvierten Beobachters ein. Denken Sie über das Bild in einer neutralen Weise nach.,,,,,,,,,0,1,1,1,0,3,3,3,,,,,4.4,,,,,,,,777.1817871807143,6.000641154590994,None,,,,,,,,F07I10,2021_Oct_21_1450,ER,2021.1.4,59.97154555397503,
4,,1,DISTANZIEREN,,Stimuli/9340.jpg,,StimuliNegative.xlsx,24,Nehmen Sie die Position eines uninvolvierten Beobachters ein. Denken Sie über das Bild in einer neutralen Weise nach.,,,,,,,,,0,1,1,1,0,4,4,16,,,,,4.7,,,,,,,,787.9513343592407,6.011758286156692,None,,,,,,,,F07I10,2021_Oct_21_1450,ER,2021.1.4,59.97154555397503,
4,,1,DISTANZIEREN,,Stimuli/208.jpg,,StimuliNegative.xlsx,24,Nehmen Sie die Position eines uninvolvierten Beobachters ein. Denken Sie über das Bild in einer neutralen Weise nach.,,,,,,,,,0,1,1,1,0,5,5,0,,,,,4.4,,,,,,,,798.4263610579073,6.011220942833461,None,,,,,,,,F07I10,2021_Oct_21_1450,ER,2021.1.4,59.97154555397503,
4,,1,DISTANZIEREN,,Stimuli/9409.jpg,,StimuliNegative.xlsx,24,Nehmen Sie die Position eines uninvolvierten Beobachters ein. Denken Sie über das Bild in einer neutralen Weise nach.,,,,,,,,,0,1,1,1,0,6,6,17,,,,,3.5,,,,,,,,807.9835175216431,6.014179955120198,None,,,,,,,,F07I10,2021_Oct_21_1450,ER,2021.1.4,59.97154555397503,
4,,1,DISTANZIEREN,,Stimuli/6555.jpg,,StimuliNegative.xlsx,24,Nehmen Sie die Position eines uninvolvierten Beobachters ein. Denken Sie über das Bild in einer neutralen Weise nach.,,,,,,,,,0,1,1,1,0,7,7,10,,,,,4.5,,,,,,,,818.555261166417,6.003454586840235,None,,,,,,,,F07I10,2021_Oct_21_1450,ER,2021.1.4,59.97154555397503,
4,,1,DISTANZIEREN,,Stimuli/9140.jpg,,StimuliNegative.xlsx,24,Nehmen Sie die Position eines uninvolvierten Beobachters ein. Denken Sie über das Bild in einer neutralen Weise nach.,,,,,,,,,0,1,1,1,0,8,8,15,,,,,3.3,,,,,,,,827.9279212778201,6.009365425095893,None,,,,,,,,F07I10,2021_Oct_21_1450,ER,2021.1.4,59.97154555397503,
4,,1,DISTANZIEREN,,Stimuli/226.jpg,,StimuliNegative.xlsx,24,Nehmen Sie die Position eines uninvolvierten Beobachters ein. Denken Sie über das Bild in einer neutralen Weise nach.,,,,,,,,,0,1,1,1,0,9,9,2,,,,,3.3,,,,,,,,837.2890485626413,6.003353854874149,None,,,,,,,,F07I10,2021_Oct_21_1450,ER,2021.1.4,59.97154555397503,
4,,1,DISTANZIEREN,,Stimuli/6242.jpg,,StimuliNegative.xlsx,24,Nehmen Sie die Position eines uninvolvierten Beobachters ein. Denken Sie über das Bild in einer neutralen Weise nach.,,,,,,,,,0,1,1,1,0,10,10,8,,,,,4.8,,,,,,,,848.1466779845068,6.005021062330343,None,,,,,,,,F07I10,2021_Oct_21_1450,ER,2021.1.4,59.97154555397503,
4,,1,DISTANZIEREN,,Stimuli/9570.jpg,,StimuliNegative.xlsx,24,Nehmen Sie die Position eines uninvolvierten Beobachters ein. Denken Sie über das Bild in einer neutralen Weise nach.,,,,,,,,,0,1,1,1,0,11,11,18,,,,,4.5,,,,,,,,858.7122253414709,6.007717465865426,None,,,,,,,,F07I10,2021_Oct_21_1450,ER,2021.1.4,59.97154555397503,
4,,1,DISTANZIEREN,,Stimuli/219.jpg,,StimuliNegative.xlsx,24,Nehmen Sie die Position eines uninvolvierten Beobachters ein. Denken Sie über das Bild in einer neutralen Weise nach.,,,,,,,,,0,1,1,1,0,12,12,1,,,,,3.5,,,,,,,,868.2679150991607,6.011592046590522,None,,,,,,,,F07I10,2021_Oct_21_1450,ER,2021.1.4,59.97154555397503,
4,,1,DISTANZIEREN,,Stimuli/6825.jpg,,StimuliNegative.xlsx,24,Nehmen Sie die Position eines uninvolvierten Beobachters ein. Denken Sie über das Bild in einer neutralen Weise nach.,,,,,,,,,0,1,1,1,0,13,13,11,,,,,3.1,,,,,,,,877.4287837535376,6.006886268383823,None,,,,,,,,F07I10,2021_Oct_21_1450,ER,2021.1.4,59.97154555397503,
4,,1,DISTANZIEREN,,Stimuli/254.jpg,,StimuliNegative.xlsx,24,Nehmen Sie die Position eines uninvolvierten Beobachters ein. Denken Sie über das Bild in einer neutralen Weise nach.,,,,,,,,,0,1,1,1,0,14,14,4,,,,,3.4,,,,,,,,886.8792591658421,6.005232470692135,None,,,,,,,,F07I10,2021_Oct_21_1450,ER,2021.1.4,59.97154555397503,
4,,1,DISTANZIEREN,,Stimuli/1301.jpg,,StimuliNegative.xlsx,24,Nehmen Sie die Position eines uninvolvierten Beobachters ein. Denken Sie über das Bild in einer neutralen Weise nach.,,,,,,,,,0,1,1,1,0,15,15,6,,,,,3.1,,,,,,,,896.0220532023814,6.00336957431864,None,,,,,,,,F07I10,2021_Oct_21_1450,ER,2021.1.4,59.97154555397503,
4,,1,DISTANZIEREN,,Stimuli/3350.jpg,,StimuliNegative.xlsx,24,Nehmen Sie die Position eines uninvolvierten Beobachters ein. Denken Sie über das Bild in einer neutralen Weise nach.,,,,,,,,,0,1,1,1,0,16,16,7,,,,,4.4,,,,,,,,906.4956600321457,6.007044423604384,None,,,,,,,,F07I10,2021_Oct_21_1450,ER,2021.1.4,59.97154555397503,
4,,1,DISTANZIEREN,,Stimuli/6410.jpg,,StimuliNegative.xlsx,24,Nehmen Sie die Position eines uninvolvierten Beobachters ein. Denken Sie über das Bild in einer neutralen Weise nach.,,,,,,,,,0,1,1,1,0,17,17,9,,,,,4.8,,,,,,,,917.3405189740006,6.016332535422407,None,,,,,,,,F07I10,2021_Oct_21_1450,ER,2021.1.4,59.97154555397503,
4,,1,DISTANZIEREN,,Stimuli/9800.jpg,,StimuliNegative.xlsx,24,Nehmen Sie die Position eines uninvolvierten Beobachters ein. Denken Sie über das Bild in einer neutralen Weise nach.,,,,,,,,,0,1,1,1,0,18,18,19,,,,,3.5,,,,,,,,926.9008279574336,6.013289088383317,None,,,,,,,,F07I10,2021_Oct_21_1450,ER,2021.1.4,59.97154555397503,
4,,1,DISTANZIEREN,,Stimuli/6940.jpg,,StimuliNegative.xlsx,24,Nehmen Sie die Position eines uninvolvierten Beobachters ein. Denken Sie über das Bild in einer neutralen Weise nach.,,,,,,,,,0,1,1,1,0,19,19,12,,,,,4.9,,,,,,,,937.8742970027961,6.015519046108238,None,,,,,,,,F07I10,2021_Oct_21_1450,ER,2021.1.4,59.97154555397503,
4,,1,DISTANZIEREN,,,,StimuliNegative.xlsx,24,Nehmen Sie die Position eines uninvolvierten Beobachters ein. Denken Sie über das Bild in einer neutralen Weise nach.,,,,,,,,,0,1,1,1,,,,,,,,,,,,,82.5925925925926,4.450734299374744,5.185185185185182,2.915770907769911,,,,,,,,,,,F07I10,2021_Oct_21_1450,ER,2021.1.4,59.97154555397503,
3,,1,ABLENKEN,,Stimuli/9300.jpg,,StimuliNegative.xlsx,23,"Denken Sie während des Betrachtens der Bilder an etwas Neutrales, das mit dem Bild nichts zu tun hat. Das könnten geometrische Figuren, Alltagstätigkeiten oder bekannte Orte sein.",,,,,,,,,0,2,2,0,0,0,0,15,,,,,4.6,,,,,,,,987.2920198293868,6.014625933719799,None,,,,,,,,F07I10,2021_Oct_21_1450,ER,2021.1.4,59.97154555397503,
3,,1,ABLENKEN,,Stimuli/9182.jpg,,StimuliNegative.xlsx,23,"Denken Sie während des Betrachtens der Bilder an etwas Neutrales, das mit dem Bild nichts zu tun hat. Das könnten geometrische Figuren, Alltagstätigkeiten oder bekannte Orte sein.",,,,,,,,,0,2,2,0,0,1,1,13,,,,,4.9,,,,,,,,998.2637482038699,6.006638609338552,None,,,,,,,,F07I10,2021_Oct_21_1450,ER,2021.1.4,59.97154555397503,
3,,1,ABLENKEN,,Stimuli/6244.jpg,,StimuliNegative.xlsx,23,"Denken Sie während des Betrachtens der Bilder an etwas Neutrales, das mit dem Bild nichts zu tun hat. Das könnten geometrische Figuren, Alltagstätigkeiten oder bekannte Orte sein.",,,,,,,,,0,2,2,0,0,2,2,10,,,,,4.3,,,,,,,,1008.6245248523774,6.0150317481020465,None,,,,,,,,F07I10,2021_Oct_21_1450,ER,2021.1.4,59.97154555397503,
3,,1,ABLENKEN,,Stimuli/3022.jpg,,StimuliNegative.xlsx,23,"Denken Sie während des Betrachtens der Bilder an etwas Neutrales, das mit dem Bild nichts zu tun hat. Das könnten geometrische Figuren, Alltagstätigkeiten oder bekannte Orte sein.",,,,,,,,,0,2,2,0,0,3,3,6,,,,,3.2,,,,,,,,1017.8871473625768,6.00616728735622,None,,,,,,,,F07I10,2021_Oct_21_1450,ER,2021.1.4,59.97154555397503,
3,,1,ABLENKEN,,Stimuli/255.jpg,,StimuliNegative.xlsx,23,"Denken Sie während des Betrachtens der Bilder an etwas Neutrales, das mit dem Bild nichts zu tun hat. Das könnten geometrische Figuren, Alltagstätigkeiten oder bekannte Orte sein.",,,,,,,,,0,2,2,0,0,4,4,2,,,,,4.9,,,,,,,,1028.8534968524473,6.006176269729622,None,,,,,,,,F07I10,2021_Oct_21_1450,ER,2021.1.4,59.97154555397503,
3,,1,ABLENKEN,,Stimuli/9180.jpg,,StimuliNegative.xlsx,23,"Denken Sie während des Betrachtens der Bilder an etwas Neutrales, das mit dem Bild nichts zu tun hat. Das könnten geometrische Figuren, Alltagstätigkeiten oder bekannte Orte sein.",,,,,,,,,0,2,2,0,0,5,5,12,,,,,4.7,,,,,,,,1039.6309113756288,6.0011429528240114,None,,,,,,,,F07I10,2021_Oct_21_1450,ER,2021.1.4,59.97154555397503,
3,,1,ABLENKEN,,Stimuli/225.jpg,,StimuliNegative.xlsx,23,"Denken Sie während des Betrachtens der Bilder an etwas Neutrales, das mit dem Bild nichts zu tun hat. Das könnten geometrische Figuren, Alltagstätigkeiten oder bekannte Orte sein.",,,,,,,,,0,2,2,0,0,6,6,0,,,,,4.4,,,,,,,,1050.0764708203496,6.011537510319613,None,,,,,,,,F07I10,2021_Oct_21_1450,ER,2021.1.4,59.97154555397503,
3,,1,ABLENKEN,,Stimuli/6836.jpg,,StimuliNegative.xlsx,23,"Denken Sie während des Betrachtens der Bilder an etwas Neutrales, das mit dem Bild nichts zu tun hat. Das könnten geometrische Figuren, Alltagstätigkeiten oder bekannte Orte sein.",,,,,,,,,0,2,2,0,0,7,7,11,,,,,4.2,,,,,,,,1060.3542528219987,6.005256915697828,None,,,,,,,,F07I10,2021_Oct_21_1450,ER,2021.1.4,59.97154555397503,
3,,1,ABLENKEN,,Stimuli/3280.jpg,,StimuliNegative.xlsx,23,"Denken Sie während des Betrachtens der Bilder an etwas Neutrales, das mit dem Bild nichts zu tun hat. Das könnten geometrische Figuren, Alltagstätigkeiten oder bekannte Orte sein.",,,,,,,,,0,2,2,0,0,8,8,8,,,,,3.7,,,,,,,,1070.1032032385701,6.006727728177793,None,,,,,,,,F07I10,2021_Oct_21_1450,ER,2021.1.4,59.97154555397503,
3,,1,ABLENKEN,,Stimuli/3180.jpg,,StimuliNegative.xlsx,23,"Denken Sie während des Betrachtens der Bilder an etwas Neutrales, das mit dem Bild nichts zu tun hat. Das könnten geometrische Figuren, Alltagstätigkeiten oder bekannte Orte sein.",,,,,,,,,0,2,2,0,0,9,9,7,,,,,4.2,,,,,,,,1080.3572102942271,6.0158741739578545,None,,,,,,,,F07I10,2021_Oct_21_1450,ER,2021.1.4,59.97154555397503,
3,,1,ABLENKEN,,Stimuli/1111.jpg,,StimuliNegative.xlsx,23,"Denken Sie während des Betrachtens der Bilder an etwas Neutrales, das mit dem Bild nichts zu tun hat. Das könnten geometrische Figuren, Alltagstätigkeiten oder bekannte Orte sein.",,,,,,,,,0,2,2,0,0,10,10,4,,,,,3.4,,,,,,,,1089.8049470211845,6.006017472827807,None,,,,,,,,F07I10,2021_Oct_21_1450,ER,2021.1.4,59.97154555397503,
3,,1,ABLENKEN,,Stimuli/6190.jpg,,StimuliNegative.xlsx,23,"Denken Sie während des Betrachtens der Bilder an etwas Neutrales, das mit dem Bild nichts zu tun hat. Das könnten geometrische Figuren, Alltagstätigkeiten oder bekannte Orte sein.",,,,,,,,,0,2,2,0,0,11,11,9,,,,,3.1,,,,,,,,1098.9502965651918,6.012440246762708,None,,,,,,,,F07I10,2021_Oct_21_1450,ER,2021.1.4,59.97154555397503,
3,,1,ABLENKEN,,Stimuli/9920.jpg,,StimuliNegative.xlsx,23,"Denken Sie während des Betrachtens der Bilder an etwas Neutrales, das mit dem Bild nichts zu tun hat. Das könnten geometrische Figuren, Alltagstätigkeiten oder bekannte Orte sein.",,,,,,,,,0,2,2,0,0,12,12,19,,,,,4.7,,,,,,,,1109.7099457235308,6.012549062608741,None,,,,,,,,F07I10,2021_Oct_21_1450,ER,2021.1.4,59.97154555397503,
3,,1,ABLENKEN,,Stimuli/9425.jpg,,StimuliNegative.xlsx,23,"Denken Sie während des Betrachtens der Bilder an etwas Neutrales, das mit dem Bild nichts zu tun hat. Das könnten geometrische Figuren, Alltagstätigkeiten oder bekannte Orte sein.",,,,,,,,,0,2,2,0,0,13,13,18,,,,,3.8,,,,,,,,1119.5731946313754,6.001205765875056,None,,,,,,,,F07I10,2021_Oct_21_1450,ER,2021.1.4,59.97154555397503,
3,,1,ABLENKEN,,Stimuli/9326.jpg,,StimuliNegative.xlsx,23,"Denken Sie während des Betrachtens der Bilder an etwas Neutrales, das mit dem Bild nichts zu tun hat. Das könnten geometrische Figuren, Alltagstätigkeiten oder bekannte Orte sein.",,,,,,,,,0,2,2,0,0,14,14,16,,,,,4.0,,,,,,,,1129.6126195748802,6.005733883939683,None,,,,,,,,F07I10,2021_Oct_21_1450,ER,2021.1.4,59.97154555397503,
3,,1,ABLENKEN,,Stimuli/9253.jpg,,StimuliNegative.xlsx,23,"Denken Sie während des Betrachtens der Bilder an etwas Neutrales, das mit dem Bild nichts zu tun hat. Das könnten geometrische Figuren, Alltagstätigkeiten oder bekannte Orte sein.",,,,,,,,,0,2,2,0,0,15,15,14,,,,,4.3,,,,,,,,1139.9568531134864,6.001441234489903,None,,,,,,,,F07I10,2021_Oct_21_1450,ER,2021.1.4,59.97154555397503,
3,,1,ABLENKEN,,Stimuli/9424.jpg,,StimuliNegative.xlsx,23,"Denken Sie während des Betrachtens der Bilder an etwas Neutrales, das mit dem Bild nichts zu tun hat. Das könnten geometrische Figuren, Alltagstätigkeiten oder bekannte Orte sein.",,,,,,,,,0,2,2,0,0,16,16,17,,,,,4.9,,,,,,,,1150.9035746628651,6.006415908690542,None,,,,,,,,F07I10,2021_Oct_21_1450,ER,2021.1.4,59.97154555397503,
3,,1,ABLENKEN,,Stimuli/3017.jpg,,StimuliNegative.xlsx,23,"Denken Sie während des Betrachtens der Bilder an etwas Neutrales, das mit dem Bild nichts zu tun hat. Das könnten geometrische Figuren, Alltagstätigkeiten oder bekannte Orte sein.",,,,,,,,,0,2,2,0,0,17,17,5,,,,,4.1,,,,,,,,1161.0584430395393,6.01287910353858,None,,,,,,,,F07I10,2021_Oct_21_1450,ER,2021.1.4,59.97154555397503,
3,,1,ABLENKEN,,Stimuli/327.jpg,,StimuliNegative.xlsx,23,"Denken Sie während des Betrachtens der Bilder an etwas Neutrales, das mit dem Bild nichts zu tun hat. Das könnten geometrische Figuren, Alltagstätigkeiten oder bekannte Orte sein.",,,,,,,,,0,2,2,0,0,18,18,3,,,,,4.6,,,,,,,,1171.699554630788,6.015160325565375,None,,,,,,,,F07I10,2021_Oct_21_1450,ER,2021.1.4,59.97154555397503,
3,,1,ABLENKEN,,Stimuli/230.jpg,,StimuliNegative.xlsx,23,"Denken Sie während des Betrachtens der Bilder an etwas Neutrales, das mit dem Bild nichts zu tun hat. Das könnten geometrische Figuren, Alltagstätigkeiten oder bekannte Orte sein.",,,,,,,,,0,2,2,0,0,19,19,1,,,,,4.3,,,,,,,,1182.055656554643,6.001803034800105,None,,,,,,,,F07I10,2021_Oct_21_1450,ER,2021.1.4,59.97154555397503,
3,,1,ABLENKEN,,,,StimuliNegative.xlsx,23,"Denken Sie während des Betrachtens der Bilder an etwas Neutrales, das mit dem Bild nichts zu tun hat. Das könnten geometrische Figuren, Alltagstätigkeiten oder bekannte Orte sein.",,,,,,,,,0,2,2,0,,,,,,,,,,,,,186.66666666666666,10.869723651674576,7.037037037037042,3.431910288403742,,,,,,,,,,,F07I10,2021_Oct_21_1450,ER,2021.1.4,59.97154555397503,
,,,,,,,,,,,,,,,,,,,,,,,,,,,,,,,,,,,,,,,,,3,39.131147325388156,,,,,,F07I10,2021_Oct_21_1450,ER,2021.1.4,59.97154555397503,
,,,,,,,,,,,,,,,,,,,,,,,,,,,,,,,,,,,,,,,,,,,space,22.419696720317006,,,,F07I10,2021_Oct_21_1450,ER,2021.1.4,59.97154555397503,
,,,,,Stimuli/3101.jpg,,,,,,,,,,,,,,,,,,,,,0,0,0,5,4.2,,,,,,,,,,,,,,,1351.5394847729476,6.001374828396365,None,F07I10,2021_Oct_21_1450,ER,2021.1.4,59.97154555397503,
,,,,,Stimuli/3181.jpg,,,,,,,,,,,,,,,,,,,,,0,1,1,6,4.6,,,,,,,,,,,,,,,1362.1966508928454,6.00535565870814,None,F07I10,2021_Oct_21_1450,ER,2021.1.4,59.97154555397503,
,,,,,Stimuli/245.jpg,,,,,,,,,,,,,,,,,,,,,0,2,2,2,4.5,,,,,,,,,,,,,,,1372.7590098001529,6.012126887333579,None,F07I10,2021_Oct_21_1450,ER,2021.1.4,59.97154555397503,
,,,,,Stimuli/3225.jpg,,,,,,,,,,,,,,,,,,,,,0,3,3,9,3.7,,,,,,,,,,,,,,,1382.5030968606006,6.0074071863200516,None,F07I10,2021_Oct_21_1450,ER,2021.1.4,59.97154555397503,
,,,,,Stimuli/9400.jpg,,,,,,,,,,,,,,,,,,,,,0,4,4,15,4.4,,,,,,,,,,,,,,,1392.96896883694,6.008722473867238,None,F07I10,2021_Oct_21_1450,ER,2021.1.4,59.97154555397503,
,,,,,Stimuli/238.jpg,,,,,,,,,,,,,,,,,,,,,0,5,5,1,3.6,,,,,,,,,,,,,,,1402.6057030869415,6.001315416069701,None,F07I10,2021_Oct_21_1450,ER,2021.1.4,59.97154555397503,
,,,,,Stimuli/9403.jpg,,,,,,,,,,,,,,,,,,,,,0,6,6,17,3.6,,,,,,,,,,,,,,,1412.2732904548757,6.001303289667703,None,F07I10,2021_Oct_21_1450,ER,2021.1.4,59.97154555397503,
,,,,,Stimuli/8231.jpg,,,,,,,,,,,,,,,,,,,,,0,7,7,13,4.6,,,,,,,,,,,,,,,1422.9272822404746,6.0095290339086205,None,F07I10,2021_Oct_21_1450,ER,2021.1.4,59.97154555397503,
,,,,,Stimuli/6571.jpg,,,,,,,,,,,,,,,,,,,,,0,8,8,11,3.1,,,,,,,,,,,,,,,1432.0681181024993,6.0105218515964225,None,F07I10,2021_Oct_21_1450,ER,2021.1.4,59.97154555397503,
,,,,,Stimuli/9405.jpg,,,,,,,,,,,,,,,,,,,,,0,9,9,18,4.4,,,,,,,,,,,,,,,1442.5368670298485,6.00770200334955,None,F07I10,2021_Oct_21_1450,ER,2021.1.4,59.97154555397503,
,,,,,Stimuli/223.jpg,,,,,,,,,,,,,,,,,,,,,0,10,10,0,3.5,,,,,,,,,,,,,,,1452.0835955085931,6.01275751972571,None,F07I10,2021_Oct_21_1450,ER,2021.1.4,59.97154555397503,
,,,,,Stimuli/3215.jpg,,,,,,,,,,,,,,,,,,,,,0,11,11,7,3.7,,,,,,,,,,,,,,,1461.8589613911463,6.01156708819326,None,F07I10,2021_Oct_21_1450,ER,2021.1.4,59.97154555397503,
,,,,,Stimuli/6020.jpg,,,,,,,,,,,,,,,,,,,,,0,12,12,10,5.0,,,,,,,,,,,,,,,1472.9021544731222,6.009389420971274,None,F07I10,2021_Oct_21_1450,ER,2021.1.4,59.97154555397503,
,,,,,Stimuli/9373.jpg,,,,,,,,,,,,,,,,,,,,,0,13,13,14,3.6,,,,,,,,,,,,,,,1482.5427187763853,6.013380516786128,None,F07I10,2021_Oct_21_1450,ER,2021.1.4,59.97154555397503,
,,,,,Stimuli/6831.jpg,,,,,,,,,,,,,,,,,,,,,0,14,14,12,4.8,,,,,,,,,,,,,,,1493.4058550829068,6.000787119497545,None,F07I10,2021_Oct_21_1450,ER,2021.1.4,59.97154555397503,
,,,,,Stimuli/9423.jpg,,,,,,,,,,,,,,,,,,,,,0,15,15,19,3.1,,,,,,,,,,,,,,,1502.5552807352506,6.002946436754428,None,F07I10,2021_Oct_21_1450,ER,2021.1.4,59.97154555397503,
,,,,,Stimuli/2981.jpg,,,,,,,,,,,,,,,,,,,,,0,16,16,3,3.7,,,,,,,,,,,,,,,1512.309771078988,6.011413744883612,None,F07I10,2021_Oct_21_1450,ER,2021.1.4,59.97154555397503,
,,,,,Stimuli/3220.jpg,,,,,,,,,,,,,,,,,,,,,0,17,17,8,3.9,,,,,,,,,,,,,,,1522.2651860377518,5.998630689457059,None,F07I10,2021_Oct_21_1450,ER,2021.1.4,59.97154555397503,
,,,,,Stimuli/3016.jpg,,,,,,,,,,,,,,,,,,,,,0,18,18,4,3.7,,,,,,,,,,,,,,,1532.0075013096211,6.015810590935871,None,F07I10,2021_Oct_21_1450,ER,2021.1.4,59.97154555397503,
,,,,,Stimuli/9402.jpg,,,,,,,,,,,,,,,,,,,,,0,19,19,16,3.2,,,,,,,,,,,,,,,1541.2678868685616,6.010957500548102,None,F07I10,2021_Oct_21_1450,ER,2021.1.4,59.97154555397503,
,,,,,,,,,,,,,,,,,,,,,,,,,,,,,,,,,,207.7777777777778,4.219170541153289,4.074074074074074,1.5148250554921106,,,,,,,,,,,F07I10,2021_Oct_21_1450,ER,2021.1.4,59.97154555397503,
