Block,conds_view_File,n_reps,instr_1,TriggerBlockView,ImageFile,Trigger,conds_reg_File,TriggerBlockReg,instr_2,blocks_view.thisRepN,blocks_view.thisTrialN,blocks_view.thisN,blocks_view.thisIndex,trials_view.thisRepN,trials_view.thisTrialN,trials_view.thisN,trials_view.thisIndex,blocks_reg.thisRepN,blocks_reg.thisTrialN,blocks_reg.thisN,blocks_reg.thisIndex,trials_reg.thisRepN,trials_reg.thisTrialN,trials_reg.thisN,trials_reg.thisIndex,trials_choice.thisRepN,trials_choice.thisTrialN,trials_choice.thisN,trials_choice.thisIndex,Fix_jitter,image_view.started,image_view.lasted,image_view.stopped,slider_arousal.response,slider_arousal.rt,slider_effort.response,slider_effort.rt,image_reg.started,image_reg.lasted,image_reg.stopped,resp_choice.keys,resp_choice.rt,key_resp.keys,key_resp.rt,image.started,image.lased,image.stopped,participant,date,expName,psychopyVersion,frameRate,
,,,,,,,,,,,,,,,,,,,,,,,,,,,,,,,,,,,,,,,,,,,,,,,,F30T02,2021_Sep_29_0852,ER_paradigm,2021.1.4,60.009163502989075,
1,StimuliNeutral.xlsx,1,ANSCHAUEN,21,Stimuli/7224.jpg,1,,,,0,0,0,0,0,0,0,17,,,,,,,,,,,,,3.8,113.98124078496403,6.031108293756915,None,,,,,,,,,,,,,,,F30T02,2021_Sep_29_0852,ER_paradigm,2021.1.4,60.009163502989075,
1,StimuliNeutral.xlsx,1,ANSCHAUEN,21,Stimuli/7233.jpg,1,,,,0,0,0,0,0,1,1,18,,,,,,,,,,,,,4.8,124.8527066702427,6.010064648009575,None,,,,,,,,,,,,,,,F30T02,2021_Sep_29_0852,ER_paradigm,2021.1.4,60.009163502989075,
1,StimuliNeutral.xlsx,1,ANSCHAUEN,21,Stimuli/7211.jpg,1,,,,0,0,0,0,0,2,2,16,,,,,,,,,,,,,4.3,135.20029526611825,6.014077559646012,None,,,,,,,,,,,,,,,F30T02,2021_Sep_29_0852,ER_paradigm,2021.1.4,60.009163502989075,
1,StimuliNeutral.xlsx,1,ANSCHAUEN,21,Stimuli/083.jpg,1,,,,0,0,0,0,0,3,3,0,,,,,,,,,,,,,3.4,144.65419795020398,6.0061130095455155,None,,,,,,,,,,,,,,,F30T02,2021_Sep_29_0852,ER_paradigm,2021.1.4,60.009163502989075,
1,StimuliNeutral.xlsx,1,ANSCHAUEN,21,Stimuli/7000.jpg,1,,,,0,0,0,0,0,4,4,5,,,,,,,,,,,,,3.1,153.81715026491838,6.014315915498173,None,,,,,,,,,,,,,,,F30T02,2021_Sep_29_0852,ER_paradigm,2021.1.4,60.009163502989075,
1,StimuliNeutral.xlsx,1,ANSCHAUEN,21,Stimuli/7004.jpg,1,,,,0,0,0,0,0,5,5,7,,,,,,,,,,,,,3.9,163.7788606269496,6.007317267999042,None,,,,,,,,,,,,,,,F30T02,2021_Sep_29_0852,ER_paradigm,2021.1.4,60.009163502989075,
1,StimuliNeutral.xlsx,1,ANSCHAUEN,21,Stimuli/7006.jpg,1,,,,0,0,0,0,0,6,6,8,,,,,,,,,,,,,4.0,173.84363824061938,6.01051790909014,None,,,,,,,,,,,,,,,F30T02,2021_Sep_29_0852,ER_paradigm,2021.1.4,60.009163502989075,
1,StimuliNeutral.xlsx,1,ANSCHAUEN,21,Stimuli/124.jpg,1,,,,0,0,0,0,0,7,7,2,,,,,,,,,,,,,3.1,183.0079222042432,6.014050901004794,None,,,,,,,,,,,,,,,F30T02,2021_Sep_29_0852,ER_paradigm,2021.1.4,60.009163502989075,
1,StimuliNeutral.xlsx,1,ANSCHAUEN,21,Stimuli/7100.jpg,1,,,,0,0,0,0,0,8,8,13,,,,,,,,,,,,,4.6,193.6906269368419,6.000712950261914,None,,,,,,,,,,,,,,,F30T02,2021_Sep_29_0852,ER_paradigm,2021.1.4,60.009163502989075,
1,StimuliNeutral.xlsx,1,ANSCHAUEN,21,Stimuli/140.jpg,1,,,,0,0,0,0,0,9,9,3,,,,,,,,,,,,,3.5,203.24795232113047,6.002153318952878,None,,,,,,,,,,,,,,,F30T02,2021_Sep_29_0852,ER_paradigm,2021.1.4,60.009163502989075,
1,StimuliNeutral.xlsx,1,ANSCHAUEN,21,Stimuli/143.jpg,1,,,,0,0,0,0,0,10,10,4,,,,,,,,,,,,,4.4,213.6903334030544,6.000560537253477,None,,,,,,,,,,,,,,,F30T02,2021_Sep_29_0852,ER_paradigm,2021.1.4,60.009163502989075,
1,StimuliNeutral.xlsx,1,ANSCHAUEN,21,Stimuli/7002.jpg,1,,,,0,0,0,0,0,11,11,6,,,,,,,,,,,,,3.4,223.12906055072744,6.005942310826413,None,,,,,,,,,,,,,,,F30T02,2021_Sep_29_0852,ER_paradigm,2021.1.4,60.009163502989075,
1,StimuliNeutral.xlsx,1,ANSCHAUEN,21,Stimuli/7041.jpg,1,,,,0,0,0,0,0,12,12,12,,,,,,,,,,,,,3.0,232.18471166962036,6.013297016413617,None,,,,,,,,,,,,,,,F30T02,2021_Sep_29_0852,ER_paradigm,2021.1.4,60.009163502989075,
1,StimuliNeutral.xlsx,1,ANSCHAUEN,21,Stimuli/7025.jpg,1,,,,0,0,0,0,0,13,13,11,,,,,,,,,,,,,4.2,242.44197205943328,6.013928675460193,None,,,,,,,,,,,,,,,F30T02,2021_Sep_29_0852,ER_paradigm,2021.1.4,60.009163502989075,
1,StimuliNeutral.xlsx,1,ANSCHAUEN,21,Stimuli/7021.jpg,1,,,,0,0,0,0,0,14,14,10,,,,,,,,,,,,,3.1,251.60018388368007,6.013310842977262,None,,,,,,,,,,,,,,,F30T02,2021_Sep_29_0852,ER_paradigm,2021.1.4,60.009163502989075,
1,StimuliNeutral.xlsx,1,ANSCHAUEN,21,Stimuli/7185.jpg,1,,,,0,0,0,0,0,15,15,15,,,,,,,,,,,,,3.7,261.34564229042326,6.006643583896675,None,,,,,,,,,,,,,,,F30T02,2021_Sep_29_0852,ER_paradigm,2021.1.4,60.009163502989075,
1,StimuliNeutral.xlsx,1,ANSCHAUEN,21,Stimuli/7009.jpg,1,,,,0,0,0,0,0,16,16,9,,,,,,,,,,,,,4.8,272.218274611605,6.01155156506411,None,,,,,,,,,,,,,,,F30T02,2021_Sep_29_0852,ER_paradigm,2021.1.4,60.009163502989075,
1,StimuliNeutral.xlsx,1,ANSCHAUEN,21,Stimuli/7235.jpg,1,,,,0,0,0,0,0,17,17,19,,,,,,,,,,,,,3.8,282.0761619125956,6.010700445401653,None,,,,,,,,,,,,,,,F30T02,2021_Sep_29_0852,ER_paradigm,2021.1.4,60.009163502989075,
1,StimuliNeutral.xlsx,1,ANSCHAUEN,21,Stimuli/107.jpg,1,,,,0,0,0,0,0,18,18,1,,,,,,,,,,,,,3.2,291.33083214743556,6.00192102625806,None,,,,,,,,,,,,,,,F30T02,2021_Sep_29_0852,ER_paradigm,2021.1.4,60.009163502989075,
1,StimuliNeutral.xlsx,1,ANSCHAUEN,21,Stimuli/7150.jpg,1,,,,0,0,0,0,0,19,19,14,,,,,,,,,,,,,4.0,301.40788492705633,6.0147676046485685,None,,,,,,,,,,,,,,,F30T02,2021_Sep_29_0852,ER_paradigm,2021.1.4,60.009163502989075,
1,StimuliNeutral.xlsx,1,ANSCHAUEN,21,,,,,,0,0,0,0,,,,,,,,,,,,,,,,,,,,,9.629629629629633,4.102794569977959,19.62962962962962,2.2128251488197748,,,,,,,,,,,F30T02,2021_Sep_29_0852,ER_paradigm,2021.1.4,60.009163502989075,
2,StimuliNegative.xlsx,1,ANSCHAUEN,22,Stimuli/9420.jpg,,,,,0,1,1,1,0,0,0,16,,,,,,,,,,,,,3.1,322.69915866479687,6.015600085718688,None,,,,,,,,,,,,,,,F30T02,2021_Sep_29_0852,ER_paradigm,2021.1.4,60.009163502989075,
2,StimuliNegative.xlsx,1,ANSCHAUEN,22,Stimuli/3061.jpg,,,,,0,1,1,1,0,1,1,4,,,,,,,,,,,,,4.3,333.05537522921304,6.002717288787608,None,,,,,,,,,,,,,,,F30T02,2021_Sep_29_0852,ER_paradigm,2021.1.4,60.009163502989075,
2,StimuliNegative.xlsx,1,ANSCHAUEN,22,Stimuli/9181.jpg,,,,,0,1,1,1,0,2,2,9,,,,,,,,,,,,,4.3,343.4019972488027,6.012027603083425,None,,,,,,,,,,,,,,,F30T02,2021_Sep_29_0852,ER_paradigm,2021.1.4,60.009163502989075,
2,StimuliNegative.xlsx,1,ANSCHAUEN,22,Stimuli/9421.jpg,,,,,0,1,1,1,0,3,3,17,,,,,,,,,,,,,4.1,353.56532169378306,6.000170442077888,None,,,,,,,,,,,,,,,F30T02,2021_Sep_29_0852,ER_paradigm,2021.1.4,60.009163502989075,
2,StimuliNegative.xlsx,1,ANSCHAUEN,22,Stimuli/9254.jpg,,,,,0,1,1,1,0,4,4,12,,,,,,,,,,,,,4.8,364.4303121916291,6.003396426523523,None,,,,,,,,,,,,,,,F30T02,2021_Sep_29_0852,ER_paradigm,2021.1.4,60.009163502989075,
2,StimuliNegative.xlsx,1,ANSCHAUEN,22,Stimuli/9599.jpg,,,,,0,1,1,1,0,5,5,18,,,,,,,,,,,,,3.8,374.2985392603846,6.000616998397618,None,,,,,,,,,,,,,,,F30T02,2021_Sep_29_0852,ER_paradigm,2021.1.4,60.009163502989075,
2,StimuliNegative.xlsx,1,ANSCHAUEN,22,Stimuli/1051.jpg,,,,,0,1,1,1,0,6,6,2,,,,,,,,,,,,,4.4,384.7654658621809,6.015640827565676,None,,,,,,,,,,,,,,,F30T02,2021_Sep_29_0852,ER_paradigm,2021.1.4,60.009163502989075,
2,StimuliNegative.xlsx,1,ANSCHAUEN,22,Stimuli/9411.jpg,,,,,0,1,1,1,0,7,7,15,,,,,,,,,,,,,4.9,395.7104749537084,6.0091445559264685,None,,,,,,,,,,,,,,,F30T02,2021_Sep_29_0852,ER_paradigm,2021.1.4,60.009163502989075,
2,StimuliNegative.xlsx,1,ANSCHAUEN,22,Stimuli/9295.jpg,,,,,0,1,1,1,0,8,8,13,,,,,,,,,,,,,3.3,405.08690075799086,6.007235174778998,None,,,,,,,,,,,,,,,F30T02,2021_Sep_29_0852,ER_paradigm,2021.1.4,60.009163502989075,
2,StimuliNegative.xlsx,1,ANSCHAUEN,22,Stimuli/2800.jpg,,,,,0,1,1,1,0,9,9,3,,,,,,,,,,,,,3.3,414.4453311766888,6.007806170176536,None,,,,,,,,,,,,,,,F30T02,2021_Sep_29_0852,ER_paradigm,2021.1.4,60.009163502989075,
2,StimuliNegative.xlsx,1,ANSCHAUEN,22,Stimuli/9905.jpg,,,,,0,1,1,1,0,10,10,19,,,,,,,,,,,,,4.2,424.72094175904704,6.006653881639522,None,,,,,,,,,,,,,,,F30T02,2021_Sep_29_0852,ER_paradigm,2021.1.4,60.009163502989075,
2,StimuliNegative.xlsx,1,ANSCHAUEN,22,Stimuli/3230.jpg,,,,,0,1,1,1,0,11,11,5,,,,,,,,,,,,,3.7,434.47864100593233,6.007647694012121,None,,,,,,,,,,,,,,,F30T02,2021_Sep_29_0852,ER_paradigm,2021.1.4,60.009163502989075,
2,StimuliNegative.xlsx,1,ANSCHAUEN,22,Stimuli/9185.jpg,,,,,0,1,1,1,0,12,12,10,,,,,,,,,,,,,3.2,443.7393840217528,6.00355329867898,None,,,,,,,,,,,,,,,F30T02,2021_Sep_29_0852,ER_paradigm,2021.1.4,60.009163502989075,
2,StimuliNegative.xlsx,1,ANSCHAUEN,22,Stimuli/6838.jpg,,,,,0,1,1,1,0,13,13,7,,,,,,,,,,,,,4.5,454.3002109593649,6.014101940595083,None,,,,,,,,,,,,,,,F30T02,2021_Sep_29_0852,ER_paradigm,2021.1.4,60.009163502989075,
2,StimuliNegative.xlsx,1,ANSCHAUEN,22,Stimuli/252.jpg,,,,,0,1,1,1,0,14,14,1,,,,,,,,,,,,,4.7,465.0526455253903,6.009014310333896,None,,,,,,,,,,,,,,,F30T02,2021_Sep_29_0852,ER_paradigm,2021.1.4,60.009163502989075,
2,StimuliNegative.xlsx,1,ANSCHAUEN,22,Stimuli/9120.jpg,,,,,0,1,1,1,0,15,15,8,,,,,,,,,,,,,4.4,475.50200565381374,6.009141700789314,None,,,,,,,,,,,,,,,F30T02,2021_Sep_29_0852,ER_paradigm,2021.1.4,60.009163502989075,
2,StimuliNegative.xlsx,1,ANSCHAUEN,22,Stimuli/6561.jpg,,,,,0,1,1,1,0,16,16,6,,,,,,,,,,,,,3.8,485.3597113808987,6.0118691269181,None,,,,,,,,,,,,,,,F30T02,2021_Sep_29_0852,ER_paradigm,2021.1.4,60.009163502989075,
2,StimuliNegative.xlsx,1,ANSCHAUEN,22,Stimuli/9230.jpg,,,,,0,1,1,1,0,17,17,11,,,,,,,,,,,,,4.7,496.13342409889947,6.01320722394712,None,,,,,,,,,,,,,,,F30T02,2021_Sep_29_0852,ER_paradigm,2021.1.4,60.009163502989075,
2,StimuliNegative.xlsx,1,ANSCHAUEN,22,Stimuli/227.jpg,,,,,0,1,1,1,0,18,18,0,,,,,,,,,,,,,4.3,506.48860832262926,6.00367940592605,None,,,,,,,,,,,,,,,F30T02,2021_Sep_29_0852,ER_paradigm,2021.1.4,60.009163502989075,
2,StimuliNegative.xlsx,1,ANSCHAUEN,22,Stimuli/9332.jpg,,,,,0,1,1,1,0,19,19,14,,,,,,,,,,,,,4.7,517.259940369333,6.010200988839642,None,,,,,,,,,,,,,,,F30T02,2021_Sep_29_0852,ER_paradigm,2021.1.4,60.009163502989075,
2,StimuliNegative.xlsx,1,ANSCHAUEN,22,,,,,,0,1,1,1,,,,,,,,,,,,,,,,,,,,,123.7037037037037,4.352853276735459,102.96296296296296,2.5801998467850353,,,,,,,,,,,F30T02,2021_Sep_29_0852,ER_paradigm,2021.1.4,60.009163502989075,
3,,1,ABLENKEN,,Stimuli/9300.jpg,,StimuliNegative.xlsx,23,"Denken Sie während des Betrachtens der Bilder an etwas Neutrales, das mit dem Bild nichts zu tun hat. Das könnten geometrische Figuren, Alltagstätigkeiten oder bekannte Orte sein.",,,,,,,,,0,0,0,0,0,0,0,15,,,,,4.5,,,,,,,,566.8140022353482,6.002629389052345,None,,,,,,,,F30T02,2021_Sep_29_0852,ER_paradigm,2021.1.4,60.009163502989075,
3,,1,ABLENKEN,,Stimuli/225.jpg,,StimuliNegative.xlsx,23,"Denken Sie während des Betrachtens der Bilder an etwas Neutrales, das mit dem Bild nichts zu tun hat. Das könnten geometrische Figuren, Alltagstätigkeiten oder bekannte Orte sein.",,,,,,,,,0,0,0,0,0,1,1,0,,,,,4.5,,,,,,,,577.3869099329268,6.006494443068732,None,,,,,,,,F30T02,2021_Sep_29_0852,ER_paradigm,2021.1.4,60.009163502989075,
3,,1,ABLENKEN,,Stimuli/6190.jpg,,StimuliNegative.xlsx,23,"Denken Sie während des Betrachtens der Bilder an etwas Neutrales, das mit dem Bild nichts zu tun hat. Das könnten geometrische Figuren, Alltagstätigkeiten oder bekannte Orte sein.",,,,,,,,,0,0,0,0,0,2,2,9,,,,,3.1,,,,,,,,586.5520430593215,6.010813078967203,None,,,,,,,,F30T02,2021_Sep_29_0852,ER_paradigm,2021.1.4,60.009163502989075,
3,,1,ABLENKEN,,Stimuli/1111.jpg,,StimuliNegative.xlsx,23,"Denken Sie während des Betrachtens der Bilder an etwas Neutrales, das mit dem Bild nichts zu tun hat. Das könnten geometrische Figuren, Alltagstätigkeiten oder bekannte Orte sein.",,,,,,,,,0,0,0,0,0,3,3,4,,,,,4.7,,,,,,,,597.316053122237,6.015660075683172,None,,,,,,,,F30T02,2021_Sep_29_0852,ER_paradigm,2021.1.4,60.009163502989075,
3,,1,ABLENKEN,,Stimuli/3180.jpg,,StimuliNegative.xlsx,23,"Denken Sie während des Betrachtens der Bilder an etwas Neutrales, das mit dem Bild nichts zu tun hat. Das könnten geometrische Figuren, Alltagstätigkeiten oder bekannte Orte sein.",,,,,,,,,0,0,0,0,0,4,4,7,,,,,4.7,,,,,,,,608.0637192880249,6.002301850257481,None,,,,,,,,F30T02,2021_Sep_29_0852,ER_paradigm,2021.1.4,60.009163502989075,
3,,1,ABLENKEN,,Stimuli/3017.jpg,,StimuliNegative.xlsx,23,"Denken Sie während des Betrachtens der Bilder an etwas Neutrales, das mit dem Bild nichts zu tun hat. Das könnten geometrische Figuren, Alltagstätigkeiten oder bekannte Orte sein.",,,,,,,,,0,0,0,0,0,5,5,5,,,,,4.1,,,,,,,,618.2382888038837,6.003426934788422,None,,,,,,,,F30T02,2021_Sep_29_0852,ER_paradigm,2021.1.4,60.009163502989075,
3,,1,ABLENKEN,,Stimuli/9182.jpg,,StimuliNegative.xlsx,23,"Denken Sie während des Betrachtens der Bilder an etwas Neutrales, das mit dem Bild nichts zu tun hat. Das könnten geometrische Figuren, Alltagstätigkeiten oder bekannte Orte sein.",,,,,,,,,0,0,0,0,0,6,6,13,,,,,4.4,,,,,,,,628.705698854224,6.004145210362367,None,,,,,,,,F30T02,2021_Sep_29_0852,ER_paradigm,2021.1.4,60.009163502989075,
3,,1,ABLENKEN,,Stimuli/3022.jpg,,StimuliNegative.xlsx,23,"Denken Sie während des Betrachtens der Bilder an etwas Neutrales, das mit dem Bild nichts zu tun hat. Das könnten geometrische Figuren, Alltagstätigkeiten oder bekannte Orte sein.",,,,,,,,,0,0,0,0,0,7,7,6,,,,,3.6,,,,,,,,638.360855681467,6.008805147459952,None,,,,,,,,F30T02,2021_Sep_29_0852,ER_paradigm,2021.1.4,60.009163502989075,
3,,1,ABLENKEN,,Stimuli/9180.jpg,,StimuliNegative.xlsx,23,"Denken Sie während des Betrachtens der Bilder an etwas Neutrales, das mit dem Bild nichts zu tun hat. Das könnten geometrische Figuren, Alltagstätigkeiten oder bekannte Orte sein.",,,,,,,,,0,0,0,0,0,8,8,12,,,,,3.4,,,,,,,,647.8301786738562,6.0038186018941815,None,,,,,,,,F30T02,2021_Sep_29_0852,ER_paradigm,2021.1.4,60.009163502989075,
3,,1,ABLENKEN,,Stimuli/9253.jpg,,StimuliNegative.xlsx,23,"Denken Sie während des Betrachtens der Bilder an etwas Neutrales, das mit dem Bild nichts zu tun hat. Das könnten geometrische Figuren, Alltagstätigkeiten oder bekannte Orte sein.",,,,,,,,,0,0,0,0,0,9,9,14,,,,,3.9,,,,,,,,657.8014604829737,6.010886221812598,None,,,,,,,,F30T02,2021_Sep_29_0852,ER_paradigm,2021.1.4,60.009163502989075,
3,,1,ABLENKEN,,Stimuli/255.jpg,,StimuliNegative.xlsx,23,"Denken Sie während des Betrachtens der Bilder an etwas Neutrales, das mit dem Bild nichts zu tun hat. Das könnten geometrische Figuren, Alltagstätigkeiten oder bekannte Orte sein.",,,,,,,,,0,0,0,0,0,10,10,2,,,,,3.1,,,,,,,,666.9596511342916,6.011034400235076,None,,,,,,,,F30T02,2021_Sep_29_0852,ER_paradigm,2021.1.4,60.009163502989075,
3,,1,ABLENKEN,,Stimuli/9326.jpg,,StimuliNegative.xlsx,23,"Denken Sie während des Betrachtens der Bilder an etwas Neutrales, das mit dem Bild nichts zu tun hat. Das könnten geometrische Figuren, Alltagstätigkeiten oder bekannte Orte sein.",,,,,,,,,0,0,0,0,0,11,11,16,,,,,4.1,,,,,,,,677.1283419543511,6.006685608952921,None,,,,,,,,F30T02,2021_Sep_29_0852,ER_paradigm,2021.1.4,60.009163502989075,
3,,1,ABLENKEN,,Stimuli/3280.jpg,,StimuliNegative.xlsx,23,"Denken Sie während des Betrachtens der Bilder an etwas Neutrales, das mit dem Bild nichts zu tun hat. Das könnten geometrische Figuren, Alltagstätigkeiten oder bekannte Orte sein.",,,,,,,,,0,0,0,0,0,12,12,8,,,,,4.5,,,,,,,,687.6992112763169,6.016623443949811,None,,,,,,,,F30T02,2021_Sep_29_0852,ER_paradigm,2021.1.4,60.009163502989075,
3,,1,ABLENKEN,,Stimuli/327.jpg,,StimuliNegative.xlsx,23,"Denken Sie während des Betrachtens der Bilder an etwas Neutrales, das mit dem Bild nichts zu tun hat. Das könnten geometrische Figuren, Alltagstätigkeiten oder bekannte Orte sein.",,,,,,,,,0,0,0,0,0,13,13,3,,,,,3.0,,,,,,,,696.7616367700634,6.006591293178644,None,,,,,,,,F30T02,2021_Sep_29_0852,ER_paradigm,2021.1.4,60.009163502989075,
3,,1,ABLENKEN,,Stimuli/6244.jpg,,StimuliNegative.xlsx,23,"Denken Sie während des Betrachtens der Bilder an etwas Neutrales, das mit dem Bild nichts zu tun hat. Das könnten geometrische Figuren, Alltagstätigkeiten oder bekannte Orte sein.",,,,,,,,,0,0,0,0,0,14,14,10,,,,,4.6,,,,,,,,707.431618817986,6.016755614354679,None,,,,,,,,F30T02,2021_Sep_29_0852,ER_paradigm,2021.1.4,60.009163502989075,
3,,1,ABLENKEN,,Stimuli/230.jpg,,StimuliNegative.xlsx,23,"Denken Sie während des Betrachtens der Bilder an etwas Neutrales, das mit dem Bild nichts zu tun hat. Das könnten geometrische Figuren, Alltagstätigkeiten oder bekannte Orte sein.",,,,,,,,,0,0,0,0,0,15,15,1,,,,,4.5,,,,,,,,717.9978490229014,6.001221068475843,None,,,,,,,,F30T02,2021_Sep_29_0852,ER_paradigm,2021.1.4,60.009163502989075,
3,,1,ABLENKEN,,Stimuli/9424.jpg,,StimuliNegative.xlsx,23,"Denken Sie während des Betrachtens der Bilder an etwas Neutrales, das mit dem Bild nichts zu tun hat. Das könnten geometrische Figuren, Alltagstätigkeiten oder bekannte Orte sein.",,,,,,,,,0,0,0,0,0,16,16,17,,,,,3.1,,,,,,,,727.17273549109,6.002085982622702,None,,,,,,,,F30T02,2021_Sep_29_0852,ER_paradigm,2021.1.4,60.009163502989075,
3,,1,ABLENKEN,,Stimuli/6836.jpg,,StimuliNegative.xlsx,23,"Denken Sie während des Betrachtens der Bilder an etwas Neutrales, das mit dem Bild nichts zu tun hat. Das könnten geometrische Figuren, Alltagstätigkeiten oder bekannte Orte sein.",,,,,,,,,0,0,0,0,0,17,17,11,,,,,3.5,,,,,,,,736.7019955164719,6.009534971904486,None,,,,,,,,F30T02,2021_Sep_29_0852,ER_paradigm,2021.1.4,60.009163502989075,
3,,1,ABLENKEN,,Stimuli/9920.jpg,,StimuliNegative.xlsx,23,"Denken Sie während des Betrachtens der Bilder an etwas Neutrales, das mit dem Bild nichts zu tun hat. Das könnten geometrische Figuren, Alltagstätigkeiten oder bekannte Orte sein.",,,,,,,,,0,0,0,0,0,18,18,19,,,,,4.4,,,,,,,,747.1568821001492,5.999919574950127,None,,,,,,,,F30T02,2021_Sep_29_0852,ER_paradigm,2021.1.4,60.009163502989075,
3,,1,ABLENKEN,,Stimuli/9425.jpg,,StimuliNegative.xlsx,23,"Denken Sie während des Betrachtens der Bilder an etwas Neutrales, das mit dem Bild nichts zu tun hat. Das könnten geometrische Figuren, Alltagstätigkeiten oder bekannte Orte sein.",,,,,,,,,0,0,0,0,0,19,19,18,,,,,4.6,,,,,,,,757.8115362307312,6.0075155236067985,None,,,,,,,,F30T02,2021_Sep_29_0852,ER_paradigm,2021.1.4,60.009163502989075,
3,,1,ABLENKEN,,,,StimuliNegative.xlsx,23,"Denken Sie während des Betrachtens der Bilder an etwas Neutrales, das mit dem Bild nichts zu tun hat. Das könnten geometrische Figuren, Alltagstätigkeiten oder bekannte Orte sein.",,,,,,,,,0,0,0,0,,,,,,,,,,,,,97.03703703703704,3.352871241644607,150.0,5.780876225623615,,,,,,,,,,,F30T02,2021_Sep_29_0852,ER_paradigm,2021.1.4,60.009163502989075,
5,,1,UNTERDRÜCKEN,,Stimuli/219.jpg,,StimuliNegative.xlsx,25,"Unterdrücken Sie alle aufkommenden Emotionen. Wenn Sie also die Bilder ansehen, verhalten Sie sich so, dass eine außenstehende Person nicht sehen kann, welche Emotionen Sie gerade empfinden.",,,,,,,,,0,1,1,2,0,0,0,1,,,,,3.4,,,,,,,,785.062635619026,6.003960717159771,None,,,,,,,,F30T02,2021_Sep_29_0852,ER_paradigm,2021.1.4,60.009163502989075,
5,,1,UNTERDRÜCKEN,,Stimuli/254.jpg,,StimuliNegative.xlsx,25,"Unterdrücken Sie alle aufkommenden Emotionen. Wenn Sie also die Bilder ansehen, verhalten Sie sich so, dass eine außenstehende Person nicht sehen kann, welche Emotionen Sie gerade empfinden.",,,,,,,,,0,1,1,2,0,1,1,4,,,,,3.7,,,,,,,,794.7964886942978,6.0051656172167895,None,,,,,,,,F30T02,2021_Sep_29_0852,ER_paradigm,2021.1.4,60.009163502989075,
5,,1,UNTERDRÜCKEN,,Stimuli/6555.jpg,,StimuliNegative.xlsx,25,"Unterdrücken Sie alle aufkommenden Emotionen. Wenn Sie also die Bilder ansehen, verhalten Sie sich so, dass eine außenstehende Person nicht sehen kann, welche Emotionen Sie gerade empfinden.",,,,,,,,,0,1,1,2,0,2,2,10,,,,,3.9,,,,,,,,804.756632901192,5.999205822683507,None,,,,,,,,F30T02,2021_Sep_29_0852,ER_paradigm,2021.1.4,60.009163502989075,
5,,1,UNTERDRÜCKEN,,Stimuli/253.jpg,,StimuliNegative.xlsx,25,"Unterdrücken Sie alle aufkommenden Emotionen. Wenn Sie also die Bilder ansehen, verhalten Sie sich so, dass eine außenstehende Person nicht sehen kann, welche Emotionen Sie gerade empfinden.",,,,,,,,,0,1,1,2,0,3,3,3,,,,,3.3,,,,,,,,814.0781768696661,6.007032363784219,None,,,,,,,,F30T02,2021_Sep_29_0852,ER_paradigm,2021.1.4,60.009163502989075,
5,,1,UNTERDRÜCKEN,,Stimuli/6242.jpg,,StimuliNegative.xlsx,25,"Unterdrücken Sie alle aufkommenden Emotionen. Wenn Sie also die Bilder ansehen, verhalten Sie sich so, dass eine außenstehende Person nicht sehen kann, welche Emotionen Sie gerade empfinden.",,,,,,,,,0,1,1,2,0,4,4,8,,,,,3.6,,,,,,,,823.7461991384544,6.004711714532732,None,,,,,,,,F30T02,2021_Sep_29_0852,ER_paradigm,2021.1.4,60.009163502989075,
5,,1,UNTERDRÜCKEN,,Stimuli/9340.jpg,,StimuliNegative.xlsx,25,"Unterdrücken Sie alle aufkommenden Emotionen. Wenn Sie also die Bilder ansehen, verhalten Sie sich so, dass eine außenstehende Person nicht sehen kann, welche Emotionen Sie gerade empfinden.",,,,,,,,,0,1,1,2,0,5,5,16,,,,,3.8,,,,,,,,833.610901876948,6.009714941799757,None,,,,,,,,F30T02,2021_Sep_29_0852,ER_paradigm,2021.1.4,60.009163502989075,
5,,1,UNTERDRÜCKEN,,Stimuli/6940.jpg,,StimuliNegative.xlsx,25,"Unterdrücken Sie alle aufkommenden Emotionen. Wenn Sie also die Bilder ansehen, verhalten Sie sich so, dass eine außenstehende Person nicht sehen kann, welche Emotionen Sie gerade empfinden.",,,,,,,,,0,1,1,2,0,6,6,12,,,,,4.8,,,,,,,,844.4743287860729,6.016076123737093,None,,,,,,,,F30T02,2021_Sep_29_0852,ER_paradigm,2021.1.4,60.009163502989075,
5,,1,UNTERDRÜCKEN,,Stimuli/9409.jpg,,StimuliNegative.xlsx,25,"Unterdrücken Sie alle aufkommenden Emotionen. Wenn Sie also die Bilder ansehen, verhalten Sie sich so, dass eine außenstehende Person nicht sehen kann, welche Emotionen Sie gerade empfinden.",,,,,,,,,0,1,1,2,0,7,7,17,,,,,4.9,,,,,,,,855.4374721704307,6.006141240117358,None,,,,,,,,F30T02,2021_Sep_29_0852,ER_paradigm,2021.1.4,60.009163502989075,
5,,1,UNTERDRÜCKEN,,Stimuli/8230.jpg,,StimuliNegative.xlsx,25,"Unterdrücken Sie alle aufkommenden Emotionen. Wenn Sie also die Bilder ansehen, verhalten Sie sich so, dass eine außenstehende Person nicht sehen kann, welche Emotionen Sie gerade empfinden.",,,,,,,,,0,1,1,2,0,8,8,13,,,,,3.6,,,,,,,,865.0915382710314,6.012679793454936,None,,,,,,,,F30T02,2021_Sep_29_0852,ER_paradigm,2021.1.4,60.009163502989075,
5,,1,UNTERDRÜCKEN,,Stimuli/9800.jpg,,StimuliNegative.xlsx,25,"Unterdrücken Sie alle aufkommenden Emotionen. Wenn Sie also die Bilder ansehen, verhalten Sie sich so, dass eine außenstehende Person nicht sehen kann, welche Emotionen Sie gerade empfinden.",,,,,,,,,0,1,1,2,0,9,9,19,,,,,4.3,,,,,,,,875.464745469314,6.001456537109789,None,,,,,,,,F30T02,2021_Sep_29_0852,ER_paradigm,2021.1.4,60.009163502989075,
5,,1,UNTERDRÜCKEN,,Stimuli/326.jpg,,StimuliNegative.xlsx,25,"Unterdrücken Sie alle aufkommenden Emotionen. Wenn Sie also die Bilder ansehen, verhalten Sie sich so, dass eine außenstehende Person nicht sehen kann, welche Emotionen Sie gerade empfinden.",,,,,,,,,0,1,1,2,0,10,10,5,,,,,4.5,,,,,,,,886.0231824323719,6.000924005867091,None,,,,,,,,F30T02,2021_Sep_29_0852,ER_paradigm,2021.1.4,60.009163502989075,
5,,1,UNTERDRÜCKEN,,Stimuli/226.jpg,,StimuliNegative.xlsx,25,"Unterdrücken Sie alle aufkommenden Emotionen. Wenn Sie also die Bilder ansehen, verhalten Sie sich so, dass eine außenstehende Person nicht sehen kann, welche Emotionen Sie gerade empfinden.",,,,,,,,,0,1,1,2,0,11,11,2,,,,,3.6,,,,,,,,895.6626985603693,6.005373176080411,None,,,,,,,,F30T02,2021_Sep_29_0852,ER_paradigm,2021.1.4,60.009163502989075,
5,,1,UNTERDRÜCKEN,,Stimuli/6825.jpg,,StimuliNegative.xlsx,25,"Unterdrücken Sie alle aufkommenden Emotionen. Wenn Sie also die Bilder ansehen, verhalten Sie sich so, dass eine außenstehende Person nicht sehen kann, welche Emotionen Sie gerade empfinden.",,,,,,,,,0,1,1,2,0,12,12,11,,,,,4.7,,,,,,,,906.4323354895505,6.015365932372333,None,,,,,,,,F30T02,2021_Sep_29_0852,ER_paradigm,2021.1.4,60.009163502989075,
5,,1,UNTERDRÜCKEN,,Stimuli/1301.jpg,,StimuliNegative.xlsx,25,"Unterdrücken Sie alle aufkommenden Emotionen. Wenn Sie also die Bilder ansehen, verhalten Sie sich so, dass eine außenstehende Person nicht sehen kann, welche Emotionen Sie gerade empfinden.",,,,,,,,,0,1,1,2,0,13,13,6,,,,,4.0,,,,,,,,916.4741452873554,6.014974489829001,None,,,,,,,,F30T02,2021_Sep_29_0852,ER_paradigm,2021.1.4,60.009163502989075,
5,,1,UNTERDRÜCKEN,,Stimuli/9041.jpg,,StimuliNegative.xlsx,25,"Unterdrücken Sie alle aufkommenden Emotionen. Wenn Sie also die Bilder ansehen, verhalten Sie sich so, dass eine außenstehende Person nicht sehen kann, welche Emotionen Sie gerade empfinden.",,,,,,,,,0,1,1,2,0,14,14,14,,,,,4.5,,,,,,,,927.0451910503957,6.006372827047926,None,,,,,,,,F30T02,2021_Sep_29_0852,ER_paradigm,2021.1.4,60.009163502989075,
5,,1,UNTERDRÜCKEN,,Stimuli/3350.jpg,,StimuliNegative.xlsx,25,"Unterdrücken Sie alle aufkommenden Emotionen. Wenn Sie also die Bilder ansehen, verhalten Sie sich so, dass eine außenstehende Person nicht sehen kann, welche Emotionen Sie gerade empfinden.",,,,,,,,,0,1,1,2,0,15,15,7,,,,,5.0,,,,,,,,938.10641417842,6.000359073626896,None,,,,,,,,F30T02,2021_Sep_29_0852,ER_paradigm,2021.1.4,60.009163502989075,
5,,1,UNTERDRÜCKEN,,Stimuli/9140.jpg,,StimuliNegative.xlsx,25,"Unterdrücken Sie alle aufkommenden Emotionen. Wenn Sie also die Bilder ansehen, verhalten Sie sich so, dass eine außenstehende Person nicht sehen kann, welche Emotionen Sie gerade empfinden.",,,,,,,,,0,1,1,2,0,16,16,15,,,,,3.1,,,,,,,,947.2509364209027,6.013292204384015,None,,,,,,,,F30T02,2021_Sep_29_0852,ER_paradigm,2021.1.4,60.009163502989075,
5,,1,UNTERDRÜCKEN,,Stimuli/6410.jpg,,StimuliNegative.xlsx,25,"Unterdrücken Sie alle aufkommenden Emotionen. Wenn Sie also die Bilder ansehen, verhalten Sie sich so, dass eine außenstehende Person nicht sehen kann, welche Emotionen Sie gerade empfinden.",,,,,,,,,0,1,1,2,0,17,17,9,,,,,4.3,,,,,,,,957.588600687543,6.002591534421299,None,,,,,,,,F30T02,2021_Sep_29_0852,ER_paradigm,2021.1.4,60.009163502989075,
5,,1,UNTERDRÜCKEN,,Stimuli/208.jpg,,StimuliNegative.xlsx,25,"Unterdrücken Sie alle aufkommenden Emotionen. Wenn Sie also die Bilder ansehen, verhalten Sie sich so, dass eine außenstehende Person nicht sehen kann, welche Emotionen Sie gerade empfinden.",,,,,,,,,0,1,1,2,0,18,18,0,,,,,3.8,,,,,,,,967.439582726483,6.000869148732818,None,,,,,,,,F30T02,2021_Sep_29_0852,ER_paradigm,2021.1.4,60.009163502989075,
5,,1,UNTERDRÜCKEN,,Stimuli/9570.jpg,,StimuliNegative.xlsx,25,"Unterdrücken Sie alle aufkommenden Emotionen. Wenn Sie also die Bilder ansehen, verhalten Sie sich so, dass eine außenstehende Person nicht sehen kann, welche Emotionen Sie gerade empfinden.",,,,,,,,,0,1,1,2,0,19,19,18,,,,,4.8,,,,,,,,978.3049957205021,6.003739716692962,None,,,,,,,,F30T02,2021_Sep_29_0852,ER_paradigm,2021.1.4,60.009163502989075,
5,,1,UNTERDRÜCKEN,,,,StimuliNegative.xlsx,25,"Unterdrücken Sie alle aufkommenden Emotionen. Wenn Sie also die Bilder ansehen, verhalten Sie sich so, dass eine außenstehende Person nicht sehen kann, welche Emotionen Sie gerade empfinden.",,,,,,,,,0,1,1,2,,,,,,,,,,,,,247.03703703703704,5.468383684269156,253.70370370370372,2.847942119628442,,,,,,,,,,,F30T02,2021_Sep_29_0852,ER_paradigm,2021.1.4,60.009163502989075,
4,,1,DISTANZIEREN,,Stimuli/9145.jpg,,StimuliNegative.xlsx,24,Nehmen Sie die Position eines uninvolvierten Beobachters ein. Denken Sie über das Bild in einer neutralen Weise nach.,,,,,,,,,0,2,2,1,0,0,0,16,,,,,3.0,,,,,,,,1005.725148755866,6.014802892863372,None,,,,,,,,F30T02,2021_Sep_29_0852,ER_paradigm,2021.1.4,60.009163502989075,
4,,1,DISTANZIEREN,,Stimuli/9160.jpg,,StimuliNegative.xlsx,24,Nehmen Sie die Position eines uninvolvierten Beobachters ein. Denken Sie über das Bild in einer neutralen Weise nach.,,,,,,,,,0,2,2,1,0,1,1,17,,,,,4.7,,,,,,,,1016.5023367214299,6.010218312145753,None,,,,,,,,F30T02,2021_Sep_29_0852,ER_paradigm,2021.1.4,60.009163502989075,
4,,1,DISTANZIEREN,,Stimuli/9040.jpg,,StimuliNegative.xlsx,24,Nehmen Sie die Position eines uninvolvierten Beobachters ein. Denken Sie über das Bild in einer neutralen Weise nach.,,,,,,,,,0,2,2,1,0,2,2,13,,,,,3.3,,,,,,,,1025.860287862009,6.009670991932126,None,,,,,,,,F30T02,2021_Sep_29_0852,ER_paradigm,2021.1.4,60.009163502989075,
4,,1,DISTANZIEREN,,Stimuli/210.jpg,,StimuliNegative.xlsx,24,Nehmen Sie die Position eines uninvolvierten Beobachters ein. Denken Sie über das Bild in einer neutralen Weise nach.,,,,,,,,,0,2,2,1,0,3,3,0,,,,,3.6,,,,,,,,1035.500084050112,6.013314660520791,None,,,,,,,,F30T02,2021_Sep_29_0852,ER_paradigm,2021.1.4,60.009163502989075,
4,,1,DISTANZIEREN,,Stimuli/3301.jpg,,StimuliNegative.xlsx,24,Nehmen Sie die Position eines uninvolvierten Beobachters ein. Denken Sie über das Bild in einer neutralen Weise nach.,,,,,,,,,0,2,2,1,0,4,4,10,,,,,4.0,,,,,,,,1045.5661115081925,6.014065048370412,None,,,,,,,,F30T02,2021_Sep_29_0852,ER_paradigm,2021.1.4,60.009163502989075,
4,,1,DISTANZIEREN,,Stimuli/251.jpg,,StimuliNegative.xlsx,24,Nehmen Sie die Position eines uninvolvierten Beobachters ein. Denken Sie über das Bild in einer neutralen Weise nach.,,,,,,,,,0,2,2,1,0,5,5,5,,,,,4.7,,,,,,,,1056.3230353767563,6.00133078274348,None,,,,,,,,F30T02,2021_Sep_29_0852,ER_paradigm,2021.1.4,60.009163502989075,
4,,1,DISTANZIEREN,,Stimuli/228.jpg,,StimuliNegative.xlsx,24,Nehmen Sie die Position eines uninvolvierten Beobachters ein. Denken Sie über das Bild in einer neutralen Weise nach.,,,,,,,,,0,2,2,1,0,6,6,3,,,,,4.2,,,,,,,,1066.5705000789176,6.006130621573448,None,,,,,,,,F30T02,2021_Sep_29_0852,ER_paradigm,2021.1.4,60.009163502989075,
4,,1,DISTANZIEREN,,Stimuli/3185.jpg,,StimuliNegative.xlsx,24,Nehmen Sie die Position eines uninvolvierten Beobachters ein. Denken Sie über das Bild in einer neutralen Weise nach.,,,,,,,,,0,2,2,1,0,7,7,9,,,,,5.0,,,,,,,,1077.6317822345013,6.016018090664147,None,,,,,,,,F30T02,2021_Sep_29_0852,ER_paradigm,2021.1.4,60.009163502989075,
4,,1,DISTANZIEREN,,Stimuli/246.jpg,,StimuliNegative.xlsx,24,Nehmen Sie die Position eines uninvolvierten Beobachters ein. Denken Sie über das Bild in einer neutralen Weise nach.,,,,,,,,,0,2,2,1,0,8,8,4,,,,,3.1,,,,,,,,1086.7880631517896,6.00401140386748,None,,,,,,,,F30T02,2021_Sep_29_0852,ER_paradigm,2021.1.4,60.009163502989075,
4,,1,DISTANZIEREN,,Stimuli/3051.jpg,,StimuliNegative.xlsx,24,Nehmen Sie die Position eines uninvolvierten Beobachters ein. Denken Sie über das Bild in einer neutralen Weise nach.,,,,,,,,,0,2,2,1,0,9,9,7,,,,,3.9,,,,,,,,1096.7407791894489,6.015704025551258,None,,,,,,,,F30T02,2021_Sep_29_0852,ER_paradigm,2021.1.4,60.009163502989075,
4,,1,DISTANZIEREN,,Stimuli/218.jpg,,StimuliNegative.xlsx,24,Nehmen Sie die Position eines uninvolvierten Beobachters ein. Denken Sie über das Bild in einer neutralen Weise nach.,,,,,,,,,0,2,2,1,0,10,10,1,,,,,3.5,,,,,,,,1106.287224254681,6.0065970676132565,None,,,,,,,,F30T02,2021_Sep_29_0852,ER_paradigm,2021.1.4,60.009163502989075,
4,,1,DISTANZIEREN,,Stimuli/9904.jpg,,StimuliNegative.xlsx,24,Nehmen Sie die Position eines uninvolvierten Beobachters ein. Denken Sie über das Bild in einer neutralen Weise nach.,,,,,,,,,0,2,2,1,0,11,11,19,,,,,3.9,,,,,,,,1116.246789414049,6.003816035478849,None,,,,,,,,F30T02,2021_Sep_29_0852,ER_paradigm,2021.1.4,60.009163502989075,
4,,1,DISTANZIEREN,,Stimuli/6562.jpg,,StimuliNegative.xlsx,24,Nehmen Sie die Position eines uninvolvierten Beobachters ein. Denken Sie über das Bild in einer neutralen Weise nach.,,,,,,,,,0,2,2,1,0,12,12,11,,,,,4.2,,,,,,,,1126.5155473458772,6.016975363693291,None,,,,,,,,F30T02,2021_Sep_29_0852,ER_paradigm,2021.1.4,60.009163502989075,
4,,1,DISTANZIEREN,,Stimuli/9042.jpg,,StimuliNegative.xlsx,24,Nehmen Sie die Position eines uninvolvierten Beobachters ein. Denken Sie über das Bild in einer neutralen Weise nach.,,,,,,,,,0,2,2,1,0,13,13,14,,,,,4.9,,,,,,,,1137.4680105915972,6.013513236929612,None,,,,,,,,F30T02,2021_Sep_29_0852,ER_paradigm,2021.1.4,60.009163502989075,
4,,1,DISTANZIEREN,,Stimuli/9184.jpg,,StimuliNegative.xlsx,24,Nehmen Sie die Position eines uninvolvierten Beobachters ein. Denken Sie über das Bild in einer neutralen Weise nach.,,,,,,,,,0,2,2,1,0,14,14,18,,,,,4.5,,,,,,,,1148.021314402596,6.005038290921675,None,,,,,,,,F30T02,2021_Sep_29_0852,ER_paradigm,2021.1.4,60.009163502989075,
4,,1,DISTANZIEREN,,Stimuli/9031.jpg,,StimuliNegative.xlsx,24,Nehmen Sie die Position eines uninvolvierten Beobachters ein. Denken Sie über das Bild in einer neutralen Weise nach.,,,,,,,,,0,2,2,1,0,15,15,12,,,,,4.0,,,,,,,,1158.0539069186716,6.006094370952724,None,,,,,,,,F30T02,2021_Sep_29_0852,ER_paradigm,2021.1.4,60.009163502989075,
4,,1,DISTANZIEREN,,Stimuli/2703.jpg,,StimuliNegative.xlsx,24,Nehmen Sie die Position eines uninvolvierten Beobachters ein. Denken Sie über das Bild in einer neutralen Weise nach.,,,,,,,,,0,2,2,1,0,16,16,6,,,,,4.7,,,,,,,,1168.816007247558,6.01520774492883,None,,,,,,,,F30T02,2021_Sep_29_0852,ER_paradigm,2021.1.4,60.009163502989075,
4,,1,DISTANZIEREN,,Stimuli/222.jpg,,StimuliNegative.xlsx,24,Nehmen Sie die Position eines uninvolvierten Beobachters ein. Denken Sie über das Bild in einer neutralen Weise nach.,,,,,,,,,0,2,2,1,0,17,17,2,,,,,4.1,,,,,,,,1178.980929286267,6.000411043542954,None,,,,,,,,F30T02,2021_Sep_29_0852,ER_paradigm,2021.1.4,60.009163502989075,
4,,1,DISTANZIEREN,,Stimuli/3160.jpg,,StimuliNegative.xlsx,24,Nehmen Sie die Position eines uninvolvierten Beobachters ein. Denken Sie über das Bild in einer neutralen Weise nach.,,,,,,,,,0,2,2,1,0,18,18,8,,,,,3.9,,,,,,,,1188.9344986571232,6.011784467282723,None,,,,,,,,F30T02,2021_Sep_29_0852,ER_paradigm,2021.1.4,60.009163502989075,
4,,1,DISTANZIEREN,,Stimuli/9043.jpg,,StimuliNegative.xlsx,24,Nehmen Sie die Position eines uninvolvierten Beobachters ein. Denken Sie über das Bild in einer neutralen Weise nach.,,,,,,,,,0,2,2,1,0,19,19,15,,,,,4.8,,,,,,,,1199.8120851228737,6.006795676103138,None,,,,,,,,F30T02,2021_Sep_29_0852,ER_paradigm,2021.1.4,60.009163502989075,
4,,1,DISTANZIEREN,,,,StimuliNegative.xlsx,24,Nehmen Sie die Position eines uninvolvierten Beobachters ein. Denken Sie über das Bild in einer neutralen Weise nach.,,,,,,,,,0,2,2,1,,,,,,,,,,,,,165.1851851851852,3.9852957216571667,141.4814814814815,2.0641334433476004,,,,,,,,,,,F30T02,2021_Sep_29_0852,ER_paradigm,2021.1.4,60.009163502989075,
,,,,,,,,,,,,,,,,,,,,,,,,,,,,,,,,,,,,,,,,,3,13.083215064346405,,,,,,F30T02,2021_Sep_29_0852,ER_paradigm,2021.1.4,60.009163502989075,
,,,,,,,,,,,,,,,,,,,,,,,,,,,,,,,,,,,,,,,,,,,space,7.750404852065913,,,,F30T02,2021_Sep_29_0852,ER_paradigm,2021.1.4,60.009163502989075,
,,,,,Stimuli/9373.jpg,,,,,,,,,,,,,,,,,,,,,0,0,0,14,3.9,,,,,,,,,,,,,,,1295.2908595824188,6.0154983914990225,None,F30T02,2021_Sep_29_0852,ER_paradigm,2021.1.4,60.009163502989075,
,,,,,Stimuli/3101.jpg,,,,,,,,,,,,,,,,,,,,,0,1,1,5,4.0,,,,,,,,,,,,,,,1305.3664151793223,6.013203374322984,None,F30T02,2021_Sep_29_0852,ER_paradigm,2021.1.4,60.009163502989075,
,,,,,Stimuli/9402.jpg,,,,,,,,,,,,,,,,,,,,,0,2,2,16,4.8,,,,,,,,,,,,,,,1316.2239300292445,5.999629249181453,None,F30T02,2021_Sep_29_0852,ER_paradigm,2021.1.4,60.009163502989075,
,,,,,Stimuli/3225.jpg,,,,,,,,,,,,,,,,,,,,,0,3,3,9,3.7,,,,,,,,,,,,,,,1325.981031301288,6.000915344214263,None,F30T02,2021_Sep_29_0852,ER_paradigm,2021.1.4,60.009163502989075,
,,,,,Stimuli/6020.jpg,,,,,,,,,,,,,,,,,,,,,0,4,4,10,3.5,,,,,,,,,,,,,,,1335.532286471012,6.016124917714478,None,F30T02,2021_Sep_29_0852,ER_paradigm,2021.1.4,60.009163502989075,
,,,,,Stimuli/2981.jpg,,,,,,,,,,,,,,,,,,,,,0,5,5,3,4.3,,,,,,,,,,,,,,,1345.8930042076386,6.011440856309491,None,F30T02,2021_Sep_29_0852,ER_paradigm,2021.1.4,60.009163502989075,
,,,,,Stimuli/3215.jpg,,,,,,,,,,,,,,,,,,,,,0,6,6,7,3.0,,,,,,,,,,,,,,,1354.9490489505283,6.015554820562102,None,F30T02,2021_Sep_29_0852,ER_paradigm,2021.1.4,60.009163502989075,
,,,,,Stimuli/9405.jpg,,,,,,,,,,,,,,,,,,,,,0,7,7,18,4.7,,,,,,,,,,,,,,,1365.7109093195536,6.008844606099956,None,F30T02,2021_Sep_29_0852,ER_paradigm,2021.1.4,60.009163502989075,
,,,,,Stimuli/9403.jpg,,,,,,,,,,,,,,,,,,,,,0,8,8,17,3.1,,,,,,,,,,,,,,,1374.8574317622165,6.014952996096326,None,F30T02,2021_Sep_29_0852,ER_paradigm,2021.1.4,60.009163502989075,
,,,,,Stimuli/9423.jpg,,,,,,,,,,,,,,,,,,,,,0,9,9,19,3.9,,,,,,,,,,,,,,,1384.8354593948138,6.010072026454509,None,F30T02,2021_Sep_29_0852,ER_paradigm,2021.1.4,60.009163502989075,
,,,,,Stimuli/6571.jpg,,,,,,,,,,,,,,,,,,,,,0,10,10,11,3.1,,,,,,,,,,,,,,,1393.9929282417356,6.01072482634936,None,F30T02,2021_Sep_29_0852,ER_paradigm,2021.1.4,60.009163502989075,
,,,,,Stimuli/223.jpg,,,,,,,,,,,,,,,,,,,,,0,11,11,0,4.6,,,,,,,,,,,,,,,1404.6679167249454,6.010568948680884,None,F30T02,2021_Sep_29_0852,ER_paradigm,2021.1.4,60.009163502989075,
,,,,,Stimuli/9400.jpg,,,,,,,,,,,,,,,,,,,,,0,12,12,15,4.1,,,,,,,,,,,,,,,1414.82939110506,6.0050998848955714,None,F30T02,2021_Sep_29_0852,ER_paradigm,2021.1.4,60.009163502989075,
,,,,,Stimuli/3016.jpg,,,,,,,,,,,,,,,,,,,,,0,13,13,4,4.4,,,,,,,,,,,,,,,1425.297795962258,6.001189309081383,None,F30T02,2021_Sep_29_0852,ER_paradigm,2021.1.4,60.009163502989075,
,,,,,Stimuli/238.jpg,,,,,,,,,,,,,,,,,,,,,0,14,14,1,4.8,,,,,,,,,,,,,,,1436.1592720747035,6.010643663455085,None,F30T02,2021_Sep_29_0852,ER_paradigm,2021.1.4,60.009163502989075,
,,,,,Stimuli/3181.jpg,,,,,,,,,,,,,,,,,,,,,0,15,15,6,3.2,,,,,,,,,,,,,,,1445.4321766925837,6.015318421603297,None,F30T02,2021_Sep_29_0852,ER_paradigm,2021.1.4,60.009163502989075,
,,,,,Stimuli/245.jpg,,,,,,,,,,,,,,,,,,,,,0,16,16,2,3.0,,,,,,,,,,,,,,,1454.4716558641953,6.004458280988729,None,F30T02,2021_Sep_29_0852,ER_paradigm,2021.1.4,60.009163502989075,
,,,,,Stimuli/6831.jpg,,,,,,,,,,,,,,,,,,,,,0,17,17,12,3.2,,,,,,,,,,,,,,,1463.7351160725625,6.0095099814325295,None,F30T02,2021_Sep_29_0852,ER_paradigm,2021.1.4,60.009163502989075,
,,,,,Stimuli/3220.jpg,,,,,,,,,,,,,,,,,,,,,0,18,18,8,4.4,,,,,,,,,,,,,,,1474.1807574647405,6.000153439573296,None,F30T02,2021_Sep_29_0852,ER_paradigm,2021.1.4,60.009163502989075,
,,,,,Stimuli/8231.jpg,,,,,,,,,,,,,,,,,,,,,0,19,19,13,4.3,,,,,,,,,,,,,,,1484.537477688224,6.005893548928725,None,F30T02,2021_Sep_29_0852,ER_paradigm,2021.1.4,60.009163502989075,
,,,,,,,,,,,,,,,,,,,,,,,,,,,,,,,,,,171.85185185185185,3.8512207155936267,158.8888888888889,0.6472881969266382,,,,,,,,,,,F30T02,2021_Sep_29_0852,ER_paradigm,2021.1.4,60.009163502989075,
