Block,conds_view_File,n_reps,instr_1,TriggerBlockView,ImageFile,Trigger,conds_reg_File,TriggerBlockReg,instr_2,blocks_view.thisRepN,blocks_view.thisTrialN,blocks_view.thisN,blocks_view.thisIndex,trials_view.thisRepN,trials_view.thisTrialN,trials_view.thisN,trials_view.thisIndex,blocks_reg.thisRepN,blocks_reg.thisTrialN,blocks_reg.thisN,blocks_reg.thisIndex,trials_reg.thisRepN,trials_reg.thisTrialN,trials_reg.thisN,trials_reg.thisIndex,trials_choice.thisRepN,trials_choice.thisTrialN,trials_choice.thisN,trials_choice.thisIndex,Fix_jitter,image_view.started,image_view.lasted,image_view.stopped,slider_arousal.response,slider_arousal.rt,slider_effort.response,slider_effort.rt,image_reg.started,image_reg.lasted,image_reg.stopped,resp_choice.keys,resp_choice.rt,key_resp.keys,key_resp.rt,image.started,image.lased,image.stopped,participant,date,expName,psychopyVersion,frameRate,
,,,,,,,,,,,,,,,,,,,,,,,,,,,,,,,,,,,,,,,,,,,,,,,,G14E11,2021_Oct_25_0841,ER,2021.1.4,60.00271407125239,
1,StimuliNeutral.xlsx,1,ANSCHAUEN,21,Stimuli/7211.jpg,1,,,,0,0,0,0,0,0,0,16,,,,,,,,,,,,,3.5,80.56563108623959,6.030254629906267,None,,,,,,,,,,,,,,,G14E11,2021_Oct_25_0841,ER,2021.1.4,60.00271407125239,
1,StimuliNeutral.xlsx,1,ANSCHAUEN,21,Stimuli/7100.jpg,1,,,,0,0,0,0,0,1,1,13,,,,,,,,,,,,,4.5,91.11443483224139,6.002396646537818,None,,,,,,,,,,,,,,,G14E11,2021_Oct_25_0841,ER,2021.1.4,60.00271407125239,
1,StimuliNeutral.xlsx,1,ANSCHAUEN,21,Stimuli/7224.jpg,1,,,,0,0,0,0,0,2,2,17,,,,,,,,,,,,,3.5,100.66187901992816,6.006354699609801,None,,,,,,,,,,,,,,,G14E11,2021_Oct_25_0841,ER,2021.1.4,60.00271407125239,
1,StimuliNeutral.xlsx,1,ANSCHAUEN,21,Stimuli/7150.jpg,1,,,,0,0,0,0,0,3,3,14,,,,,,,,,,,,,3.1,109.81452006928157,6.002922761486843,None,,,,,,,,,,,,,,,G14E11,2021_Oct_25_0841,ER,2021.1.4,60.00271407125239,
1,StimuliNeutral.xlsx,1,ANSCHAUEN,21,Stimuli/7233.jpg,1,,,,0,0,0,0,0,4,4,18,,,,,,,,,,,,,3.4,119.2659707191633,6.000826963107102,None,,,,,,,,,,,,,,,G14E11,2021_Oct_25_0841,ER,2021.1.4,60.00271407125239,
1,StimuliNeutral.xlsx,1,ANSCHAUEN,21,Stimuli/7041.jpg,1,,,,0,0,0,0,0,5,5,12,,,,,,,,,,,,,4.6,129.89905745210126,6.002121077734046,None,,,,,,,,,,,,,,,G14E11,2021_Oct_25_0841,ER,2021.1.4,60.00271407125239,
1,StimuliNeutral.xlsx,1,ANSCHAUEN,21,Stimuli/7021.jpg,1,,,,0,0,0,0,0,6,6,10,,,,,,,,,,,,,3.9,139.8480563738849,6.000690943095833,None,,,,,,,,,,,,,,,G14E11,2021_Oct_25_0841,ER,2021.1.4,60.00271407125239,
1,StimuliNeutral.xlsx,1,ANSCHAUEN,21,Stimuli/7004.jpg,1,,,,0,0,0,0,0,7,7,7,,,,,,,,,,,,,4.3,150.1926232256228,6.0133712778333575,None,,,,,,,,,,,,,,,G14E11,2021_Oct_25_0841,ER,2021.1.4,60.00271407125239,
1,StimuliNeutral.xlsx,1,ANSCHAUEN,21,Stimuli/7025.jpg,1,,,,0,0,0,0,0,8,8,11,,,,,,,,,,,,,3.8,160.04036200570408,6.0006429511122406,None,,,,,,,,,,,,,,,G14E11,2021_Oct_25_0841,ER,2021.1.4,60.00271407125239,
1,StimuliNeutral.xlsx,1,ANSCHAUEN,21,Stimuli/7185.jpg,1,,,,0,0,0,0,0,9,9,15,,,,,,,,,,,,,4.6,170.69524882838596,6.009307359810919,None,,,,,,,,,,,,,,,G14E11,2021_Oct_25_0841,ER,2021.1.4,60.00271407125239,
1,StimuliNeutral.xlsx,1,ANSCHAUEN,21,Stimuli/7235.jpg,1,,,,0,0,0,0,0,10,10,19,,,,,,,,,,,,,4.6,181.3505770744523,6.013187458389439,None,,,,,,,,,,,,,,,G14E11,2021_Oct_25_0841,ER,2021.1.4,60.00271407125239,
1,StimuliNeutral.xlsx,1,ANSCHAUEN,21,Stimuli/107.jpg,1,,,,0,0,0,0,0,11,11,1,,,,,,,,,,,,,4.0,191.41884467063937,6.009881595149636,None,,,,,,,,,,,,,,,G14E11,2021_Oct_25_0841,ER,2021.1.4,60.00271407125239,
1,StimuliNeutral.xlsx,1,ANSCHAUEN,21,Stimuli/143.jpg,1,,,,0,0,0,0,0,12,12,4,,,,,,,,,,,,,3.1,200.56727166695055,6.013856458477676,None,,,,,,,,,,,,,,,G14E11,2021_Oct_25_0841,ER,2021.1.4,60.00271407125239,
1,StimuliNeutral.xlsx,1,ANSCHAUEN,21,Stimuli/140.jpg,1,,,,0,0,0,0,0,13,13,3,,,,,,,,,,,,,4.6,211.23096482129768,6.0042309913551435,None,,,,,,,,,,,,,,,G14E11,2021_Oct_25_0841,ER,2021.1.4,60.00271407125239,
1,StimuliNeutral.xlsx,1,ANSCHAUEN,21,Stimuli/7006.jpg,1,,,,0,0,0,0,0,14,14,8,,,,,,,,,,,,,4.8,222.09771592298057,6.004153549787588,None,,,,,,,,,,,,,,,G14E11,2021_Oct_25_0841,ER,2021.1.4,60.00271407125239,
1,StimuliNeutral.xlsx,1,ANSCHAUEN,21,Stimuli/7002.jpg,1,,,,0,0,0,0,0,15,15,6,,,,,,,,,,,,,3.7,231.8429710229393,6.014053944032639,None,,,,,,,,,,,,,,,G14E11,2021_Oct_25_0841,ER,2021.1.4,60.00271407125239,
1,StimuliNeutral.xlsx,1,ANSCHAUEN,21,Stimuli/124.jpg,1,,,,0,0,0,0,0,16,16,2,,,,,,,,,,,,,4.1,242.00078019010834,6.0125442505814135,None,,,,,,,,,,,,,,,G14E11,2021_Oct_25_0841,ER,2021.1.4,60.00271407125239,
1,StimuliNeutral.xlsx,1,ANSCHAUEN,21,Stimuli/083.jpg,1,,,,0,0,0,0,0,17,17,0,,,,,,,,,,,,,3.4,251.45769505796488,6.016201391699724,None,,,,,,,,,,,,,,,G14E11,2021_Oct_25_0841,ER,2021.1.4,60.00271407125239,
1,StimuliNeutral.xlsx,1,ANSCHAUEN,21,Stimuli/7009.jpg,1,,,,0,0,0,0,0,18,18,9,,,,,,,,,,,,,4.1,261.6172404048266,6.013086405815557,None,,,,,,,,,,,,,,,G14E11,2021_Oct_25_0841,ER,2021.1.4,60.00271407125239,
1,StimuliNeutral.xlsx,1,ANSCHAUEN,21,Stimuli/7000.jpg,1,,,,0,0,0,0,0,19,19,5,,,,,,,,,,,,,4.9,272.590115966741,6.001988265779801,None,,,,,,,,,,,,,,,G14E11,2021_Oct_25_0841,ER,2021.1.4,60.00271407125239,
1,StimuliNeutral.xlsx,1,ANSCHAUEN,21,,,,,,0,0,0,0,,,,,,,,,,,,,,,,,,,,,7.407407407407418,6.403658231836744,6.296296296296289,3.4817227957537398,,,,,,,,,,,G14E11,2021_Oct_25_0841,ER,2021.1.4,60.00271407125239,
2,StimuliNegative.xlsx,1,ANSCHAUEN,22,Stimuli/9031.jpg,,,,,0,1,1,1,0,0,0,12,,,,,,,,,,,,,4.4,304.69264423812274,6.01439418643713,None,,,,,,,,,,,,,,,G14E11,2021_Oct_25_0841,ER,2021.1.4,60.00271407125239,
2,StimuliNegative.xlsx,1,ANSCHAUEN,22,Stimuli/9184.jpg,,,,,0,1,1,1,0,1,1,18,,,,,,,,,,,,,4.5,315.24060395441484,6.0014021607348695,None,,,,,,,,,,,,,,,G14E11,2021_Oct_25_0841,ER,2021.1.4,60.00271407125239,
2,StimuliNegative.xlsx,1,ANSCHAUEN,22,Stimuli/3185.jpg,,,,,0,1,1,1,0,2,2,9,,,,,,,,,,,,,4.6,325.8980642496608,6.000616517034359,None,,,,,,,,,,,,,,,G14E11,2021_Oct_25_0841,ER,2021.1.4,60.00271407125239,
2,StimuliNegative.xlsx,1,ANSCHAUEN,22,Stimuli/9040.jpg,,,,,0,1,1,1,0,3,3,13,,,,,,,,,,,,,3.8,335.7514876384521,6.0129263256676495,None,,,,,,,,,,,,,,,G14E11,2021_Oct_25_0841,ER,2021.1.4,60.00271407125239,
2,StimuliNegative.xlsx,1,ANSCHAUEN,22,Stimuli/210.jpg,,,,,0,1,1,1,0,4,4,0,,,,,,,,,,,,,3.4,345.21456575149205,6.001027143443935,None,,,,,,,,,,,,,,,G14E11,2021_Oct_25_0841,ER,2021.1.4,60.00271407125239,
2,StimuliNegative.xlsx,1,ANSCHAUEN,22,Stimuli/222.jpg,,,,,0,1,1,1,0,5,5,2,,,,,,,,,,,,,4.3,355.55475237465,6.004335059435107,None,,,,,,,,,,,,,,,G14E11,2021_Oct_25_0841,ER,2021.1.4,60.00271407125239,
2,StimuliNegative.xlsx,1,ANSCHAUEN,22,Stimuli/9042.jpg,,,,,0,1,1,1,0,6,6,14,,,,,,,,,,,,,4.7,366.3237134482479,6.002060446306132,None,,,,,,,,,,,,,,,G14E11,2021_Oct_25_0841,ER,2021.1.4,60.00271407125239,
2,StimuliNegative.xlsx,1,ANSCHAUEN,22,Stimuli/2703.jpg,,,,,0,1,1,1,0,7,7,6,,,,,,,,,,,,,3.7,376.08254616579507,6.016633511870168,None,,,,,,,,,,,,,,,G14E11,2021_Oct_25_0841,ER,2021.1.4,60.00271407125239,
2,StimuliNegative.xlsx,1,ANSCHAUEN,22,Stimuli/246.jpg,,,,,0,1,1,1,0,8,8,4,,,,,,,,,,,,,3.4,385.5457343138987,6.00582056469284,None,,,,,,,,,,,,,,,G14E11,2021_Oct_25_0841,ER,2021.1.4,60.00271407125239,
2,StimuliNegative.xlsx,1,ANSCHAUEN,22,Stimuli/9904.jpg,,,,,0,1,1,1,0,9,9,19,,,,,,,,,,,,,4.3,395.90911683579907,6.013281645602547,None,,,,,,,,,,,,,,,G14E11,2021_Oct_25_0841,ER,2021.1.4,60.00271407125239,
2,StimuliNegative.xlsx,1,ANSCHAUEN,22,Stimuli/9160.jpg,,,,,0,1,1,1,0,10,10,17,,,,,,,,,,,,,3.5,405.46145389333833,6.0079798818333074,None,,,,,,,,,,,,,,,G14E11,2021_Oct_25_0841,ER,2021.1.4,60.00271407125239,
2,StimuliNegative.xlsx,1,ANSCHAUEN,22,Stimuli/251.jpg,,,,,0,1,1,1,0,11,11,5,,,,,,,,,,,,,3.2,414.7117216826882,6.006257496774197,None,,,,,,,,,,,,,,,G14E11,2021_Oct_25_0841,ER,2021.1.4,60.00271407125239,
2,StimuliNegative.xlsx,1,ANSCHAUEN,22,Stimuli/3160.jpg,,,,,0,1,1,1,0,12,12,8,,,,,,,,,,,,,3.8,424.5568651757203,6.001734190736897,None,,,,,,,,,,,,,,,G14E11,2021_Oct_25_0841,ER,2021.1.4,60.00271407125239,
2,StimuliNegative.xlsx,1,ANSCHAUEN,22,Stimuli/228.jpg,,,,,0,1,1,1,0,13,13,3,,,,,,,,,,,,,4.1,434.7109562493861,6.009395259665325,None,,,,,,,,,,,,,,,G14E11,2021_Oct_25_0841,ER,2021.1.4,60.00271407125239,
2,StimuliNegative.xlsx,1,ANSCHAUEN,22,Stimuli/218.jpg,,,,,0,1,1,1,0,14,14,1,,,,,,,,,,,,,3.2,443.95817289233673,6.0140959691489115,None,,,,,,,,,,,,,,,G14E11,2021_Oct_25_0841,ER,2021.1.4,60.00271407125239,
2,StimuliNegative.xlsx,1,ANSCHAUEN,22,Stimuli/3301.jpg,,,,,0,1,1,1,0,15,15,10,,,,,,,,,,,,,4.8,454.8292503277771,6.00619288708549,None,,,,,,,,,,,,,,,G14E11,2021_Oct_25_0841,ER,2021.1.4,60.00271407125239,
2,StimuliNegative.xlsx,1,ANSCHAUEN,22,Stimuli/3051.jpg,,,,,0,1,1,1,0,16,16,7,,,,,,,,,,,,,3.3,464.18803768395446,6.004884144058451,None,,,,,,,,,,,,,,,G14E11,2021_Oct_25_0841,ER,2021.1.4,60.00271407125239,
2,StimuliNegative.xlsx,1,ANSCHAUEN,22,Stimuli/9145.jpg,,,,,0,1,1,1,0,17,17,16,,,,,,,,,,,,,3.9,474.1499334818218,6.015132800675929,None,,,,,,,,,,,,,,,G14E11,2021_Oct_25_0841,ER,2021.1.4,60.00271407125239,
2,StimuliNegative.xlsx,1,ANSCHAUEN,22,Stimuli/9043.jpg,,,,,0,1,1,1,0,18,18,15,,,,,,,,,,,,,3.7,483.91904404899105,6.011191429221071,None,,,,,,,,,,,,,,,G14E11,2021_Oct_25_0841,ER,2021.1.4,60.00271407125239,
2,StimuliNegative.xlsx,1,ANSCHAUEN,22,Stimuli/6562.jpg,,,,,0,1,1,1,0,19,19,11,,,,,,,,,,,,,3.3,493.28300850547384,6.014288770966232,None,,,,,,,,,,,,,,,G14E11,2021_Oct_25_0841,ER,2021.1.4,60.00271407125239,
2,StimuliNegative.xlsx,1,ANSCHAUEN,22,,,,,,0,1,1,1,,,,,,,,,,,,,,,,,,,,,36.29629629629629,8.537221836741082,10.000000000000009,6.114202892407775,,,,,,,,,,,G14E11,2021_Oct_25_0841,ER,2021.1.4,60.00271407125239,
5,,1,UNTERDRÜCKEN,,Stimuli/9340.jpg,,StimuliNegative.xlsx,25,"Unterdrücken Sie alle aufkommenden Emotionen. Wenn Sie also die Bilder ansehen, verhalten Sie sich so, dass eine außenstehende Person nicht sehen kann, welche Emotionen Sie gerade empfinden.",,,,,,,,,0,0,0,2,0,0,0,16,,,,,4.7,,,,,,,,531.194549640757,6.009597878088243,None,,,,,,,,G14E11,2021_Oct_25_0841,ER,2021.1.4,60.00271407125239,
5,,1,UNTERDRÜCKEN,,Stimuli/326.jpg,,StimuliNegative.xlsx,25,"Unterdrücken Sie alle aufkommenden Emotionen. Wenn Sie also die Bilder ansehen, verhalten Sie sich so, dass eine außenstehende Person nicht sehen kann, welche Emotionen Sie gerade empfinden.",,,,,,,,,0,0,0,2,0,1,1,5,,,,,3.5,,,,,,,,540.7326248104218,5.998313159681857,None,,,,,,,,G14E11,2021_Oct_25_0841,ER,2021.1.4,60.00271407125239,
5,,1,UNTERDRÜCKEN,,Stimuli/9409.jpg,,StimuliNegative.xlsx,25,"Unterdrücken Sie alle aufkommenden Emotionen. Wenn Sie also die Bilder ansehen, verhalten Sie sich so, dass eine außenstehende Person nicht sehen kann, welche Emotionen Sie gerade empfinden.",,,,,,,,,0,0,0,2,0,2,2,17,,,,,4.4,,,,,,,,551.1982234636089,6.003581880941056,None,,,,,,,,G14E11,2021_Oct_25_0841,ER,2021.1.4,60.00271407125239,
5,,1,UNTERDRÜCKEN,,Stimuli/254.jpg,,StimuliNegative.xlsx,25,"Unterdrücken Sie alle aufkommenden Emotionen. Wenn Sie also die Bilder ansehen, verhalten Sie sich so, dass eine außenstehende Person nicht sehen kann, welche Emotionen Sie gerade empfinden.",,,,,,,,,0,0,0,2,0,3,3,4,,,,,4.4,,,,,,,,561.6577573576942,6.016032521612942,None,,,,,,,,G14E11,2021_Oct_25_0841,ER,2021.1.4,60.00271407125239,
5,,1,UNTERDRÜCKEN,,Stimuli/9041.jpg,,StimuliNegative.xlsx,25,"Unterdrücken Sie alle aufkommenden Emotionen. Wenn Sie also die Bilder ansehen, verhalten Sie sich so, dass eine außenstehende Person nicht sehen kann, welche Emotionen Sie gerade empfinden.",,,,,,,,,0,0,0,2,0,4,4,14,,,,,4.7,,,,,,,,572.4243454600219,6.016409142874181,None,,,,,,,,G14E11,2021_Oct_25_0841,ER,2021.1.4,60.00271407125239,
5,,1,UNTERDRÜCKEN,,Stimuli/253.jpg,,StimuliNegative.xlsx,25,"Unterdrücken Sie alle aufkommenden Emotionen. Wenn Sie also die Bilder ansehen, verhalten Sie sich so, dass eine außenstehende Person nicht sehen kann, welche Emotionen Sie gerade empfinden.",,,,,,,,,0,0,0,2,0,5,5,3,,,,,4.1,,,,,,,,582.5762181889731,6.011598526732996,None,,,,,,,,G14E11,2021_Oct_25_0841,ER,2021.1.4,60.00271407125239,
5,,1,UNTERDRÜCKEN,,Stimuli/6825.jpg,,StimuliNegative.xlsx,25,"Unterdrücken Sie alle aufkommenden Emotionen. Wenn Sie also die Bilder ansehen, verhalten Sie sich so, dass eine außenstehende Person nicht sehen kann, welche Emotionen Sie gerade empfinden.",,,,,,,,,0,0,0,2,0,6,6,11,,,,,3.4,,,,,,,,592.0442392168334,6.010818208218552,None,,,,,,,,G14E11,2021_Oct_25_0841,ER,2021.1.4,60.00271407125239,
5,,1,UNTERDRÜCKEN,,Stimuli/226.jpg,,StimuliNegative.xlsx,25,"Unterdrücken Sie alle aufkommenden Emotionen. Wenn Sie also die Bilder ansehen, verhalten Sie sich so, dass eine außenstehende Person nicht sehen kann, welche Emotionen Sie gerade empfinden.",,,,,,,,,0,0,0,2,0,7,7,2,,,,,4.8,,,,,,,,602.896126285661,6.004925848217681,None,,,,,,,,G14E11,2021_Oct_25_0841,ER,2021.1.4,60.00271407125239,
5,,1,UNTERDRÜCKEN,,Stimuli/3350.jpg,,StimuliNegative.xlsx,25,"Unterdrücken Sie alle aufkommenden Emotionen. Wenn Sie also die Bilder ansehen, verhalten Sie sich so, dass eine außenstehende Person nicht sehen kann, welche Emotionen Sie gerade empfinden.",,,,,,,,,0,0,0,2,0,8,8,7,,,,,3.6,,,,,,,,612.5554882941069,6.002432897104882,None,,,,,,,,G14E11,2021_Oct_25_0841,ER,2021.1.4,60.00271407125239,
5,,1,UNTERDRÜCKEN,,Stimuli/9570.jpg,,StimuliNegative.xlsx,25,"Unterdrücken Sie alle aufkommenden Emotionen. Wenn Sie also die Bilder ansehen, verhalten Sie sich so, dass eine außenstehende Person nicht sehen kann, welche Emotionen Sie gerade empfinden.",,,,,,,,,0,0,0,2,0,9,9,18,,,,,3.8,,,,,,,,622.4094929759158,6.013700099661946,None,,,,,,,,G14E11,2021_Oct_25_0841,ER,2021.1.4,60.00271407125239,
5,,1,UNTERDRÜCKEN,,Stimuli/8230.jpg,,StimuliNegative.xlsx,25,"Unterdrücken Sie alle aufkommenden Emotionen. Wenn Sie also die Bilder ansehen, verhalten Sie sich so, dass eine außenstehende Person nicht sehen kann, welche Emotionen Sie gerade empfinden.",,,,,,,,,0,0,0,2,0,10,10,13,,,,,4.7,,,,,,,,633.1445690332912,6.006518950336613,None,,,,,,,,G14E11,2021_Oct_25_0841,ER,2021.1.4,60.00271407125239,
5,,1,UNTERDRÜCKEN,,Stimuli/208.jpg,,StimuliNegative.xlsx,25,"Unterdrücken Sie alle aufkommenden Emotionen. Wenn Sie also die Bilder ansehen, verhalten Sie sich so, dass eine außenstehende Person nicht sehen kann, welche Emotionen Sie gerade empfinden.",,,,,,,,,0,0,0,2,0,11,11,0,,,,,3.9,,,,,,,,643.1010092747165,6.011438446701504,None,,,,,,,,G14E11,2021_Oct_25_0841,ER,2021.1.4,60.00271407125239,
5,,1,UNTERDRÜCKEN,,Stimuli/6555.jpg,,StimuliNegative.xlsx,25,"Unterdrücken Sie alle aufkommenden Emotionen. Wenn Sie also die Bilder ansehen, verhalten Sie sich so, dass eine außenstehende Person nicht sehen kann, welche Emotionen Sie gerade empfinden.",,,,,,,,,0,0,0,2,0,12,12,10,,,,,4.5,,,,,,,,653.6767671130365,6.008942159125581,None,,,,,,,,G14E11,2021_Oct_25_0841,ER,2021.1.4,60.00271407125239,
5,,1,UNTERDRÜCKEN,,Stimuli/6410.jpg,,StimuliNegative.xlsx,25,"Unterdrücken Sie alle aufkommenden Emotionen. Wenn Sie also die Bilder ansehen, verhalten Sie sich so, dass eine außenstehende Person nicht sehen kann, welche Emotionen Sie gerade empfinden.",,,,,,,,,0,0,0,2,0,13,13,9,,,,,4.3,,,,,,,,664.0281397759682,6.008337896782905,None,,,,,,,,G14E11,2021_Oct_25_0841,ER,2021.1.4,60.00271407125239,
5,,1,UNTERDRÜCKEN,,Stimuli/9800.jpg,,StimuliNegative.xlsx,25,"Unterdrücken Sie alle aufkommenden Emotionen. Wenn Sie also die Bilder ansehen, verhalten Sie sich so, dass eine außenstehende Person nicht sehen kann, welche Emotionen Sie gerade empfinden.",,,,,,,,,0,0,0,2,0,14,14,19,,,,,5.0,,,,,,,,675.0732685762923,6.001341336639598,None,,,,,,,,G14E11,2021_Oct_25_0841,ER,2021.1.4,60.00271407125239,
5,,1,UNTERDRÜCKEN,,Stimuli/1301.jpg,,StimuliNegative.xlsx,25,"Unterdrücken Sie alle aufkommenden Emotionen. Wenn Sie also die Bilder ansehen, verhalten Sie sich so, dass eine außenstehende Person nicht sehen kann, welche Emotionen Sie gerade empfinden.",,,,,,,,,0,0,0,2,0,15,15,6,,,,,4.8,,,,,,,,685.9377047718735,6.005323963356204,None,,,,,,,,G14E11,2021_Oct_25_0841,ER,2021.1.4,60.00271407125239,
5,,1,UNTERDRÜCKEN,,Stimuli/9140.jpg,,StimuliNegative.xlsx,25,"Unterdrücken Sie alle aufkommenden Emotionen. Wenn Sie also die Bilder ansehen, verhalten Sie sich so, dass eine außenstehende Person nicht sehen kann, welche Emotionen Sie gerade empfinden.",,,,,,,,,0,0,0,2,0,16,16,15,,,,,4.9,,,,,,,,696.8986708859447,6.0009395643137395,None,,,,,,,,G14E11,2021_Oct_25_0841,ER,2021.1.4,60.00271407125239,
5,,1,UNTERDRÜCKEN,,Stimuli/219.jpg,,StimuliNegative.xlsx,25,"Unterdrücken Sie alle aufkommenden Emotionen. Wenn Sie also die Bilder ansehen, verhalten Sie sich so, dass eine außenstehende Person nicht sehen kann, welche Emotionen Sie gerade empfinden.",,,,,,,,,0,0,0,2,0,17,17,1,,,,,3.8,,,,,,,,706.7405912827235,6.016234113601968,None,,,,,,,,G14E11,2021_Oct_25_0841,ER,2021.1.4,60.00271407125239,
5,,1,UNTERDRÜCKEN,,Stimuli/6940.jpg,,StimuliNegative.xlsx,25,"Unterdrücken Sie alle aufkommenden Emotionen. Wenn Sie also die Bilder ansehen, verhalten Sie sich so, dass eine außenstehende Person nicht sehen kann, welche Emotionen Sie gerade empfinden.",,,,,,,,,0,0,0,2,0,18,18,12,,,,,4.2,,,,,,,,717.005422192975,6.003957026754506,None,,,,,,,,G14E11,2021_Oct_25_0841,ER,2021.1.4,60.00271407125239,
5,,1,UNTERDRÜCKEN,,Stimuli/6242.jpg,,StimuliNegative.xlsx,25,"Unterdrücken Sie alle aufkommenden Emotionen. Wenn Sie also die Bilder ansehen, verhalten Sie sich so, dass eine außenstehende Person nicht sehen kann, welche Emotionen Sie gerade empfinden.",,,,,,,,,0,0,0,2,0,19,19,8,,,,,3.3,,,,,,,,726.3654045360163,6.000253690057434,None,,,,,,,,G14E11,2021_Oct_25_0841,ER,2021.1.4,60.00271407125239,
5,,1,UNTERDRÜCKEN,,,,StimuliNegative.xlsx,25,"Unterdrücken Sie alle aufkommenden Emotionen. Wenn Sie also die Bilder ansehen, verhalten Sie sich so, dass eine außenstehende Person nicht sehen kann, welche Emotionen Sie gerade empfinden.",,,,,,,,,0,0,0,2,,,,,,,,,,,,,58.88888888888888,13.619157516630366,34.074074074074076,4.431112775113434,,,,,,,,,,,G14E11,2021_Oct_25_0841,ER,2021.1.4,60.00271407125239,
3,,1,ABLENKEN,,Stimuli/6831.jpg,,StimuliNegative.xlsx,23,"Denken Sie während des Betrachtens der Bilder an etwas Neutrales, das mit dem Bild nichts zu tun hat. Das könnten geometrische Figuren, Alltagstätigkeiten oder bekannte Orte sein.",,,,,,,,,0,1,1,0,0,0,0,12,,,,,4.5,,,,,,,,771.5953678138321,6.0073244837112725,None,,,,,,,,G14E11,2021_Oct_25_0841,ER,2021.1.4,60.00271407125239,
3,,1,ABLENKEN,,Stimuli/223.jpg,,StimuliNegative.xlsx,23,"Denken Sie während des Betrachtens der Bilder an etwas Neutrales, das mit dem Bild nichts zu tun hat. Das könnten geometrische Figuren, Alltagstätigkeiten oder bekannte Orte sein.",,,,,,,,,0,1,1,0,0,1,1,0,,,,,4.6,,,,,,,,782.2431780685438,6.011575429001823,None,,,,,,,,G14E11,2021_Oct_25_0841,ER,2021.1.4,60.00271407125239,
3,,1,ABLENKEN,,Stimuli/6571.jpg,,StimuliNegative.xlsx,23,"Denken Sie während des Betrachtens der Bilder an etwas Neutrales, das mit dem Bild nichts zu tun hat. Das könnten geometrische Figuren, Alltagstätigkeiten oder bekannte Orte sein.",,,,,,,,,0,1,1,0,0,2,2,11,,,,,5.0,,,,,,,,793.3052740787389,6.004802981275134,None,,,,,,,,G14E11,2021_Oct_25_0841,ER,2021.1.4,60.00271407125239,
3,,1,ABLENKEN,,Stimuli/9400.jpg,,StimuliNegative.xlsx,23,"Denken Sie während des Betrachtens der Bilder an etwas Neutrales, das mit dem Bild nichts zu tun hat. Das könnten geometrische Figuren, Alltagstätigkeiten oder bekannte Orte sein.",,,,,,,,,0,1,1,0,0,3,3,15,,,,,4.1,,,,,,,,803.4642811199883,6.002363283070736,None,,,,,,,,G14E11,2021_Oct_25_0841,ER,2021.1.4,60.00271407125239,
3,,1,ABLENKEN,,Stimuli/3016.jpg,,StimuliNegative.xlsx,23,"Denken Sie während des Betrachtens der Bilder an etwas Neutrales, das mit dem Bild nichts zu tun hat. Das könnten geometrische Figuren, Alltagstätigkeiten oder bekannte Orte sein.",,,,,,,,,0,1,1,0,0,4,4,4,,,,,3.1,,,,,,,,812.605389984441,6.003244654042646,None,,,,,,,,G14E11,2021_Oct_25_0841,ER,2021.1.4,60.00271407125239,
3,,1,ABLENKEN,,Stimuli/8231.jpg,,StimuliNegative.xlsx,23,"Denken Sie während des Betrachtens der Bilder an etwas Neutrales, das mit dem Bild nichts zu tun hat. Das könnten geometrische Figuren, Alltagstätigkeiten oder bekannte Orte sein.",,,,,,,,,0,1,1,0,0,5,5,13,,,,,3.3,,,,,,,,821.9577240905492,6.016225451952778,None,,,,,,,,G14E11,2021_Oct_25_0841,ER,2021.1.4,60.00271407125239,
3,,1,ABLENKEN,,Stimuli/3181.jpg,,StimuliNegative.xlsx,23,"Denken Sie während des Betrachtens der Bilder an etwas Neutrales, das mit dem Bild nichts zu tun hat. Das könnten geometrische Figuren, Alltagstätigkeiten oder bekannte Orte sein.",,,,,,,,,0,1,1,0,0,6,6,6,,,,,4.7,,,,,,,,832.7126520080492,6.005124745424837,None,,,,,,,,G14E11,2021_Oct_25_0841,ER,2021.1.4,60.00271407125239,
3,,1,ABLENKEN,,Stimuli/3101.jpg,,StimuliNegative.xlsx,23,"Denken Sie während des Betrachtens der Bilder an etwas Neutrales, das mit dem Bild nichts zu tun hat. Das könnten geometrische Figuren, Alltagstätigkeiten oder bekannte Orte sein.",,,,,,,,,0,1,1,0,0,7,7,5,,,,,4.0,,,,,,,,842.7639575271169,6.004057116806507,None,,,,,,,,G14E11,2021_Oct_25_0841,ER,2021.1.4,60.00271407125239,
3,,1,ABLENKEN,,Stimuli/3215.jpg,,StimuliNegative.xlsx,23,"Denken Sie während des Betrachtens der Bilder an etwas Neutrales, das mit dem Bild nichts zu tun hat. Das könnten geometrische Figuren, Alltagstätigkeiten oder bekannte Orte sein.",,,,,,,,,0,1,1,0,0,8,8,7,,,,,4.4,,,,,,,,853.219815032091,6.007198087754659,None,,,,,,,,G14E11,2021_Oct_25_0841,ER,2021.1.4,60.00271407125239,
3,,1,ABLENKEN,,Stimuli/238.jpg,,StimuliNegative.xlsx,23,"Denken Sie während des Betrachtens der Bilder an etwas Neutrales, das mit dem Bild nichts zu tun hat. Das könnten geometrische Figuren, Alltagstätigkeiten oder bekannte Orte sein.",,,,,,,,,0,1,1,0,0,9,9,1,,,,,4.7,,,,,,,,863.9763280315092,6.010752893052995,None,,,,,,,,G14E11,2021_Oct_25_0841,ER,2021.1.4,60.00271407125239,
3,,1,ABLENKEN,,Stimuli/9403.jpg,,StimuliNegative.xlsx,23,"Denken Sie während des Betrachtens der Bilder an etwas Neutrales, das mit dem Bild nichts zu tun hat. Das könnten geometrische Figuren, Alltagstätigkeiten oder bekannte Orte sein.",,,,,,,,,0,1,1,0,0,10,10,17,,,,,4.0,,,,,,,,874.0472509046085,6.003970692749135,None,,,,,,,,G14E11,2021_Oct_25_0841,ER,2021.1.4,60.00271407125239,
3,,1,ABLENKEN,,Stimuli/6020.jpg,,StimuliNegative.xlsx,23,"Denken Sie während des Betrachtens der Bilder an etwas Neutrales, das mit dem Bild nichts zu tun hat. Das könnten geometrische Figuren, Alltagstätigkeiten oder bekannte Orte sein.",,,,,,,,,0,1,1,0,0,11,11,10,,,,,4.5,,,,,,,,884.5941025712527,6.009617254603654,None,,,,,,,,G14E11,2021_Oct_25_0841,ER,2021.1.4,60.00271407125239,
3,,1,ABLENKEN,,Stimuli/9402.jpg,,StimuliNegative.xlsx,23,"Denken Sie während des Betrachtens der Bilder an etwas Neutrales, das mit dem Bild nichts zu tun hat. Das könnten geometrische Figuren, Alltagstätigkeiten oder bekannte Orte sein.",,,,,,,,,0,1,1,0,0,12,12,16,,,,,4.3,,,,,,,,894.957806536695,6.015195870422758,None,,,,,,,,G14E11,2021_Oct_25_0841,ER,2021.1.4,60.00271407125239,
3,,1,ABLENKEN,,Stimuli/9373.jpg,,StimuliNegative.xlsx,23,"Denken Sie während des Betrachtens der Bilder an etwas Neutrales, das mit dem Bild nichts zu tun hat. Das könnten geometrische Figuren, Alltagstätigkeiten oder bekannte Orte sein.",,,,,,,,,0,1,1,0,0,13,13,14,,,,,3.6,,,,,,,,904.6156052777078,6.0005706425290555,None,,,,,,,,G14E11,2021_Oct_25_0841,ER,2021.1.4,60.00271407125239,
3,,1,ABLENKEN,,Stimuli/9405.jpg,,StimuliNegative.xlsx,23,"Denken Sie während des Betrachtens der Bilder an etwas Neutrales, das mit dem Bild nichts zu tun hat. Das könnten geometrische Figuren, Alltagstätigkeiten oder bekannte Orte sein.",,,,,,,,,0,1,1,0,0,14,14,18,,,,,3.7,,,,,,,,914.3684345094953,6.01162515336182,None,,,,,,,,G14E11,2021_Oct_25_0841,ER,2021.1.4,60.00271407125239,
3,,1,ABLENKEN,,Stimuli/9423.jpg,,StimuliNegative.xlsx,23,"Denken Sie während des Betrachtens der Bilder an etwas Neutrales, das mit dem Bild nichts zu tun hat. Das könnten geometrische Figuren, Alltagstätigkeiten oder bekannte Orte sein.",,,,,,,,,0,1,1,0,0,15,15,19,,,,,4.8,,,,,,,,925.2310370017076,6.00303151330445,None,,,,,,,,G14E11,2021_Oct_25_0841,ER,2021.1.4,60.00271407125239,
3,,1,ABLENKEN,,Stimuli/245.jpg,,StimuliNegative.xlsx,23,"Denken Sie während des Betrachtens der Bilder an etwas Neutrales, das mit dem Bild nichts zu tun hat. Das könnten geometrische Figuren, Alltagstätigkeiten oder bekannte Orte sein.",,,,,,,,,0,1,1,0,0,16,16,2,,,,,3.0,,,,,,,,934.2786738309078,6.006233436637558,None,,,,,,,,G14E11,2021_Oct_25_0841,ER,2021.1.4,60.00271407125239,
3,,1,ABLENKEN,,Stimuli/3220.jpg,,StimuliNegative.xlsx,23,"Denken Sie während des Betrachtens der Bilder an etwas Neutrales, das mit dem Bild nichts zu tun hat. Das könnten geometrische Figuren, Alltagstätigkeiten oder bekannte Orte sein.",,,,,,,,,0,1,1,0,0,17,17,8,,,,,4.4,,,,,,,,944.7467108988203,6.00418242206797,None,,,,,,,,G14E11,2021_Oct_25_0841,ER,2021.1.4,60.00271407125239,
3,,1,ABLENKEN,,Stimuli/3225.jpg,,StimuliNegative.xlsx,23,"Denken Sie während des Betrachtens der Bilder an etwas Neutrales, das mit dem Bild nichts zu tun hat. Das könnten geometrische Figuren, Alltagstätigkeiten oder bekannte Orte sein.",,,,,,,,,0,1,1,0,0,18,18,9,,,,,4.7,,,,,,,,955.4992257447448,5.99782072880771,None,,,,,,,,G14E11,2021_Oct_25_0841,ER,2021.1.4,60.00271407125239,
3,,1,ABLENKEN,,Stimuli/2981.jpg,,StimuliNegative.xlsx,23,"Denken Sie während des Betrachtens der Bilder an etwas Neutrales, das mit dem Bild nichts zu tun hat. Das könnten geometrische Figuren, Alltagstätigkeiten oder bekannte Orte sein.",,,,,,,,,0,1,1,0,0,19,19,3,,,,,5.0,,,,,,,,966.5483222224284,6.000444246339612,None,,,,,,,,G14E11,2021_Oct_25_0841,ER,2021.1.4,60.00271407125239,
3,,1,ABLENKEN,,,,StimuliNegative.xlsx,23,"Denken Sie während des Betrachtens der Bilder an etwas Neutrales, das mit dem Bild nichts zu tun hat. Das könnten geometrische Figuren, Alltagstätigkeiten oder bekannte Orte sein.",,,,,,,,,0,1,1,0,,,,,,,,,,,,,67.4074074074074,14.117578369448893,90.37037037037037,8.048045210074633,,,,,,,,,,,G14E11,2021_Oct_25_0841,ER,2021.1.4,60.00271407125239,
4,,1,DISTANZIEREN,,Stimuli/9905.jpg,,StimuliNegative.xlsx,24,Nehmen Sie die Position eines uninvolvierten Beobachters ein. Denken Sie über das Bild in einer neutralen Weise nach.,,,,,,,,,0,2,2,1,0,0,0,19,,,,,4.4,,,,,,,,1010.2190242555225,6.010276502463967,None,,,,,,,,G14E11,2021_Oct_25_0841,ER,2021.1.4,60.00271407125239,
4,,1,DISTANZIEREN,,Stimuli/9120.jpg,,StimuliNegative.xlsx,24,Nehmen Sie die Position eines uninvolvierten Beobachters ein. Denken Sie über das Bild in einer neutralen Weise nach.,,,,,,,,,0,2,2,1,0,1,1,8,,,,,3.9,,,,,,,,1020.1738434853032,6.016602714778855,None,,,,,,,,G14E11,2021_Oct_25_0841,ER,2021.1.4,60.00271407125239,
4,,1,DISTANZIEREN,,Stimuli/3061.jpg,,StimuliNegative.xlsx,24,Nehmen Sie die Position eines uninvolvierten Beobachters ein. Denken Sie über das Bild in einer neutralen Weise nach.,,,,,,,,,0,2,2,1,0,2,2,4,,,,,3.6,,,,,,,,1029.822810872225,6.016877962742001,None,,,,,,,,G14E11,2021_Oct_25_0841,ER,2021.1.4,60.00271407125239,
4,,1,DISTANZIEREN,,Stimuli/6561.jpg,,StimuliNegative.xlsx,24,Nehmen Sie die Position eines uninvolvierten Beobachters ein. Denken Sie über das Bild in einer neutralen Weise nach.,,,,,,,,,0,2,2,1,0,3,3,6,,,,,4.6,,,,,,,,1040.4877516250126,6.003984294831753,None,,,,,,,,G14E11,2021_Oct_25_0841,ER,2021.1.4,60.00271407125239,
4,,1,DISTANZIEREN,,Stimuli/9420.jpg,,StimuliNegative.xlsx,24,Nehmen Sie die Position eines uninvolvierten Beobachters ein. Denken Sie über das Bild in einer neutralen Weise nach.,,,,,,,,,0,2,2,1,0,4,4,16,,,,,3.6,,,,,,,,1050.1442979556741,6.009229405084625,None,,,,,,,,G14E11,2021_Oct_25_0841,ER,2021.1.4,60.00271407125239,
4,,1,DISTANZIEREN,,Stimuli/9230.jpg,,StimuliNegative.xlsx,24,Nehmen Sie die Position eines uninvolvierten Beobachters ein. Denken Sie über das Bild in einer neutralen Weise nach.,,,,,,,,,0,2,2,1,0,5,5,11,,,,,3.5,,,,,,,,1059.6982438344276,6.00135628611315,None,,,,,,,,G14E11,2021_Oct_25_0841,ER,2021.1.4,60.00271407125239,
4,,1,DISTANZIEREN,,Stimuli/9599.jpg,,StimuliNegative.xlsx,24,Nehmen Sie die Position eines uninvolvierten Beobachters ein. Denken Sie über das Bild in einer neutralen Weise nach.,,,,,,,,,0,2,2,1,0,6,6,18,,,,,4.4,,,,,,,,1070.1512843783712,6.0125792180188,None,,,,,,,,G14E11,2021_Oct_25_0841,ER,2021.1.4,60.00271407125239,
4,,1,DISTANZIEREN,,Stimuli/3230.jpg,,StimuliNegative.xlsx,24,Nehmen Sie die Position eines uninvolvierten Beobachters ein. Denken Sie über das Bild in einer neutralen Weise nach.,,,,,,,,,0,2,2,1,0,7,7,5,,,,,3.2,,,,,,,,1079.4128530544695,6.003976274863817,None,,,,,,,,G14E11,2021_Oct_25_0841,ER,2021.1.4,60.00271407125239,
4,,1,DISTANZIEREN,,Stimuli/2800.jpg,,StimuliNegative.xlsx,24,Nehmen Sie die Position eines uninvolvierten Beobachters ein. Denken Sie über das Bild in einer neutralen Weise nach.,,,,,,,,,0,2,2,1,0,8,8,3,,,,,3.5,,,,,,,,1088.9581751379883,6.01526753755752,None,,,,,,,,G14E11,2021_Oct_25_0841,ER,2021.1.4,60.00271407125239,
4,,1,DISTANZIEREN,,Stimuli/9295.jpg,,StimuliNegative.xlsx,24,Nehmen Sie die Position eines uninvolvierten Beobachters ein. Denken Sie über das Bild in einer neutralen Weise nach.,,,,,,,,,0,2,2,1,0,9,9,13,,,,,3.1,,,,,,,,1098.1199513408355,6.0069449751172215,None,,,,,,,,G14E11,2021_Oct_25_0841,ER,2021.1.4,60.00271407125239,
4,,1,DISTANZIEREN,,Stimuli/9254.jpg,,StimuliNegative.xlsx,24,Nehmen Sie die Position eines uninvolvierten Beobachters ein. Denken Sie über das Bild in einer neutralen Weise nach.,,,,,,,,,0,2,2,1,0,10,10,12,,,,,4.8,,,,,,,,1108.985731696128,6.0096875100862235,None,,,,,,,,G14E11,2021_Oct_25_0841,ER,2021.1.4,60.00271407125239,
4,,1,DISTANZIEREN,,Stimuli/1051.jpg,,StimuliNegative.xlsx,24,Nehmen Sie die Position eines uninvolvierten Beobachters ein. Denken Sie über das Bild in einer neutralen Weise nach.,,,,,,,,,0,2,2,1,0,11,11,2,,,,,4.1,,,,,,,,1119.1528373801848,6.006017857696861,None,,,,,,,,G14E11,2021_Oct_25_0841,ER,2021.1.4,60.00271407125239,
4,,1,DISTANZIEREN,,Stimuli/9185.jpg,,StimuliNegative.xlsx,24,Nehmen Sie die Position eines uninvolvierten Beobachters ein. Denken Sie über das Bild in einer neutralen Weise nach.,,,,,,,,,0,2,2,1,0,12,12,10,,,,,4.6,,,,,,,,1129.8319729731884,6.002198262489401,None,,,,,,,,G14E11,2021_Oct_25_0841,ER,2021.1.4,60.00271407125239,
4,,1,DISTANZIEREN,,Stimuli/6838.jpg,,StimuliNegative.xlsx,24,Nehmen Sie die Position eines uninvolvierten Beobachters ein. Denken Sie über das Bild in einer neutralen Weise nach.,,,,,,,,,0,2,2,1,0,13,13,7,,,,,4.6,,,,,,,,1140.4789966216777,6.005319151328877,None,,,,,,,,G14E11,2021_Oct_25_0841,ER,2021.1.4,60.00271407125239,
4,,1,DISTANZIEREN,,Stimuli/227.jpg,,StimuliNegative.xlsx,24,Nehmen Sie die Position eines uninvolvierten Beobachters ein. Denken Sie über das Bild in einer neutralen Weise nach.,,,,,,,,,0,2,2,1,0,14,14,0,,,,,3.9,,,,,,,,1150.4417884190334,6.012656402774155,None,,,,,,,,G14E11,2021_Oct_25_0841,ER,2021.1.4,60.00271407125239,
4,,1,DISTANZIEREN,,Stimuli/9411.jpg,,StimuliNegative.xlsx,24,Nehmen Sie die Position eines uninvolvierten Beobachters ein. Denken Sie über das Bild in einer neutralen Weise nach.,,,,,,,,,0,2,2,1,0,15,15,15,,,,,4.5,,,,,,,,1161.0121535781072,6.006733117625117,None,,,,,,,,G14E11,2021_Oct_25_0841,ER,2021.1.4,60.00271407125239,
4,,1,DISTANZIEREN,,Stimuli/252.jpg,,StimuliNegative.xlsx,24,Nehmen Sie die Position eines uninvolvierten Beobachters ein. Denken Sie über das Bild in einer neutralen Weise nach.,,,,,,,,,0,2,2,1,0,16,16,1,,,,,3.3,,,,,,,,1170.3620181516744,6.006652403739281,None,,,,,,,,G14E11,2021_Oct_25_0841,ER,2021.1.4,60.00271407125239,
4,,1,DISTANZIEREN,,Stimuli/9181.jpg,,StimuliNegative.xlsx,24,Nehmen Sie die Position eines uninvolvierten Beobachters ein. Denken Sie über das Bild in einer neutralen Weise nach.,,,,,,,,,0,2,2,1,0,17,17,9,,,,,3.5,,,,,,,,1179.9253314444795,6.014193685376085,None,,,,,,,,G14E11,2021_Oct_25_0841,ER,2021.1.4,60.00271407125239,
4,,1,DISTANZIEREN,,Stimuli/9332.jpg,,StimuliNegative.xlsx,24,Nehmen Sie die Position eines uninvolvierten Beobachters ein. Denken Sie über das Bild in einer neutralen Weise nach.,,,,,,,,,0,2,2,1,0,18,18,14,,,,,4.2,,,,,,,,1190.1829581074417,6.013743728632107,None,,,,,,,,G14E11,2021_Oct_25_0841,ER,2021.1.4,60.00271407125239,
4,,1,DISTANZIEREN,,Stimuli/9421.jpg,,StimuliNegative.xlsx,24,Nehmen Sie die Position eines uninvolvierten Beobachters ein. Denken Sie über das Bild in einer neutralen Weise nach.,,,,,,,,,0,2,2,1,0,19,19,17,,,,,4.8,,,,,,,,1201.0541696381988,6.005398710258305,None,,,,,,,,G14E11,2021_Oct_25_0841,ER,2021.1.4,60.00271407125239,
4,,1,DISTANZIEREN,,,,StimuliNegative.xlsx,24,Nehmen Sie die Position eines uninvolvierten Beobachters ein. Denken Sie über das Bild in einer neutralen Weise nach.,,,,,,,,,0,2,2,1,,,,,,,,,,,,,54.44444444444445,5.202781416126527,78.51851851851852,3.3471759331878275,,,,,,,,,,,G14E11,2021_Oct_25_0841,ER,2021.1.4,60.00271407125239,
,,,,,,,,,,,,,,,,,,,,,,,,,,,,,,,,,,,,,,,,,2,21.437353333458304,,,,,,G14E11,2021_Oct_25_0841,ER,2021.1.4,60.00271407125239,
,,,,,,,,,,,,,,,,,,,,,,,,,,,,,,,,,,,,,,,,,,,space,8.298251726082526,,,,G14E11,2021_Oct_25_0841,ER,2021.1.4,60.00271407125239,
,,,,,Stimuli/6190.jpg,,,,,,,,,,,,,,,,,,,,,0,0,0,9,3.1,,,,,,,,,,,,,,,1346.8880382293137,6.005526389461011,None,G14E11,2021_Oct_25_0841,ER,2021.1.4,60.00271407125239,
,,,,,Stimuli/9425.jpg,,,,,,,,,,,,,,,,,,,,,0,1,1,18,4.7,,,,,,,,,,,,,,,1357.6510150652612,6.011959108058363,None,G14E11,2021_Oct_25_0841,ER,2021.1.4,60.00271407125239,
,,,,,Stimuli/230.jpg,,,,,,,,,,,,,,,,,,,,,0,2,2,1,3.2,,,,,,,,,,,,,,,1366.9125333754346,6.004585798364133,None,G14E11,2021_Oct_25_0841,ER,2021.1.4,60.00271407125239,
,,,,,Stimuli/9300.jpg,,,,,,,,,,,,,,,,,,,,,0,3,3,15,4.8,,,,,,,,,,,,,,,1377.7637201338075,6.002886190195568,None,G14E11,2021_Oct_25_0841,ER,2021.1.4,60.00271407125239,
,,,,,Stimuli/3022.jpg,,,,,,,,,,,,,,,,,,,,,0,4,4,6,4.3,,,,,,,,,,,,,,,1388.1113734201062,6.0083147989353165,None,G14E11,2021_Oct_25_0841,ER,2021.1.4,60.00271407125239,
,,,,,Stimuli/9424.jpg,,,,,,,,,,,,,,,,,,,,,0,5,5,17,4.6,,,,,,,,,,,,,,,1398.7569091897458,6.016980298561975,None,G14E11,2021_Oct_25_0841,ER,2021.1.4,60.00271407125239,
,,,,,Stimuli/9920.jpg,,,,,,,,,,,,,,,,,,,,,0,6,6,19,4.1,,,,,,,,,,,,,,,1408.916252752184,6.015770875615999,None,G14E11,2021_Oct_25_0841,ER,2021.1.4,60.00271407125239,
,,,,,Stimuli/3280.jpg,,,,,,,,,,,,,,,,,,,,,0,7,7,8,3.7,,,,,,,,,,,,,,,1418.671883546398,6.001917817629874,None,G14E11,2021_Oct_25_0841,ER,2021.1.4,60.00271407125239,
,,,,,Stimuli/6836.jpg,,,,,,,,,,,,,,,,,,,,,0,8,8,11,4.4,,,,,,,,,,,,,,,1429.1222444324521,6.001138910651207,None,G14E11,2021_Oct_25_0841,ER,2021.1.4,60.00271407125239,
,,,,,Stimuli/327.jpg,,,,,,,,,,,,,,,,,,,,,0,9,9,3,4.0,,,,,,,,,,,,,,,1439.1828236915171,6.012714917189442,None,G14E11,2021_Oct_25_0841,ER,2021.1.4,60.00271407125239,
,,,,,Stimuli/9182.jpg,,,,,,,,,,,,,,,,,,,,,0,10,10,13,3.8,,,,,,,,,,,,,,,1449.0504752839915,6.013122656499036,None,G14E11,2021_Oct_25_0841,ER,2021.1.4,60.00271407125239,
,,,,,Stimuli/3017.jpg,,,,,,,,,,,,,,,,,,,,,0,11,11,5,3.8,,,,,,,,,,,,,,,1458.917573172599,6.009769314550795,None,G14E11,2021_Oct_25_0841,ER,2021.1.4,60.00271407125239,
,,,,,Stimuli/9326.jpg,,,,,,,,,,,,,,,,,,,,,0,12,12,16,4.9,,,,,,,,,,,,,,,1469.8847811281448,6.010800051037222,None,G14E11,2021_Oct_25_0841,ER,2021.1.4,60.00271407125239,
,,,,,Stimuli/6244.jpg,,,,,,,,,,,,,,,,,,,,,0,13,13,10,4.5,,,,,,,,,,,,,,,1480.4381595085142,6.002612225245684,None,G14E11,2021_Oct_25_0841,ER,2021.1.4,60.00271407125239,
,,,,,Stimuli/1111.jpg,,,,,,,,,,,,,,,,,,,,,0,14,14,4,4.9,,,,,,,,,,,,,,,1491.4056661307113,6.001953619183041,None,G14E11,2021_Oct_25_0841,ER,2021.1.4,60.00271407125239,
,,,,,Stimuli/225.jpg,,,,,,,,,,,,,,,,,,,,,0,15,15,0,3.0,,,,,,,,,,,,,,,1500.4565193192102,6.001253436901607,None,G14E11,2021_Oct_25_0841,ER,2021.1.4,60.00271407125239,
,,,,,Stimuli/255.jpg,,,,,,,,,,,,,,,,,,,,,0,16,16,2,4.2,,,,,,,,,,,,,,,1510.7009424197022,6.009961282368749,None,G14E11,2021_Oct_25_0841,ER,2021.1.4,60.00271407125239,
,,,,,Stimuli/3180.jpg,,,,,,,,,,,,,,,,,,,,,0,17,17,7,4.1,,,,,,,,,,,,,,,1520.8680330259958,6.010087550035678,None,G14E11,2021_Oct_25_0841,ER,2021.1.4,60.00271407125239,
,,,,,Stimuli/9180.jpg,,,,,,,,,,,,,,,,,,,,,0,18,18,12,3.7,,,,,,,,,,,,,,,1530.6228685524547,6.016708579380065,None,G14E11,2021_Oct_25_0841,ER,2021.1.4,60.00271407125239,
,,,,,Stimuli/9253.jpg,,,,,,,,,,,,,,,,,,,,,0,19,19,14,4.9,,,,,,,,,,,,,,,1541.5917074646568,6.013622337253764,None,G14E11,2021_Oct_25_0841,ER,2021.1.4,60.00271407125239,
,,,,,,,,,,,,,,,,,,,,,,,,,,,,,,,,,,51.85185185185186,7.035898047848605,77.40740740740742,3.631045149988495,,,,,,,,,,,G14E11,2021_Oct_25_0841,ER,2021.1.4,60.00271407125239,
