Block,conds_view_File,n_reps,instr_1,TriggerBlockView,ImageFile,Trigger,conds_reg_File,TriggerBlockReg,instr_2,blocks_view.thisRepN,blocks_view.thisTrialN,blocks_view.thisN,blocks_view.thisIndex,trials_view.thisRepN,trials_view.thisTrialN,trials_view.thisN,trials_view.thisIndex,blocks_reg.thisRepN,blocks_reg.thisTrialN,blocks_reg.thisN,blocks_reg.thisIndex,trials_reg.thisRepN,trials_reg.thisTrialN,trials_reg.thisN,trials_reg.thisIndex,trials_choice.thisRepN,trials_choice.thisTrialN,trials_choice.thisN,trials_choice.thisIndex,Fix_jitter,image_view.started,image_view.lasted,image_view.stopped,slider_arousal.response,slider_arousal.rt,slider_effort.response,slider_effort.rt,image_reg.started,image_reg.lasted,image_reg.stopped,resp_choice.keys,resp_choice.rt,key_resp.keys,key_resp.rt,image.started,image.lased,image.stopped,participant,date,expName,psychopyVersion,frameRate,
,,,,,,,,,,,,,,,,,,,,,,,,,,,,,,,,,,,,,,,,,,,,,,,,G24T03,2021_Oct_26_1026,ER,2021.1.4,60.02374230302844,
1,StimuliNeutral.xlsx,1,ANSCHAUEN,21,Stimuli/083.jpg,1,,,,0,0,0,0,0,0,0,0,,,,,,,,,,,,,3.2,85.52395283058286,6.0188563477713615,None,,,,,,,,,,,,,,,G24T03,2021_Oct_26_1026,ER,2021.1.4,60.02374230302844,
1,StimuliNeutral.xlsx,1,ANSCHAUEN,21,Stimuli/7009.jpg,1,,,,0,0,0,0,0,1,1,9,,,,,,,,,,,,,3.2,94.78148421552032,6.008354257675819,None,,,,,,,,,,,,,,,G24T03,2021_Oct_26_1026,ER,2021.1.4,60.02374230302844,
1,StimuliNeutral.xlsx,1,ANSCHAUEN,21,Stimuli/7041.jpg,1,,,,0,0,0,0,0,2,2,12,,,,,,,,,,,,,4.0,104.84737723635044,6.008984633372165,None,,,,,,,,,,,,,,,G24T03,2021_Oct_26_1026,ER,2021.1.4,60.02374230302844,
1,StimuliNeutral.xlsx,1,ANSCHAUEN,21,Stimuli/7100.jpg,1,,,,0,0,0,0,0,3,3,13,,,,,,,,,,,,,3.1,114.00023129815236,6.003889465937391,None,,,,,,,,,,,,,,,G24T03,2021_Oct_26_1026,ER,2021.1.4,60.02374230302844,
1,StimuliNeutral.xlsx,1,ANSCHAUEN,21,Stimuli/7235.jpg,1,,,,0,0,0,0,0,4,4,19,,,,,,,,,,,,,4.5,124.55566248961259,6.008720934158191,None,,,,,,,,,,,,,,,G24T03,2021_Oct_26_1026,ER,2021.1.4,60.02374230302844,
1,StimuliNeutral.xlsx,1,ANSCHAUEN,21,Stimuli/7002.jpg,1,,,,0,0,0,0,0,5,5,6,,,,,,,,,,,,,4.3,134.894106196356,6.016199146048166,None,,,,,,,,,,,,,,,G24T03,2021_Oct_26_1026,ER,2021.1.4,60.02374230302844,
1,StimuliNeutral.xlsx,1,ANSCHAUEN,21,Stimuli/7025.jpg,1,,,,0,0,0,0,0,6,6,11,,,,,,,,,,,,,3.3,144.23278184293304,6.003882408258505,None,,,,,,,,,,,,,,,G24T03,2021_Oct_26_1026,ER,2021.1.4,60.02374230302844,
1,StimuliNeutral.xlsx,1,ANSCHAUEN,21,Stimuli/124.jpg,1,,,,0,0,0,0,0,7,7,2,,,,,,,,,,,,,4.9,155.1819017069647,6.0070697671035305,None,,,,,,,,,,,,,,,G24T03,2021_Oct_26_1026,ER,2021.1.4,60.02374230302844,
1,StimuliNeutral.xlsx,1,ANSCHAUEN,21,Stimuli/107.jpg,1,,,,0,0,0,0,0,8,8,1,,,,,,,,,,,,,4.1,165.3256164449267,6.001876755035482,None,,,,,,,,,,,,,,,G24T03,2021_Oct_26_1026,ER,2021.1.4,60.02374230302844,
1,StimuliNeutral.xlsx,1,ANSCHAUEN,21,Stimuli/140.jpg,1,,,,0,0,0,0,0,9,9,3,,,,,,,,,,,,,3.0,174.37576579418965,6.002270571538247,None,,,,,,,,,,,,,,,G24T03,2021_Oct_26_1026,ER,2021.1.4,60.02374230302844,
1,StimuliNeutral.xlsx,1,ANSCHAUEN,21,Stimuli/7004.jpg,1,,,,0,0,0,0,0,10,10,7,,,,,,,,,,,,,3.8,184.2370991942007,6.014141715480946,None,,,,,,,,,,,,,,,G24T03,2021_Oct_26_1026,ER,2021.1.4,60.02374230302844,
1,StimuliNeutral.xlsx,1,ANSCHAUEN,21,Stimuli/7233.jpg,1,,,,0,0,0,0,0,11,11,18,,,,,,,,,,,,,3.8,194.07245021080598,6.009839249425568,None,,,,,,,,,,,,,,,G24T03,2021_Oct_26_1026,ER,2021.1.4,60.02374230302844,
1,StimuliNeutral.xlsx,1,ANSCHAUEN,21,Stimuli/7006.jpg,1,,,,0,0,0,0,0,12,12,8,,,,,,,,,,,,,4.1,204.2218203644734,6.011046105879359,None,,,,,,,,,,,,,,,G24T03,2021_Oct_26_1026,ER,2021.1.4,60.02374230302844,
1,StimuliNeutral.xlsx,1,ANSCHAUEN,21,Stimuli/7021.jpg,1,,,,0,0,0,0,0,13,13,10,,,,,,,,,,,,,3.5,213.76276478590444,6.01112085278146,None,,,,,,,,,,,,,,,G24T03,2021_Oct_26_1026,ER,2021.1.4,60.02374230302844,
1,StimuliNeutral.xlsx,1,ANSCHAUEN,21,Stimuli/7000.jpg,1,,,,0,0,0,0,0,14,14,5,,,,,,,,,,,,,4.3,224.1204367140308,6.012273493921384,None,,,,,,,,,,,,,,,G24T03,2021_Oct_26_1026,ER,2021.1.4,60.02374230302844,
1,StimuliNeutral.xlsx,1,ANSCHAUEN,21,Stimuli/143.jpg,1,,,,0,0,0,0,0,15,15,4,,,,,,,,,,,,,4.7,234.86804617883172,6.016120549640618,None,,,,,,,,,,,,,,,G24T03,2021_Oct_26_1026,ER,2021.1.4,60.02374230302844,
1,StimuliNeutral.xlsx,1,ANSCHAUEN,21,Stimuli/7150.jpg,1,,,,0,0,0,0,0,16,16,14,,,,,,,,,,,,,3.1,244.01255329721607,6.011058617150411,None,,,,,,,,,,,,,,,G24T03,2021_Oct_26_1026,ER,2021.1.4,60.02374230302844,
1,StimuliNeutral.xlsx,1,ANSCHAUEN,21,Stimuli/7224.jpg,1,,,,0,0,0,0,0,17,17,17,,,,,,,,,,,,,4.6,254.6736024026759,6.007206428679638,None,,,,,,,,,,,,,,,G24T03,2021_Oct_26_1026,ER,2021.1.4,60.02374230302844,
1,StimuliNeutral.xlsx,1,ANSCHAUEN,21,Stimuli/7185.jpg,1,,,,0,0,0,0,0,18,18,15,,,,,,,,,,,,,4.3,265.02121013519354,6.010992852970958,None,,,,,,,,,,,,,,,G24T03,2021_Oct_26_1026,ER,2021.1.4,60.02374230302844,
1,StimuliNeutral.xlsx,1,ANSCHAUEN,21,Stimuli/7211.jpg,1,,,,0,0,0,0,0,19,19,16,,,,,,,,,,,,,3.3,274.37250805133954,6.009722156799398,None,,,,,,,,,,,,,,,G24T03,2021_Oct_26_1026,ER,2021.1.4,60.02374230302844,
1,StimuliNeutral.xlsx,1,ANSCHAUEN,21,,,,,,0,0,0,0,,,,,,,,,,,,,,,,,,,,,12.222222222222223,7.085900149075314,23.703703703703695,6.313462866703048,,,,,,,,,,,G24T03,2021_Oct_26_1026,ER,2021.1.4,60.02374230302844,
2,StimuliNegative.xlsx,1,ANSCHAUEN,22,Stimuli/6190.jpg,,,,,0,1,1,1,0,0,0,9,,,,,,,,,,,,,3.8,306.6048000297742,6.010643178946339,None,,,,,,,,,,,,,,,G24T03,2021_Oct_26_1026,ER,2021.1.4,60.02374230302844,
2,StimuliNegative.xlsx,1,ANSCHAUEN,22,Stimuli/3022.jpg,,,,,0,1,1,1,0,1,1,6,,,,,,,,,,,,,3.9,316.54408635478467,6.015864229178987,None,,,,,,,,,,,,,,,G24T03,2021_Oct_26_1026,ER,2021.1.4,60.02374230302844,
2,StimuliNegative.xlsx,1,ANSCHAUEN,22,Stimuli/6836.jpg,,,,,0,1,1,1,0,2,2,11,,,,,,,,,,,,,4.7,327.28796649805736,6.0100249936804175,None,,,,,,,,,,,,,,,G24T03,2021_Oct_26_1026,ER,2021.1.4,60.02374230302844,
2,StimuliNegative.xlsx,1,ANSCHAUEN,22,Stimuli/3180.jpg,,,,,0,1,1,1,0,3,3,7,,,,,,,,,,,,,3.5,336.82136854715645,6.010733324103057,None,,,,,,,,,,,,,,,G24T03,2021_Oct_26_1026,ER,2021.1.4,60.02374230302844,
2,StimuliNegative.xlsx,1,ANSCHAUEN,22,Stimuli/9180.jpg,,,,,0,1,1,1,0,4,4,12,,,,,,,,,,,,,4.8,347.6754742815392,6.002452145214193,None,,,,,,,,,,,,,,,G24T03,2021_Oct_26_1026,ER,2021.1.4,60.02374230302844,
2,StimuliNegative.xlsx,1,ANSCHAUEN,22,Stimuli/6244.jpg,,,,,0,1,1,1,0,5,5,10,,,,,,,,,,,,,3.9,357.60438362904824,6.010673654964194,None,,,,,,,,,,,,,,,G24T03,2021_Oct_26_1026,ER,2021.1.4,60.02374230302844,
2,StimuliNegative.xlsx,1,ANSCHAUEN,22,Stimuli/3280.jpg,,,,,0,1,1,1,0,6,6,8,,,,,,,,,,,,,3.6,367.23918697272893,6.0080158116761595,None,,,,,,,,,,,,,,,G24T03,2021_Oct_26_1026,ER,2021.1.4,60.02374230302844,
2,StimuliNegative.xlsx,1,ANSCHAUEN,22,Stimuli/9326.jpg,,,,,0,1,1,1,0,7,7,16,,,,,,,,,,,,,3.8,377.0755026404513,6.003503091982566,None,,,,,,,,,,,,,,,G24T03,2021_Oct_26_1026,ER,2021.1.4,60.02374230302844,
2,StimuliNegative.xlsx,1,ANSCHAUEN,22,Stimuli/3017.jpg,,,,,0,1,1,1,0,8,8,5,,,,,,,,,,,,,4.2,387.3249851068249,6.001607794780284,None,,,,,,,,,,,,,,,G24T03,2021_Oct_26_1026,ER,2021.1.4,60.02374230302844,
2,StimuliNegative.xlsx,1,ANSCHAUEN,22,Stimuli/327.jpg,,,,,0,1,1,1,0,9,9,3,,,,,,,,,,,,,4.8,398.15149225795176,6.01643333141692,None,,,,,,,,,,,,,,,G24T03,2021_Oct_26_1026,ER,2021.1.4,60.02374230302844,
2,StimuliNegative.xlsx,1,ANSCHAUEN,22,Stimuli/9253.jpg,,,,,0,1,1,1,0,10,10,14,,,,,,,,,,,,,4.8,409.01439373753965,6.009954417357221,None,,,,,,,,,,,,,,,G24T03,2021_Oct_26_1026,ER,2021.1.4,60.02374230302844,
2,StimuliNegative.xlsx,1,ANSCHAUEN,22,Stimuli/9182.jpg,,,,,0,1,1,1,0,11,11,13,,,,,,,,,,,,,5.0,420.05631836899556,6.010182186611928,None,,,,,,,,,,,,,,,G24T03,2021_Oct_26_1026,ER,2021.1.4,60.02374230302844,
2,StimuliNegative.xlsx,1,ANSCHAUEN,22,Stimuli/255.jpg,,,,,0,1,1,1,0,12,12,2,,,,,,,,,,,,,4.1,430.1934887490934,5.999230139888823,None,,,,,,,,,,,,,,,G24T03,2021_Oct_26_1026,ER,2021.1.4,60.02374230302844,
2,StimuliNegative.xlsx,1,ANSCHAUEN,22,Stimuli/9300.jpg,,,,,0,1,1,1,0,13,13,15,,,,,,,,,,,,,4.8,441.0529287765967,6.0149357001064345,None,,,,,,,,,,,,,,,G24T03,2021_Oct_26_1026,ER,2021.1.4,60.02374230302844,
2,StimuliNegative.xlsx,1,ANSCHAUEN,22,Stimuli/230.jpg,,,,,0,1,1,1,0,14,14,1,,,,,,,,,,,,,4.2,451.3060337374918,6.006808313541114,None,,,,,,,,,,,,,,,G24T03,2021_Oct_26_1026,ER,2021.1.4,60.02374230302844,
2,StimuliNegative.xlsx,1,ANSCHAUEN,22,Stimuli/225.jpg,,,,,0,1,1,1,0,15,15,0,,,,,,,,,,,,,3.3,460.6288470157888,6.011407778016292,None,,,,,,,,,,,,,,,G24T03,2021_Oct_26_1026,ER,2021.1.4,60.02374230302844,
2,StimuliNegative.xlsx,1,ANSCHAUEN,22,Stimuli/9920.jpg,,,,,0,1,1,1,0,16,16,19,,,,,,,,,,,,,3.7,470.37953874468803,6.012668721843511,None,,,,,,,,,,,,,,,G24T03,2021_Oct_26_1026,ER,2021.1.4,60.02374230302844,
2,StimuliNegative.xlsx,1,ANSCHAUEN,22,Stimuli/1111.jpg,,,,,0,1,1,1,0,17,17,4,,,,,,,,,,,,,4.7,481.1395176872611,6.009227801114321,None,,,,,,,,,,,,,,,G24T03,2021_Oct_26_1026,ER,2021.1.4,60.02374230302844,
2,StimuliNegative.xlsx,1,ANSCHAUEN,22,Stimuli/9425.jpg,,,,,0,1,1,1,0,18,18,18,,,,,,,,,,,,,3.1,490.28634291992057,6.013861334766261,None,,,,,,,,,,,,,,,G24T03,2021_Oct_26_1026,ER,2021.1.4,60.02374230302844,
2,StimuliNegative.xlsx,1,ANSCHAUEN,22,Stimuli/9424.jpg,,,,,0,1,1,1,0,19,19,17,,,,,,,,,,,,,3.8,500.1212056761142,6.010823469492607,None,,,,,,,,,,,,,,,G24T03,2021_Oct_26_1026,ER,2021.1.4,60.02374230302844,
2,StimuliNegative.xlsx,1,ANSCHAUEN,22,,,,,,0,1,1,1,,,,,,,,,,,,,,,,,,,,,118.14814814814815,7.4873612091178074,60.37037037037037,6.264907261007465,,,,,,,,,,,G24T03,2021_Oct_26_1026,ER,2021.1.4,60.02374230302844,
3,,1,ABLENKEN,,Stimuli/228.jpg,,StimuliNegative.xlsx,23,"Denken Sie während des Betrachtens der Bilder an etwas Neutrales, das mit dem Bild nichts zu tun hat. Das könnten geometrische Figuren, Alltagstätigkeiten oder bekannte Orte sein.",,,,,,,,,0,0,0,0,0,0,0,3,,,,,4.5,,,,,,,,538.7066244620364,6.00707329576835,None,,,,,,,,G24T03,2021_Oct_26_1026,ER,2021.1.4,60.02374230302844,
3,,1,ABLENKEN,,Stimuli/2703.jpg,,StimuliNegative.xlsx,23,"Denken Sie während des Betrachtens der Bilder an etwas Neutrales, das mit dem Bild nichts zu tun hat. Das könnten geometrische Figuren, Alltagstätigkeiten oder bekannte Orte sein.",,,,,,,,,0,0,0,0,0,1,1,6,,,,,4.4,,,,,,,,549.1729619217804,6.007785989204422,None,,,,,,,,G24T03,2021_Oct_26_1026,ER,2021.1.4,60.02374230302844,
3,,1,ABLENKEN,,Stimuli/3051.jpg,,StimuliNegative.xlsx,23,"Denken Sie während des Betrachtens der Bilder an etwas Neutrales, das mit dem Bild nichts zu tun hat. Das könnten geometrische Figuren, Alltagstätigkeiten oder bekannte Orte sein.",,,,,,,,,0,0,0,0,0,2,2,7,,,,,3.4,,,,,,,,558.6079480584012,6.005180564941838,None,,,,,,,,G24T03,2021_Oct_26_1026,ER,2021.1.4,60.02374230302844,
3,,1,ABLENKEN,,Stimuli/9904.jpg,,StimuliNegative.xlsx,23,"Denken Sie während des Betrachtens der Bilder an etwas Neutrales, das mit dem Bild nichts zu tun hat. Das könnten geometrische Figuren, Alltagstätigkeiten oder bekannte Orte sein.",,,,,,,,,0,0,0,0,0,3,3,19,,,,,4.4,,,,,,,,569.0544073523488,6.0113823062274605,None,,,,,,,,G24T03,2021_Oct_26_1026,ER,2021.1.4,60.02374230302844,
3,,1,ABLENKEN,,Stimuli/3185.jpg,,StimuliNegative.xlsx,23,"Denken Sie während des Betrachtens der Bilder an etwas Neutrales, das mit dem Bild nichts zu tun hat. Das könnten geometrische Figuren, Alltagstätigkeiten oder bekannte Orte sein.",,,,,,,,,0,0,0,0,0,4,4,9,,,,,3.2,,,,,,,,578.3030044055777,6.014145693508908,None,,,,,,,,G24T03,2021_Oct_26_1026,ER,2021.1.4,60.02374230302844,
3,,1,ABLENKEN,,Stimuli/3301.jpg,,StimuliNegative.xlsx,23,"Denken Sie während des Betrachtens der Bilder an etwas Neutrales, das mit dem Bild nichts zu tun hat. Das könnten geometrische Figuren, Alltagstätigkeiten oder bekannte Orte sein.",,,,,,,,,0,0,0,0,0,5,5,10,,,,,3.2,,,,,,,,587.552013047738,6.015804880764335,None,,,,,,,,G24T03,2021_Oct_26_1026,ER,2021.1.4,60.02374230302844,
3,,1,ABLENKEN,,Stimuli/9145.jpg,,StimuliNegative.xlsx,23,"Denken Sie während des Betrachtens der Bilder an etwas Neutrales, das mit dem Bild nichts zu tun hat. Das könnten geometrische Figuren, Alltagstätigkeiten oder bekannte Orte sein.",,,,,,,,,0,0,0,0,0,6,6,16,,,,,4.4,,,,,,,,598.0095278150402,6.00129372975789,None,,,,,,,,G24T03,2021_Oct_26_1026,ER,2021.1.4,60.02374230302844,
3,,1,ABLENKEN,,Stimuli/9043.jpg,,StimuliNegative.xlsx,23,"Denken Sie während des Betrachtens der Bilder an etwas Neutrales, das mit dem Bild nichts zu tun hat. Das könnten geometrische Figuren, Alltagstätigkeiten oder bekannte Orte sein.",,,,,,,,,0,0,0,0,0,7,7,15,,,,,3.2,,,,,,,,607.2597330480348,6.001553900074214,None,,,,,,,,G24T03,2021_Oct_26_1026,ER,2021.1.4,60.02374230302844,
3,,1,ABLENKEN,,Stimuli/3160.jpg,,StimuliNegative.xlsx,23,"Denken Sie während des Betrachtens der Bilder an etwas Neutrales, das mit dem Bild nichts zu tun hat. Das könnten geometrische Figuren, Alltagstätigkeiten oder bekannte Orte sein.",,,,,,,,,0,0,0,0,0,8,8,8,,,,,3.1,,,,,,,,616.4014065236552,6.016151025891304,None,,,,,,,,G24T03,2021_Oct_26_1026,ER,2021.1.4,60.02374230302844,
3,,1,ABLENKEN,,Stimuli/9040.jpg,,StimuliNegative.xlsx,23,"Denken Sie während des Betrachtens der Bilder an etwas Neutrales, das mit dem Bild nichts zu tun hat. Das könnten geometrische Figuren, Alltagstätigkeiten oder bekannte Orte sein.",,,,,,,,,0,0,0,0,0,9,9,13,,,,,3.1,,,,,,,,625.5390565025155,6.0095887031638995,None,,,,,,,,G24T03,2021_Oct_26_1026,ER,2021.1.4,60.02374230302844,
3,,1,ABLENKEN,,Stimuli/222.jpg,,StimuliNegative.xlsx,23,"Denken Sie während des Betrachtens der Bilder an etwas Neutrales, das mit dem Bild nichts zu tun hat. Das könnten geometrische Figuren, Alltagstätigkeiten oder bekannte Orte sein.",,,,,,,,,0,0,0,0,0,10,10,2,,,,,3.9,,,,,,,,635.4718058481812,6.009212081786245,None,,,,,,,,G24T03,2021_Oct_26_1026,ER,2021.1.4,60.02374230302844,
3,,1,ABLENKEN,,Stimuli/9160.jpg,,StimuliNegative.xlsx,23,"Denken Sie während des Betrachtens der Bilder an etwas Neutrales, das mit dem Bild nichts zu tun hat. Das könnten geometrische Figuren, Alltagstätigkeiten oder bekannte Orte sein.",,,,,,,,,0,0,0,0,0,11,11,17,,,,,4.0,,,,,,,,645.5322070622351,6.005399030982517,None,,,,,,,,G24T03,2021_Oct_26_1026,ER,2021.1.4,60.02374230302844,
3,,1,ABLENKEN,,Stimuli/210.jpg,,StimuliNegative.xlsx,23,"Denken Sie während des Betrachtens der Bilder an etwas Neutrales, das mit dem Bild nichts zu tun hat. Das könnten geometrische Figuren, Alltagstätigkeiten oder bekannte Orte sein.",,,,,,,,,0,0,0,0,0,12,12,0,,,,,3.7,,,,,,,,655.2667085634312,6.001686519477516,None,,,,,,,,G24T03,2021_Oct_26_1026,ER,2021.1.4,60.02374230302844,
3,,1,ABLENKEN,,Stimuli/6562.jpg,,StimuliNegative.xlsx,23,"Denken Sie während des Betrachtens der Bilder an etwas Neutrales, das mit dem Bild nichts zu tun hat. Das könnten geometrische Figuren, Alltagstätigkeiten oder bekannte Orte sein.",,,,,,,,,0,0,0,0,0,13,13,11,,,,,4.9,,,,,,,,666.2259134752676,6.0019539397908375,None,,,,,,,,G24T03,2021_Oct_26_1026,ER,2021.1.4,60.02374230302844,
3,,1,ABLENKEN,,Stimuli/218.jpg,,StimuliNegative.xlsx,23,"Denken Sie während des Betrachtens der Bilder an etwas Neutrales, das mit dem Bild nichts zu tun hat. Das könnten geometrische Figuren, Alltagstätigkeiten oder bekannte Orte sein.",,,,,,,,,0,0,0,0,0,14,14,1,,,,,4.4,,,,,,,,676.6686870767735,6.016279025818221,None,,,,,,,,G24T03,2021_Oct_26_1026,ER,2021.1.4,60.02374230302844,
3,,1,ABLENKEN,,Stimuli/251.jpg,,StimuliNegative.xlsx,23,"Denken Sie während des Betrachtens der Bilder an etwas Neutrales, das mit dem Bild nichts zu tun hat. Das könnten geometrische Figuren, Alltagstätigkeiten oder bekannte Orte sein.",,,,,,,,,0,0,0,0,0,15,15,5,,,,,3.1,,,,,,,,685.8042165554361,6.0105655449442565,None,,,,,,,,G24T03,2021_Oct_26_1026,ER,2021.1.4,60.02374230302844,
3,,1,ABLENKEN,,Stimuli/9031.jpg,,StimuliNegative.xlsx,23,"Denken Sie während des Betrachtens der Bilder an etwas Neutrales, das mit dem Bild nichts zu tun hat. Das könnten geometrische Figuren, Alltagstätigkeiten oder bekannte Orte sein.",,,,,,,,,0,0,0,0,0,16,16,12,,,,,4.9,,,,,,,,696.7698772837175,6.013650888693519,None,,,,,,,,G24T03,2021_Oct_26_1026,ER,2021.1.4,60.02374230302844,
3,,1,ABLENKEN,,Stimuli/9184.jpg,,StimuliNegative.xlsx,23,"Denken Sie während des Betrachtens der Bilder an etwas Neutrales, das mit dem Bild nichts zu tun hat. Das könnten geometrische Figuren, Alltagstätigkeiten oder bekannte Orte sein.",,,,,,,,,0,0,0,0,0,17,17,18,,,,,4.2,,,,,,,,707.0269913054071,5.9986907434649765,None,,,,,,,,G24T03,2021_Oct_26_1026,ER,2021.1.4,60.02374230302844,
3,,1,ABLENKEN,,Stimuli/246.jpg,,StimuliNegative.xlsx,23,"Denken Sie während des Betrachtens der Bilder an etwas Neutrales, das mit dem Bild nichts zu tun hat. Das könnten geometrische Figuren, Alltagstätigkeiten oder bekannte Orte sein.",,,,,,,,,0,0,0,0,0,18,18,4,,,,,4.6,,,,,,,,717.6501351057086,6.002177667221986,None,,,,,,,,G24T03,2021_Oct_26_1026,ER,2021.1.4,60.02374230302844,
3,,1,ABLENKEN,,Stimuli/9042.jpg,,StimuliNegative.xlsx,23,"Denken Sie während des Betrachtens der Bilder an etwas Neutrales, das mit dem Bild nichts zu tun hat. Das könnten geometrische Figuren, Alltagstätigkeiten oder bekannte Orte sein.",,,,,,,,,0,0,0,0,0,19,19,14,,,,,3.1,,,,,,,,726.8079824483721,6.004951191600412,None,,,,,,,,G24T03,2021_Oct_26_1026,ER,2021.1.4,60.02374230302844,
3,,1,ABLENKEN,,,,StimuliNegative.xlsx,23,"Denken Sie während des Betrachtens der Bilder an etwas Neutrales, das mit dem Bild nichts zu tun hat. Das könnten geometrische Figuren, Alltagstätigkeiten oder bekannte Orte sein.",,,,,,,,,0,0,0,0,,,,,,,,,,,,,27.777777777777768,7.634245469234884,70.37037037037037,4.431284403894097,,,,,,,,,,,G24T03,2021_Oct_26_1026,ER,2021.1.4,60.02374230302844,
5,,1,UNTERDRÜCKEN,,Stimuli/9420.jpg,,StimuliNegative.xlsx,25,"Unterdrücken Sie alle aufkommenden Emotionen. Wenn Sie also die Bilder ansehen, verhalten Sie sich so, dass eine außenstehende Person nicht sehen kann, welche Emotionen Sie gerade empfinden.",,,,,,,,,0,1,1,2,0,0,0,16,,,,,4.8,,,,,,,,767.5545393623179,6.010045845876448,None,,,,,,,,G24T03,2021_Oct_26_1026,ER,2021.1.4,60.02374230302844,
5,,1,UNTERDRÜCKEN,,Stimuli/9599.jpg,,StimuliNegative.xlsx,25,"Unterdrücken Sie alle aufkommenden Emotionen. Wenn Sie also die Bilder ansehen, verhalten Sie sich so, dass eine außenstehende Person nicht sehen kann, welche Emotionen Sie gerade empfinden.",,,,,,,,,0,1,1,2,0,1,1,18,,,,,4.3,,,,,,,,777.9124913504347,6.01205759414006,None,,,,,,,,G24T03,2021_Oct_26_1026,ER,2021.1.4,60.02374230302844,
5,,1,UNTERDRÜCKEN,,Stimuli/9120.jpg,,StimuliNegative.xlsx,25,"Unterdrücken Sie alle aufkommenden Emotionen. Wenn Sie also die Bilder ansehen, verhalten Sie sich so, dass eine außenstehende Person nicht sehen kann, welche Emotionen Sie gerade empfinden.",,,,,,,,,0,1,1,2,0,2,2,8,,,,,3.1,,,,,,,,787.069560748525,6.012294666725211,None,,,,,,,,G24T03,2021_Oct_26_1026,ER,2021.1.4,60.02374230302844,
5,,1,UNTERDRÜCKEN,,Stimuli/6838.jpg,,StimuliNegative.xlsx,25,"Unterdrücken Sie alle aufkommenden Emotionen. Wenn Sie also die Bilder ansehen, verhalten Sie sich so, dass eine außenstehende Person nicht sehen kann, welche Emotionen Sie gerade empfinden.",,,,,,,,,0,1,1,2,0,3,3,7,,,,,4.6,,,,,,,,797.7046425482258,6.011591790011153,None,,,,,,,,G24T03,2021_Oct_26_1026,ER,2021.1.4,60.02374230302844,
5,,1,UNTERDRÜCKEN,,Stimuli/6561.jpg,,StimuliNegative.xlsx,25,"Unterdrücken Sie alle aufkommenden Emotionen. Wenn Sie also die Bilder ansehen, verhalten Sie sich so, dass eine außenstehende Person nicht sehen kann, welche Emotionen Sie gerade empfinden.",,,,,,,,,0,1,1,2,0,4,4,6,,,,,4.5,,,,,,,,808.2593541810056,6.000752857886255,None,,,,,,,,G24T03,2021_Oct_26_1026,ER,2021.1.4,60.02374230302844,
5,,1,UNTERDRÜCKEN,,Stimuli/2800.jpg,,StimuliNegative.xlsx,25,"Unterdrücken Sie alle aufkommenden Emotionen. Wenn Sie also die Bilder ansehen, verhalten Sie sich so, dass eine außenstehende Person nicht sehen kann, welche Emotionen Sie gerade empfinden.",,,,,,,,,0,1,1,2,0,5,5,3,,,,,3.1,,,,,,,,817.4102458978305,5.998390472959727,None,,,,,,,,G24T03,2021_Oct_26_1026,ER,2021.1.4,60.02374230302844,
5,,1,UNTERDRÜCKEN,,Stimuli/9295.jpg,,StimuliNegative.xlsx,25,"Unterdrücken Sie alle aufkommenden Emotionen. Wenn Sie also die Bilder ansehen, verhalten Sie sich so, dass eine außenstehende Person nicht sehen kann, welche Emotionen Sie gerade empfinden.",,,,,,,,,0,1,1,2,0,6,6,13,,,,,3.0,,,,,,,,826.4606182044372,6.01622320630122,None,,,,,,,,G24T03,2021_Oct_26_1026,ER,2021.1.4,60.02374230302844,
5,,1,UNTERDRÜCKEN,,Stimuli/9254.jpg,,StimuliNegative.xlsx,25,"Unterdrücken Sie alle aufkommenden Emotionen. Wenn Sie also die Bilder ansehen, verhalten Sie sich so, dass eine außenstehende Person nicht sehen kann, welche Emotionen Sie gerade empfinden.",,,,,,,,,0,1,1,2,0,7,7,12,,,,,3.8,,,,,,,,836.3094618261093,6.000333248986863,None,,,,,,,,G24T03,2021_Oct_26_1026,ER,2021.1.4,60.02374230302844,
5,,1,UNTERDRÜCKEN,,Stimuli/9421.jpg,,StimuliNegative.xlsx,25,"Unterdrücken Sie alle aufkommenden Emotionen. Wenn Sie also die Bilder ansehen, verhalten Sie sich so, dass eine außenstehende Person nicht sehen kann, welche Emotionen Sie gerade empfinden.",,,,,,,,,0,1,1,2,0,8,8,17,,,,,4.4,,,,,,,,846.7583171890583,6.002825558534823,None,,,,,,,,G24T03,2021_Oct_26_1026,ER,2021.1.4,60.02374230302844,
5,,1,UNTERDRÜCKEN,,Stimuli/9230.jpg,,StimuliNegative.xlsx,25,"Unterdrücken Sie alle aufkommenden Emotionen. Wenn Sie also die Bilder ansehen, verhalten Sie sich so, dass eine außenstehende Person nicht sehen kann, welche Emotionen Sie gerade empfinden.",,,,,,,,,0,1,1,2,0,9,9,11,,,,,3.1,,,,,,,,855.8844426822616,6.001281346892938,None,,,,,,,,G24T03,2021_Oct_26_1026,ER,2021.1.4,60.02374230302844,
5,,1,UNTERDRÜCKEN,,Stimuli/9905.jpg,,StimuliNegative.xlsx,25,"Unterdrücken Sie alle aufkommenden Emotionen. Wenn Sie also die Bilder ansehen, verhalten Sie sich so, dass eine außenstehende Person nicht sehen kann, welche Emotionen Sie gerade empfinden.",,,,,,,,,0,1,1,2,0,10,10,19,,,,,3.7,,,,,,,,865.6434919410385,5.999198572942987,None,,,,,,,,G24T03,2021_Oct_26_1026,ER,2021.1.4,60.02374230302844,
5,,1,UNTERDRÜCKEN,,Stimuli/3061.jpg,,StimuliNegative.xlsx,25,"Unterdrücken Sie alle aufkommenden Emotionen. Wenn Sie also die Bilder ansehen, verhalten Sie sich so, dass eine außenstehende Person nicht sehen kann, welche Emotionen Sie gerade empfinden.",,,,,,,,,0,1,1,2,0,11,11,4,,,,,3.4,,,,,,,,875.0952149517834,6.012347599142231,None,,,,,,,,G24T03,2021_Oct_26_1026,ER,2021.1.4,60.02374230302844,
5,,1,UNTERDRÜCKEN,,Stimuli/227.jpg,,StimuliNegative.xlsx,25,"Unterdrücken Sie alle aufkommenden Emotionen. Wenn Sie also die Bilder ansehen, verhalten Sie sich so, dass eine außenstehende Person nicht sehen kann, welche Emotionen Sie gerade empfinden.",,,,,,,,,0,1,1,2,0,12,12,0,,,,,3.5,,,,,,,,884.6437104070792,6.015199848334305,None,,,,,,,,G24T03,2021_Oct_26_1026,ER,2021.1.4,60.02374230302844,
5,,1,UNTERDRÜCKEN,,Stimuli/9332.jpg,,StimuliNegative.xlsx,25,"Unterdrücken Sie alle aufkommenden Emotionen. Wenn Sie also die Bilder ansehen, verhalten Sie sich so, dass eine außenstehende Person nicht sehen kann, welche Emotionen Sie gerade empfinden.",,,,,,,,,0,1,1,2,0,13,13,14,,,,,4.8,,,,,,,,895.5185293545946,6.0165342558175325,None,,,,,,,,G24T03,2021_Oct_26_1026,ER,2021.1.4,60.02374230302844,
5,,1,UNTERDRÜCKEN,,Stimuli/9181.jpg,,StimuliNegative.xlsx,25,"Unterdrücken Sie alle aufkommenden Emotionen. Wenn Sie also die Bilder ansehen, verhalten Sie sich so, dass eine außenstehende Person nicht sehen kann, welche Emotionen Sie gerade empfinden.",,,,,,,,,0,1,1,2,0,14,14,9,,,,,4.0,,,,,,,,905.5735305109993,6.00712173699867,None,,,,,,,,G24T03,2021_Oct_26_1026,ER,2021.1.4,60.02374230302844,
5,,1,UNTERDRÜCKEN,,Stimuli/1051.jpg,,StimuliNegative.xlsx,25,"Unterdrücken Sie alle aufkommenden Emotionen. Wenn Sie also die Bilder ansehen, verhalten Sie sich so, dass eine außenstehende Person nicht sehen kann, welche Emotionen Sie gerade empfinden.",,,,,,,,,0,1,1,2,0,15,15,2,,,,,3.4,,,,,,,,915.0028044498758,6.014003578340635,None,,,,,,,,G24T03,2021_Oct_26_1026,ER,2021.1.4,60.02374230302844,
5,,1,UNTERDRÜCKEN,,Stimuli/9411.jpg,,StimuliNegative.xlsx,25,"Unterdrücken Sie alle aufkommenden Emotionen. Wenn Sie also die Bilder ansehen, verhalten Sie sich so, dass eine außenstehende Person nicht sehen kann, welche Emotionen Sie gerade empfinden.",,,,,,,,,0,1,1,2,0,16,16,15,,,,,4.8,,,,,,,,925.8579906448722,6.002012967597693,None,,,,,,,,G24T03,2021_Oct_26_1026,ER,2021.1.4,60.02374230302844,
5,,1,UNTERDRÜCKEN,,Stimuli/3230.jpg,,StimuliNegative.xlsx,25,"Unterdrücken Sie alle aufkommenden Emotionen. Wenn Sie also die Bilder ansehen, verhalten Sie sich so, dass eine außenstehende Person nicht sehen kann, welche Emotionen Sie gerade empfinden.",,,,,,,,,0,1,1,2,0,17,17,5,,,,,4.9,,,,,,,,936.8032464506105,6.013044380699284,None,,,,,,,,G24T03,2021_Oct_26_1026,ER,2021.1.4,60.02374230302844,
5,,1,UNTERDRÜCKEN,,Stimuli/252.jpg,,StimuliNegative.xlsx,25,"Unterdrücken Sie alle aufkommenden Emotionen. Wenn Sie also die Bilder ansehen, verhalten Sie sich so, dass eine außenstehende Person nicht sehen kann, welche Emotionen Sie gerade empfinden.",,,,,,,,,0,1,1,2,0,18,18,1,,,,,4.2,,,,,,,,947.0343829008052,6.01607050455641,None,,,,,,,,G24T03,2021_Oct_26_1026,ER,2021.1.4,60.02374230302844,
5,,1,UNTERDRÜCKEN,,Stimuli/9185.jpg,,StimuliNegative.xlsx,25,"Unterdrücken Sie alle aufkommenden Emotionen. Wenn Sie also die Bilder ansehen, verhalten Sie sich so, dass eine außenstehende Person nicht sehen kann, welche Emotionen Sie gerade empfinden.",,,,,,,,,0,1,1,2,0,19,19,10,,,,,3.3,,,,,,,,956.3968155283947,6.009525505243801,None,,,,,,,,G24T03,2021_Oct_26_1026,ER,2021.1.4,60.02374230302844,
5,,1,UNTERDRÜCKEN,,,,StimuliNegative.xlsx,25,"Unterdrücken Sie alle aufkommenden Emotionen. Wenn Sie also die Bilder ansehen, verhalten Sie sich so, dass eine außenstehende Person nicht sehen kann, welche Emotionen Sie gerade empfinden.",,,,,,,,,0,1,1,2,,,,,,,,,,,,,70.37037037037037,7.5175345479510725,107.03703703703704,1.797646212624386,,,,,,,,,,,G24T03,2021_Oct_26_1026,ER,2021.1.4,60.02374230302844,
4,,1,DISTANZIEREN,,Stimuli/3220.jpg,,StimuliNegative.xlsx,24,Nehmen Sie die Position eines uninvolvierten Beobachters ein. Denken Sie über das Bild in einer neutralen Weise nach.,,,,,,,,,0,2,2,1,0,0,0,8,,,,,4.7,,,,,,,,990.7086342856055,6.0007785219931975,None,,,,,,,,G24T03,2021_Oct_26_1026,ER,2021.1.4,60.02374230302844,
4,,1,DISTANZIEREN,,Stimuli/9423.jpg,,StimuliNegative.xlsx,24,Nehmen Sie die Position eines uninvolvierten Beobachters ein. Denken Sie über das Bild in einer neutralen Weise nach.,,,,,,,,,0,2,2,1,0,1,1,19,,,,,3.5,,,,,,,,1000.2568323576124,6.006787782302126,None,,,,,,,,G24T03,2021_Oct_26_1026,ER,2021.1.4,60.02374230302844,
4,,1,DISTANZIEREN,,Stimuli/223.jpg,,StimuliNegative.xlsx,24,Nehmen Sie die Position eines uninvolvierten Beobachters ein. Denken Sie über das Bild in einer neutralen Weise nach.,,,,,,,,,0,2,2,1,0,2,2,0,,,,,4.2,,,,,,,,1010.5036967601627,6.011245003086515,None,,,,,,,,G24T03,2021_Oct_26_1026,ER,2021.1.4,60.02374230302844,
4,,1,DISTANZIEREN,,Stimuli/6020.jpg,,StimuliNegative.xlsx,24,Nehmen Sie die Position eines uninvolvierten Beobachters ein. Denken Sie über das Bild in einer neutralen Weise nach.,,,,,,,,,0,2,2,1,0,3,3,10,,,,,3.9,,,,,,,,1020.4531371053308,6.011883078143001,None,,,,,,,,G24T03,2021_Oct_26_1026,ER,2021.1.4,60.02374230302844,
4,,1,DISTANZIEREN,,Stimuli/238.jpg,,StimuliNegative.xlsx,24,Nehmen Sie die Position eines uninvolvierten Beobachters ein. Denken Sie über das Bild in einer neutralen Weise nach.,,,,,,,,,0,2,2,1,0,4,4,1,,,,,4.1,,,,,,,,1030.6050832978217,6.00809312495403,None,,,,,,,,G24T03,2021_Oct_26_1026,ER,2021.1.4,60.02374230302844,
4,,1,DISTANZIEREN,,Stimuli/2981.jpg,,StimuliNegative.xlsx,24,Nehmen Sie die Position eines uninvolvierten Beobachters ein. Denken Sie über das Bild in einer neutralen Weise nach.,,,,,,,,,0,2,2,1,0,5,5,3,,,,,4.8,,,,,,,,1041.443858232582,6.016357622342184,None,,,,,,,,G24T03,2021_Oct_26_1026,ER,2021.1.4,60.02374230302844,
4,,1,DISTANZIEREN,,Stimuli/3101.jpg,,StimuliNegative.xlsx,24,Nehmen Sie die Position eines uninvolvierten Beobachters ein. Denken Sie über das Bild in einer neutralen Weise nach.,,,,,,,,,0,2,2,1,0,6,6,5,,,,,3.5,,,,,,,,1050.9886057599215,6.008981746039353,None,,,,,,,,G24T03,2021_Oct_26_1026,ER,2021.1.4,60.02374230302844,
4,,1,DISTANZIEREN,,Stimuli/3225.jpg,,StimuliNegative.xlsx,24,Nehmen Sie die Position eines uninvolvierten Beobachters ein. Denken Sie über das Bild in einer neutralen Weise nach.,,,,,,,,,0,2,2,1,0,7,7,9,,,,,3.3,,,,,,,,1060.3416472341632,6.001934691914357,None,,,,,,,,G24T03,2021_Oct_26_1026,ER,2021.1.4,60.02374230302844,
4,,1,DISTANZIEREN,,Stimuli/9405.jpg,,StimuliNegative.xlsx,24,Nehmen Sie die Position eines uninvolvierten Beobachters ein. Denken Sie über das Bild in einer neutralen Weise nach.,,,,,,,,,0,2,2,1,0,8,8,18,,,,,4.7,,,,,,,,1071.0877486094832,6.011642797500826,None,,,,,,,,G24T03,2021_Oct_26_1026,ER,2021.1.4,60.02374230302844,
4,,1,DISTANZIEREN,,Stimuli/245.jpg,,StimuliNegative.xlsx,24,Nehmen Sie die Position eines uninvolvierten Beobachters ein. Denken Sie über das Bild in einer neutralen Weise nach.,,,,,,,,,0,2,2,1,0,9,9,2,,,,,4.7,,,,,,,,1081.8208241463872,6.011094226269051,None,,,,,,,,G24T03,2021_Oct_26_1026,ER,2021.1.4,60.02374230302844,
4,,1,DISTANZIEREN,,Stimuli/6571.jpg,,StimuliNegative.xlsx,24,Nehmen Sie die Position eines uninvolvierten Beobachters ein. Denken Sie über das Bild in einer neutralen Weise nach.,,,,,,,,,0,2,2,1,0,10,10,11,,,,,3.0,,,,,,,,1090.8621934698895,6.012362676789053,None,,,,,,,,G24T03,2021_Oct_26_1026,ER,2021.1.4,60.02374230302844,
4,,1,DISTANZIEREN,,Stimuli/6831.jpg,,StimuliNegative.xlsx,24,Nehmen Sie die Position eines uninvolvierten Beobachters ein. Denken Sie über das Bild in einer neutralen Weise nach.,,,,,,,,,0,2,2,1,0,11,11,12,,,,,4.6,,,,,,,,1101.525694143027,6.000227384502068,None,,,,,,,,G24T03,2021_Oct_26_1026,ER,2021.1.4,60.02374230302844,
4,,1,DISTANZIEREN,,Stimuli/3181.jpg,,StimuliNegative.xlsx,24,Nehmen Sie die Position eines uninvolvierten Beobachters ein. Denken Sie über das Bild in einer neutralen Weise nach.,,,,,,,,,0,2,2,1,0,12,12,6,,,,,4.4,,,,,,,,1111.9766549285268,5.999604707933031,None,,,,,,,,G24T03,2021_Oct_26_1026,ER,2021.1.4,60.02374230302844,
4,,1,DISTANZIEREN,,Stimuli/9402.jpg,,StimuliNegative.xlsx,24,Nehmen Sie die Position eines uninvolvierten Beobachters ein. Denken Sie über das Bild in einer neutralen Weise nach.,,,,,,,,,0,2,2,1,0,13,13,16,,,,,4.0,,,,,,,,1122.0225289516384,6.008234919514507,None,,,,,,,,G24T03,2021_Oct_26_1026,ER,2021.1.4,60.02374230302844,
4,,1,DISTANZIEREN,,Stimuli/3215.jpg,,StimuliNegative.xlsx,24,Nehmen Sie die Position eines uninvolvierten Beobachters ein. Denken Sie über das Bild in einer neutralen Weise nach.,,,,,,,,,0,2,2,1,0,14,14,7,,,,,4.5,,,,,,,,1132.5724237445975,6.005570018547587,None,,,,,,,,G24T03,2021_Oct_26_1026,ER,2021.1.4,60.02374230302844,
4,,1,DISTANZIEREN,,Stimuli/3016.jpg,,StimuliNegative.xlsx,24,Nehmen Sie die Position eines uninvolvierten Beobachters ein. Denken Sie über das Bild in einer neutralen Weise nach.,,,,,,,,,0,2,2,1,0,15,15,4,,,,,3.6,,,,,,,,1142.20214654936,6.0143895029323176,None,,,,,,,,G24T03,2021_Oct_26_1026,ER,2021.1.4,60.02374230302844,
4,,1,DISTANZIEREN,,Stimuli/9373.jpg,,StimuliNegative.xlsx,24,Nehmen Sie die Position eines uninvolvierten Beobachters ein. Denken Sie über das Bild in einer neutralen Weise nach.,,,,,,,,,0,2,2,1,0,16,16,14,,,,,4.5,,,,,,,,1152.758830472012,6.0035678941057995,None,,,,,,,,G24T03,2021_Oct_26_1026,ER,2021.1.4,60.02374230302844,
4,,1,DISTANZIEREN,,Stimuli/9400.jpg,,StimuliNegative.xlsx,24,Nehmen Sie die Position eines uninvolvierten Beobachters ein. Denken Sie über das Bild in einer neutralen Weise nach.,,,,,,,,,0,2,2,1,0,17,17,15,,,,,4.1,,,,,,,,1162.908424224588,6.00283614511136,None,,,,,,,,G24T03,2021_Oct_26_1026,ER,2021.1.4,60.02374230302844,
4,,1,DISTANZIEREN,,Stimuli/9403.jpg,,StimuliNegative.xlsx,24,Nehmen Sie die Position eines uninvolvierten Beobachters ein. Denken Sie über das Bild in einer neutralen Weise nach.,,,,,,,,,0,2,2,1,0,18,18,17,,,,,3.3,,,,,,,,1172.2528916277224,6.0138080816250294,None,,,,,,,,G24T03,2021_Oct_26_1026,ER,2021.1.4,60.02374230302844,
4,,1,DISTANZIEREN,,Stimuli/8231.jpg,,StimuliNegative.xlsx,24,Nehmen Sie die Position eines uninvolvierten Beobachters ein. Denken Sie über das Bild in einer neutralen Weise nach.,,,,,,,,,0,2,2,1,0,19,19,13,,,,,4.6,,,,,,,,1182.905384947895,6.008356182370335,None,,,,,,,,G24T03,2021_Oct_26_1026,ER,2021.1.4,60.02374230302844,
4,,1,DISTANZIEREN,,,,StimuliNegative.xlsx,24,Nehmen Sie die Position eines uninvolvierten Beobachters ein. Denken Sie über das Bild in einer neutralen Weise nach.,,,,,,,,,0,2,2,1,,,,,,,,,,,,,66.66666666666667,7.620134037337266,108.8888888888889,6.081385504687205,,,,,,,,,,,G24T03,2021_Oct_26_1026,ER,2021.1.4,60.02374230302844,
,,,,,,,,,,,,,,,,,,,,,,,,,,,,,,,,,,,,,,,,,2,27.620563911972567,,,,,,G24T03,2021_Oct_26_1026,ER,2021.1.4,60.02374230302844,
,,,,,,,,,,,,,,,,,,,,,,,,,,,,,,,,,,,,,,,,,,,space,5.034304625121877,,,,G24T03,2021_Oct_26_1026,ER,2021.1.4,60.02374230302844,
,,,,,Stimuli/226.jpg,,,,,,,,,,,,,,,,,,,,,0,0,0,2,3.6,,,,,,,,,,,,,,,1353.46213014354,6.012583388481289,None,G24T03,2021_Oct_26_1026,ER,2021.1.4,60.02374230302844,
,,,,,Stimuli/3350.jpg,,,,,,,,,,,,,,,,,,,,,0,1,1,7,4.0,,,,,,,,,,,,,,,1363.5359723136062,6.014041304588318,None,G24T03,2021_Oct_26_1026,ER,2021.1.4,60.02374230302844,
,,,,,Stimuli/326.jpg,,,,,,,,,,,,,,,,,,,,,0,2,2,5,4.2,,,,,,,,,,,,,,,1373.7994998057839,6.003833838738501,None,G24T03,2021_Oct_26_1026,ER,2021.1.4,60.02374230302844,
,,,,,Stimuli/9570.jpg,,,,,,,,,,,,,,,,,,,,,0,3,3,18,3.4,,,,,,,,,,,,,,,1383.2577992544975,6.003977237152867,None,G24T03,2021_Oct_26_1026,ER,2021.1.4,60.02374230302844,
,,,,,Stimuli/6555.jpg,,,,,,,,,,,,,,,,,,,,,0,4,4,10,3.3,,,,,,,,,,,,,,,1392.5981911908602,6.004282448091544,None,G24T03,2021_Oct_26_1026,ER,2021.1.4,60.02374230302844,
,,,,,Stimuli/6825.jpg,,,,,,,,,,,,,,,,,,,,,0,5,5,11,3.7,,,,,,,,,,,,,,,1402.348454970168,6.004567191703245,None,G24T03,2021_Oct_26_1026,ER,2021.1.4,60.02374230302844,
,,,,,Stimuli/6940.jpg,,,,,,,,,,,,,,,,,,,,,0,6,6,12,4.9,,,,,,,,,,,,,,,1413.3098573747557,5.998980106785893,None,G24T03,2021_Oct_26_1026,ER,2021.1.4,60.02374230302844,
,,,,,Stimuli/1301.jpg,,,,,,,,,,,,,,,,,,,,,0,7,7,6,4.0,,,,,,,,,,,,,,,1423.3525330033153,6.01236395991873,None,G24T03,2021_Oct_26_1026,ER,2021.1.4,60.02374230302844,
,,,,,Stimuli/6410.jpg,,,,,,,,,,,,,,,,,,,,,0,8,8,9,4.2,,,,,,,,,,,,,,,1433.6098456013715,6.016022063558921,None,G24T03,2021_Oct_26_1026,ER,2021.1.4,60.02374230302844,
,,,,,Stimuli/9409.jpg,,,,,,,,,,,,,,,,,,,,,0,9,9,17,4.9,,,,,,,,,,,,,,,1444.5790364332497,6.010557204019278,None,G24T03,2021_Oct_26_1026,ER,2021.1.4,60.02374230302844,
,,,,,Stimuli/6242.jpg,,,,,,,,,,,,,,,,,,,,,0,10,10,8,4.9,,,,,,,,,,,,,,,1455.544219166739,6.0138701245887205,None,G24T03,2021_Oct_26_1026,ER,2021.1.4,60.02374230302844,
,,,,,Stimuli/8230.jpg,,,,,,,,,,,,,,,,,,,,,0,11,11,13,4.3,,,,,,,,,,,,,,,1465.8910932253348,6.0035130369942635,None,G24T03,2021_Oct_26_1026,ER,2021.1.4,60.02374230302844,
,,,,,Stimuli/9340.jpg,,,,,,,,,,,,,,,,,,,,,0,12,12,16,3.8,,,,,,,,,,,,,,,1475.745546388207,6.012210616725497,None,G24T03,2021_Oct_26_1026,ER,2021.1.4,60.02374230302844,
,,,,,Stimuli/208.jpg,,,,,,,,,,,,,,,,,,,,,0,13,13,0,3.4,,,,,,,,,,,,,,,1485.2007808958879,6.016764078172855,None,G24T03,2021_Oct_26_1026,ER,2021.1.4,60.02374230302844,
,,,,,Stimuli/9041.jpg,,,,,,,,,,,,,,,,,,,,,0,14,14,14,4.0,,,,,,,,,,,,,,,1495.2649354916066,6.004927131580189,None,G24T03,2021_Oct_26_1026,ER,2021.1.4,60.02374230302844,
,,,,,Stimuli/254.jpg,,,,,,,,,,,,,,,,,,,,,0,15,15,4,3.9,,,,,,,,,,,,,,,1505.2123271961464,6.010641703149304,None,G24T03,2021_Oct_26_1026,ER,2021.1.4,60.02374230302844,
,,,,,Stimuli/219.jpg,,,,,,,,,,,,,,,,,,,,,0,16,16,1,4.8,,,,,,,,,,,,,,,1516.0682724083308,6.0147667658748105,None,G24T03,2021_Oct_26_1026,ER,2021.1.4,60.02374230302844,
,,,,,Stimuli/9140.jpg,,,,,,,,,,,,,,,,,,,,,0,17,17,15,4.7,,,,,,,,,,,,,,,1526.8338923306437,6.001126591931097,None,G24T03,2021_Oct_26_1026,ER,2021.1.4,60.02374230302844,
,,,,,Stimuli/253.jpg,,,,,,,,,,,,,,,,,,,,,0,18,18,3,4.8,,,,,,,,,,,,,,,1537.6743011091603,6.0039137185085565,None,G24T03,2021_Oct_26_1026,ER,2021.1.4,60.02374230302844,
,,,,,Stimuli/9800.jpg,,,,,,,,,,,,,,,,,,,,,0,19,19,19,4.8,,,,,,,,,,,,,,,1548.528003595653,6.01177015574649,None,G24T03,2021_Oct_26_1026,ER,2021.1.4,60.02374230302844,
,,,,,,,,,,,,,,,,,,,,,,,,,,,,,,,,,,67.03703703703702,11.918325132108293,119.62962962962962,3.264566248632036,,,,,,,,,,,G24T03,2021_Oct_26_1026,ER,2021.1.4,60.02374230302844,
