Block,conds_view_File,n_reps,instr_1,TriggerBlockView,ImageFile,Trigger,conds_reg_File,TriggerBlockReg,instr_2,blocks_view.thisRepN,blocks_view.thisTrialN,blocks_view.thisN,blocks_view.thisIndex,trials_view.thisRepN,trials_view.thisTrialN,trials_view.thisN,trials_view.thisIndex,blocks_reg.thisRepN,blocks_reg.thisTrialN,blocks_reg.thisN,blocks_reg.thisIndex,trials_reg.thisRepN,trials_reg.thisTrialN,trials_reg.thisN,trials_reg.thisIndex,trials_choice.thisRepN,trials_choice.thisTrialN,trials_choice.thisN,trials_choice.thisIndex,Fix_jitter,image_view.started,image_view.lasted,image_view.stopped,slider_arousal.response,slider_arousal.rt,slider_effort.response,slider_effort.rt,image_reg.started,image_reg.lasted,image_reg.stopped,resp_choice.keys,resp_choice.rt,key_resp.keys,key_resp.rt,image.started,image.lased,image.stopped,participant,date,expName,psychopyVersion,frameRate,
,,,,,,,,,,,,,,,,,,,,,,,,,,,,,,,,,,,,,,,,,,,,,,,,H21R03,2021_Oct_27_1143,ER,2021.1.4,59.94799819802621,
1,StimuliNeutral.xlsx,1,ANSCHAUEN,21,Stimuli/7006.jpg,1,,,,0,0,0,0,0,0,0,8,,,,,,,,,,,,,4.8,78.98726352084486,6.044991639893851,None,,,,,,,,,,,,,,,H21R03,2021_Oct_27_1143,ER,2021.1.4,59.94799819802621,
1,StimuliNeutral.xlsx,1,ANSCHAUEN,21,Stimuli/7009.jpg,1,,,,0,0,0,0,0,1,1,9,,,,,,,,,,,,,3.9,88.9510603787785,6.004478491508053,None,,,,,,,,,,,,,,,H21R03,2021_Oct_27_1143,ER,2021.1.4,59.94799819802621,
1,StimuliNeutral.xlsx,1,ANSCHAUEN,21,Stimuli/7021.jpg,1,,,,0,0,0,0,0,2,2,10,,,,,,,,,,,,,3.8,98.80372502397222,5.998506121541141,None,,,,,,,,,,,,,,,H21R03,2021_Oct_27_1143,ER,2021.1.4,59.94799819802621,
1,StimuliNeutral.xlsx,1,ANSCHAUEN,21,Stimuli/140.jpg,1,,,,0,0,0,0,0,3,3,3,,,,,,,,,,,,,3.1,107.95956195135659,6.003910030456609,None,,,,,,,,,,,,,,,H21R03,2021_Oct_27_1143,ER,2021.1.4,59.94799819802621,
1,StimuliNeutral.xlsx,1,ANSCHAUEN,21,Stimuli/7150.jpg,1,,,,0,0,0,0,0,4,4,14,,,,,,,,,,,,,4.4,118.42542862349364,6.005287874839269,None,,,,,,,,,,,,,,,H21R03,2021_Oct_27_1143,ER,2021.1.4,59.94799819802621,
1,StimuliNeutral.xlsx,1,ANSCHAUEN,21,Stimuli/7211.jpg,1,,,,0,0,0,0,0,5,5,16,,,,,,,,,,,,,3.5,127.96703856167733,6.0079829320457065,None,,,,,,,,,,,,,,,H21R03,2021_Oct_27_1143,ER,2021.1.4,59.94799819802621,
1,StimuliNeutral.xlsx,1,ANSCHAUEN,21,Stimuli/7224.jpg,1,,,,0,0,0,0,0,6,6,17,,,,,,,,,,,,,4.6,138.5995230316621,6.006680476115434,None,,,,,,,,,,,,,,,H21R03,2021_Oct_27_1143,ER,2021.1.4,59.94799819802621,
1,StimuliNeutral.xlsx,1,ANSCHAUEN,21,Stimuli/124.jpg,1,,,,0,0,0,0,0,7,7,2,,,,,,,,,,,,,3.1,147.7258699186641,6.0038881838409,None,,,,,,,,,,,,,,,H21R03,2021_Oct_27_1143,ER,2021.1.4,59.94799819802621,
1,StimuliNeutral.xlsx,1,ANSCHAUEN,21,Stimuli/107.jpg,1,,,,0,0,0,0,0,8,8,1,,,,,,,,,,,,,4.5,158.28154156888195,6.009773648562259,None,,,,,,,,,,,,,,,H21R03,2021_Oct_27_1143,ER,2021.1.4,59.94799819802621,
1,StimuliNeutral.xlsx,1,ANSCHAUEN,21,Stimuli/7041.jpg,1,,,,0,0,0,0,0,9,9,12,,,,,,,,,,,,,5.0,169.3259533913224,6.00479127340077,None,,,,,,,,,,,,,,,H21R03,2021_Oct_27_1143,ER,2021.1.4,59.94799819802621,
1,StimuliNeutral.xlsx,1,ANSCHAUEN,21,Stimuli/7002.jpg,1,,,,0,0,0,0,0,10,10,6,,,,,,,,,,,,,3.8,179.17827317441697,6.001234189287061,None,,,,,,,,,,,,,,,H21R03,2021_Oct_27_1143,ER,2021.1.4,59.94799819802621,
1,StimuliNeutral.xlsx,1,ANSCHAUEN,21,Stimuli/7025.jpg,1,,,,0,0,0,0,0,11,11,11,,,,,,,,,,,,,3.3,188.5204415004846,5.998615835807868,None,,,,,,,,,,,,,,,H21R03,2021_Oct_27_1143,ER,2021.1.4,59.94799819802621,
1,StimuliNeutral.xlsx,1,ANSCHAUEN,21,Stimuli/7100.jpg,1,,,,0,0,0,0,0,12,12,13,,,,,,,,,,,,,4.3,198.86865020653931,6.003128556883894,None,,,,,,,,,,,,,,,H21R03,2021_Oct_27_1143,ER,2021.1.4,59.94799819802621,
1,StimuliNeutral.xlsx,1,ANSCHAUEN,21,Stimuli/7233.jpg,1,,,,0,0,0,0,0,13,13,18,,,,,,,,,,,,,3.1,208.02236631220148,6.012813567867852,None,,,,,,,,,,,,,,,H21R03,2021_Oct_27_1143,ER,2021.1.4,59.94799819802621,
1,StimuliNeutral.xlsx,1,ANSCHAUEN,21,Stimuli/7000.jpg,1,,,,0,0,0,0,0,14,14,5,,,,,,,,,,,,,3.8,217.87350811051147,6.010776796276332,None,,,,,,,,,,,,,,,H21R03,2021_Oct_27_1143,ER,2021.1.4,59.94799819802621,
1,StimuliNeutral.xlsx,1,ANSCHAUEN,21,Stimuli/143.jpg,1,,,,0,0,0,0,0,15,15,4,,,,,,,,,,,,,4.5,228.4155809659278,6.008194661335438,None,,,,,,,,,,,,,,,H21R03,2021_Oct_27_1143,ER,2021.1.4,59.94799819802621,
1,StimuliNeutral.xlsx,1,ANSCHAUEN,21,Stimuli/7185.jpg,1,,,,0,0,0,0,0,16,16,15,,,,,,,,,,,,,4.0,238.4726282149204,6.011248695940594,None,,,,,,,,,,,,,,,H21R03,2021_Oct_27_1143,ER,2021.1.4,59.94799819802621,
1,StimuliNeutral.xlsx,1,ANSCHAUEN,21,Stimuli/7235.jpg,1,,,,0,0,0,0,0,17,17,19,,,,,,,,,,,,,4.3,248.8192239287455,6.001906943056383,None,,,,,,,,,,,,,,,H21R03,2021_Oct_27_1143,ER,2021.1.4,59.94799819802621,
1,StimuliNeutral.xlsx,1,ANSCHAUEN,21,Stimuli/7004.jpg,1,,,,0,0,0,0,0,18,18,7,,,,,,,,,,,,,3.3,258.14949820158654,6.00801982426492,None,,,,,,,,,,,,,,,H21R03,2021_Oct_27_1143,ER,2021.1.4,59.94799819802621,
1,StimuliNeutral.xlsx,1,ANSCHAUEN,21,Stimuli/083.jpg,1,,,,0,0,0,0,0,19,19,0,,,,,,,,,,,,,3.8,268.0022882803314,6.00220079763676,None,,,,,,,,,,,,,,,H21R03,2021_Oct_27_1143,ER,2021.1.4,59.94799819802621,
1,StimuliNeutral.xlsx,1,ANSCHAUEN,21,,,,,,0,0,0,0,,,,,,,,,,,,,,,,,,,,,1.85185185185186,3.9357914889988024,50.74074074074073,6.480754128395347,,,,,,,,,,,H21R03,2021_Oct_27_1143,ER,2021.1.4,59.94799819802621,
2,StimuliNegative.xlsx,1,ANSCHAUEN,22,Stimuli/6836.jpg,,,,,0,1,1,1,0,0,0,11,,,,,,,,,,,,,3.0,291.29317224370607,6.003217419041903,None,,,,,,,,,,,,,,,H21R03,2021_Oct_27_1143,ER,2021.1.4,59.94799819802621,
2,StimuliNegative.xlsx,1,ANSCHAUEN,22,Stimuli/3180.jpg,,,,,0,1,1,1,0,1,1,7,,,,,,,,,,,,,3.2,300.5460953911097,6.0136758835142246,None,,,,,,,,,,,,,,,H21R03,2021_Oct_27_1143,ER,2021.1.4,59.94799819802621,
2,StimuliNegative.xlsx,1,ANSCHAUEN,22,Stimuli/9425.jpg,,,,,0,1,1,1,0,2,2,18,,,,,,,,,,,,,4.1,310.70863579610887,6.005976315835142,None,,,,,,,,,,,,,,,H21R03,2021_Oct_27_1143,ER,2021.1.4,59.94799819802621,
2,StimuliNegative.xlsx,1,ANSCHAUEN,22,Stimuli/9180.jpg,,,,,0,1,1,1,0,3,3,12,,,,,,,,,,,,,3.1,319.84812048551976,6.011120375143946,None,,,,,,,,,,,,,,,H21R03,2021_Oct_27_1143,ER,2021.1.4,59.94799819802621,
2,StimuliNegative.xlsx,1,ANSCHAUEN,22,Stimuli/6190.jpg,,,,,0,1,1,1,0,4,4,9,,,,,,,,,,,,,3.6,329.4979016344296,6.011738239714759,None,,,,,,,,,,,,,,,H21R03,2021_Oct_27_1143,ER,2021.1.4,59.94799819802621,
2,StimuliNegative.xlsx,1,ANSCHAUEN,22,Stimuli/3022.jpg,,,,,0,1,1,1,0,5,5,6,,,,,,,,,,,,,3.9,339.45113480483997,6.004434220856638,None,,,,,,,,,,,,,,,H21R03,2021_Oct_27_1143,ER,2021.1.4,59.94799819802621,
2,StimuliNegative.xlsx,1,ANSCHAUEN,22,Stimuli/327.jpg,,,,,0,1,1,1,0,6,6,3,,,,,,,,,,,,,3.3,348.7996922226157,6.0072072329203365,None,,,,,,,,,,,,,,,H21R03,2021_Oct_27_1143,ER,2021.1.4,59.94799819802621,
2,StimuliNegative.xlsx,1,ANSCHAUEN,22,Stimuli/9920.jpg,,,,,0,1,1,1,0,7,7,19,,,,,,,,,,,,,3.2,358.05417286349984,6.014836545000435,None,,,,,,,,,,,,,,,H21R03,2021_Oct_27_1143,ER,2021.1.4,59.94799819802621,
2,StimuliNegative.xlsx,1,ANSCHAUEN,22,Stimuli/9182.jpg,,,,,0,1,1,1,0,8,8,13,,,,,,,,,,,,,4.2,368.30927457696816,6.0054957545071375,None,,,,,,,,,,,,,,,H21R03,2021_Oct_27_1143,ER,2021.1.4,59.94799819802621,
2,StimuliNegative.xlsx,1,ANSCHAUEN,22,Stimuli/9424.jpg,,,,,0,1,1,1,0,9,9,17,,,,,,,,,,,,,4.5,378.86657718430797,6.006413248091121,None,,,,,,,,,,,,,,,H21R03,2021_Oct_27_1143,ER,2021.1.4,59.94799819802621,
2,StimuliNegative.xlsx,1,ANSCHAUEN,22,Stimuli/9253.jpg,,,,,0,1,1,1,0,10,10,14,,,,,,,,,,,,,4.8,389.7229522248963,6.010563142146566,None,,,,,,,,,,,,,,,H21R03,2021_Oct_27_1143,ER,2021.1.4,59.94799819802621,
2,StimuliNegative.xlsx,1,ANSCHAUEN,22,Stimuli/3280.jpg,,,,,0,1,1,1,0,11,11,8,,,,,,,,,,,,,3.6,399.3624584080244,6.0142895776516525,None,,,,,,,,,,,,,,,H21R03,2021_Oct_27_1143,ER,2021.1.4,59.94799819802621,
2,StimuliNegative.xlsx,1,ANSCHAUEN,22,Stimuli/6244.jpg,,,,,0,1,1,1,0,12,12,10,,,,,,,,,,,,,3.5,408.8975271943782,6.010855713539058,None,,,,,,,,,,,,,,,H21R03,2021_Oct_27_1143,ER,2021.1.4,59.94799819802621,
2,StimuliNegative.xlsx,1,ANSCHAUEN,22,Stimuli/255.jpg,,,,,0,1,1,1,0,13,13,2,,,,,,,,,,,,,4.4,419.3269674463081,6.002613316872157,None,,,,,,,,,,,,,,,H21R03,2021_Oct_27_1143,ER,2021.1.4,59.94799819802621,
2,StimuliNegative.xlsx,1,ANSCHAUEN,22,Stimuli/3017.jpg,,,,,0,1,1,1,0,14,14,5,,,,,,,,,,,,,4.9,430.29365569225047,6.001141830391134,None,,,,,,,,,,,,,,,H21R03,2021_Oct_27_1143,ER,2021.1.4,59.94799819802621,
2,StimuliNegative.xlsx,1,ANSCHAUEN,22,Stimuli/230.jpg,,,,,0,1,1,1,0,15,15,1,,,,,,,,,,,,,3.5,439.8447555938328,6.016877486996236,None,,,,,,,,,,,,,,,H21R03,2021_Oct_27_1143,ER,2021.1.4,59.94799819802621,
2,StimuliNegative.xlsx,1,ANSCHAUEN,22,Stimuli/9326.jpg,,,,,0,1,1,1,0,16,16,16,,,,,,,,,,,,,4.8,450.69017364368483,6.008671693838551,None,,,,,,,,,,,,,,,H21R03,2021_Oct_27_1143,ER,2021.1.4,59.94799819802621,
2,StimuliNegative.xlsx,1,ANSCHAUEN,22,Stimuli/1111.jpg,,,,,0,1,1,1,0,17,17,4,,,,,,,,,,,,,3.4,460.1439861824183,6.002591502343421,None,,,,,,,,,,,,,,,H21R03,2021_Oct_27_1143,ER,2021.1.4,59.94799819802621,
2,StimuliNegative.xlsx,1,ANSCHAUEN,22,Stimuli/9300.jpg,,,,,0,1,1,1,0,18,18,15,,,,,,,,,,,,,4.4,470.5813040471112,6.011057497977163,None,,,,,,,,,,,,,,,H21R03,2021_Oct_27_1143,ER,2021.1.4,59.94799819802621,
2,StimuliNegative.xlsx,1,ANSCHAUEN,22,Stimuli/225.jpg,,,,,0,1,1,1,0,19,19,0,,,,,,,,,,,,,4.4,481.0321494885866,6.008688375542988,None,,,,,,,,,,,,,,,H21R03,2021_Oct_27_1143,ER,2021.1.4,59.94799819802621,
2,StimuliNegative.xlsx,1,ANSCHAUEN,22,,,,,,0,1,1,1,,,,,,,,,,,,,,,,,,,,,7.777777777777772,5.786190309983795,28.888888888888896,7.346222941952874,,,,,,,,,,,H21R03,2021_Oct_27_1143,ER,2021.1.4,59.94799819802621,
4,,1,DISTANZIEREN,,Stimuli/9254.jpg,,StimuliNegative.xlsx,24,Nehmen Sie die Position eines uninvolvierten Beobachters ein. Denken Sie über das Bild in einer neutralen Weise nach.,,,,,,,,,0,0,0,1,0,0,0,12,,,,,4.5,,,,,,,,509.9923405325535,6.005329899882781,None,,,,,,,,H21R03,2021_Oct_27_1143,ER,2021.1.4,59.94799819802621,
4,,1,DISTANZIEREN,,Stimuli/2800.jpg,,StimuliNegative.xlsx,24,Nehmen Sie die Position eines uninvolvierten Beobachters ein. Denken Sie über das Bild in einer neutralen Weise nach.,,,,,,,,,0,0,0,1,0,1,1,3,,,,,3.6,,,,,,,,519.6471547433175,6.01249180349987,None,,,,,,,,H21R03,2021_Oct_27_1143,ER,2021.1.4,59.94799819802621,
4,,1,DISTANZIEREN,,Stimuli/3230.jpg,,StimuliNegative.xlsx,24,Nehmen Sie die Position eines uninvolvierten Beobachters ein. Denken Sie über das Bild in einer neutralen Weise nach.,,,,,,,,,0,0,0,1,0,2,2,5,,,,,4.0,,,,,,,,529.7047672453482,6.012801698205294,None,,,,,,,,H21R03,2021_Oct_27_1143,ER,2021.1.4,59.94799819802621,
4,,1,DISTANZIEREN,,Stimuli/9120.jpg,,StimuliNegative.xlsx,24,Nehmen Sie die Position eines uninvolvierten Beobachters ein. Denken Sie über das Bild in einer neutralen Weise nach.,,,,,,,,,0,0,0,1,0,3,3,8,,,,,4.2,,,,,,,,539.9629342214903,6.012937397419591,None,,,,,,,,H21R03,2021_Oct_27_1143,ER,2021.1.4,59.94799819802621,
4,,1,DISTANZIEREN,,Stimuli/9599.jpg,,StimuliNegative.xlsx,24,Nehmen Sie die Position eines uninvolvierten Beobachters ein. Denken Sie über das Bild in einer neutralen Weise nach.,,,,,,,,,0,0,0,1,0,4,4,18,,,,,3.6,,,,,,,,549.6137239717355,6.013438490073895,None,,,,,,,,H21R03,2021_Oct_27_1143,ER,2021.1.4,59.94799819802621,
4,,1,DISTANZIEREN,,Stimuli/9230.jpg,,StimuliNegative.xlsx,24,Nehmen Sie die Position eines uninvolvierten Beobachters ein. Denken Sie über das Bild in einer neutralen Weise nach.,,,,,,,,,0,0,0,1,0,5,5,11,,,,,3.1,,,,,,,,558.7667481075914,6.007986781667569,None,,,,,,,,H21R03,2021_Oct_27_1143,ER,2021.1.4,59.94799819802621,
4,,1,DISTANZIEREN,,Stimuli/9421.jpg,,StimuliNegative.xlsx,24,Nehmen Sie die Position eines uninvolvierten Beobachters ein. Denken Sie über das Bild in einer neutralen Weise nach.,,,,,,,,,0,0,0,1,0,6,6,17,,,,,3.4,,,,,,,,568.2164999351953,6.006559854577063,None,,,,,,,,H21R03,2021_Oct_27_1143,ER,2021.1.4,59.94799819802621,
4,,1,DISTANZIEREN,,Stimuli/9185.jpg,,StimuliNegative.xlsx,24,Nehmen Sie die Position eines uninvolvierten Beobachters ein. Denken Sie über das Bild in einer neutralen Weise nach.,,,,,,,,,0,0,0,1,0,7,7,10,,,,,4.6,,,,,,,,578.8591512606945,6.006224616532563,None,,,,,,,,H21R03,2021_Oct_27_1143,ER,2021.1.4,59.94799819802621,
4,,1,DISTANZIEREN,,Stimuli/9905.jpg,,StimuliNegative.xlsx,24,Nehmen Sie die Position eines uninvolvierten Beobachters ein. Denken Sie über das Bild in einer neutralen Weise nach.,,,,,,,,,0,0,0,1,0,8,8,19,,,,,3.5,,,,,,,,588.4186202436395,6.002616877769469,None,,,,,,,,H21R03,2021_Oct_27_1143,ER,2021.1.4,59.94799819802621,
4,,1,DISTANZIEREN,,Stimuli/252.jpg,,StimuliNegative.xlsx,24,Nehmen Sie die Position eines uninvolvierten Beobachters ein. Denken Sie über das Bild in einer neutralen Weise nach.,,,,,,,,,0,0,0,1,0,9,9,1,,,,,3.8,,,,,,,,598.2717898310948,6.011960876261583,None,,,,,,,,H21R03,2021_Oct_27_1143,ER,2021.1.4,59.94799819802621,
4,,1,DISTANZIEREN,,Stimuli/9420.jpg,,StimuliNegative.xlsx,24,Nehmen Sie die Position eines uninvolvierten Beobachters ein. Denken Sie über das Bild in einer neutralen Weise nach.,,,,,,,,,0,0,0,1,0,10,10,16,,,,,4.8,,,,,,,,609.1419324083108,6.005390210659243,None,,,,,,,,H21R03,2021_Oct_27_1143,ER,2021.1.4,59.94799819802621,
4,,1,DISTANZIEREN,,Stimuli/6838.jpg,,StimuliNegative.xlsx,24,Nehmen Sie die Position eines uninvolvierten Beobachters ein. Denken Sie über das Bild in einer neutralen Weise nach.,,,,,,,,,0,0,0,1,0,11,11,7,,,,,3.6,,,,,,,,618.7772559755831,6.002876374477637,None,,,,,,,,H21R03,2021_Oct_27_1143,ER,2021.1.4,59.94799819802621,
4,,1,DISTANZIEREN,,Stimuli/9181.jpg,,StimuliNegative.xlsx,24,Nehmen Sie die Position eines uninvolvierten Beobachters ein. Denken Sie über das Bild in einer neutralen Weise nach.,,,,,,,,,0,0,0,1,0,12,12,9,,,,,4.8,,,,,,,,629.6209654342383,6.014236645336496,None,,,,,,,,H21R03,2021_Oct_27_1143,ER,2021.1.4,59.94799819802621,
4,,1,DISTANZIEREN,,Stimuli/1051.jpg,,StimuliNegative.xlsx,24,Nehmen Sie die Position eines uninvolvierten Beobachters ein. Denken Sie über das Bild in einer neutralen Weise nach.,,,,,,,,,0,0,0,1,0,13,13,2,,,,,5.0,,,,,,,,640.6652033820283,6.008078851838945,None,,,,,,,,H21R03,2021_Oct_27_1143,ER,2021.1.4,59.94799819802621,
4,,1,DISTANZIEREN,,Stimuli/9411.jpg,,StimuliNegative.xlsx,24,Nehmen Sie die Position eines uninvolvierten Beobachters ein. Denken Sie über das Bild in einer neutralen Weise nach.,,,,,,,,,0,0,0,1,0,14,14,15,,,,,3.8,,,,,,,,650.496505183517,6.0133056780614424,None,,,,,,,,H21R03,2021_Oct_27_1143,ER,2021.1.4,59.94799819802621,
4,,1,DISTANZIEREN,,Stimuli/227.jpg,,StimuliNegative.xlsx,24,Nehmen Sie die Position eines uninvolvierten Beobachters ein. Denken Sie über das Bild in einer neutralen Weise nach.,,,,,,,,,0,0,0,1,0,15,15,0,,,,,3.5,,,,,,,,660.0534539463115,5.9986713345424505,None,,,,,,,,H21R03,2021_Oct_27_1143,ER,2021.1.4,59.94799819802621,
4,,1,DISTANZIEREN,,Stimuli/9332.jpg,,StimuliNegative.xlsx,24,Nehmen Sie die Position eines uninvolvierten Beobachters ein. Denken Sie über das Bild in einer neutralen Weise nach.,,,,,,,,,0,0,0,1,0,16,16,14,,,,,5.0,,,,,,,,671.1130900670832,6.013990943101817,None,,,,,,,,H21R03,2021_Oct_27_1143,ER,2021.1.4,59.94799819802621,
4,,1,DISTANZIEREN,,Stimuli/3061.jpg,,StimuliNegative.xlsx,24,Nehmen Sie die Position eines uninvolvierten Beobachters ein. Denken Sie über das Bild in einer neutralen Weise nach.,,,,,,,,,0,0,0,1,0,17,17,4,,,,,4.4,,,,,,,,681.5694600389834,6.0015107526414795,None,,,,,,,,H21R03,2021_Oct_27_1143,ER,2021.1.4,59.94799819802621,
4,,1,DISTANZIEREN,,Stimuli/9295.jpg,,StimuliNegative.xlsx,24,Nehmen Sie die Position eines uninvolvierten Beobachters ein. Denken Sie über das Bild in einer neutralen Weise nach.,,,,,,,,,0,0,0,1,0,18,18,13,,,,,4.4,,,,,,,,692.0295782609173,6.014718842750881,None,,,,,,,,H21R03,2021_Oct_27_1143,ER,2021.1.4,59.94799819802621,
4,,1,DISTANZIEREN,,Stimuli/6561.jpg,,StimuliNegative.xlsx,24,Nehmen Sie die Position eines uninvolvierten Beobachters ein. Denken Sie über das Bild in einer neutralen Weise nach.,,,,,,,,,0,0,0,1,0,19,19,6,,,,,4.8,,,,,,,,702.8807951268973,6.0099523352400865,None,,,,,,,,H21R03,2021_Oct_27_1143,ER,2021.1.4,59.94799819802621,
4,,1,DISTANZIEREN,,,,StimuliNegative.xlsx,24,Nehmen Sie die Position eines uninvolvierten Beobachters ein. Denken Sie über das Bild in einer neutralen Weise nach.,,,,,,,,,0,0,0,1,,,,,,,,,,,,,11.481481481481492,4.15104125898506,83.7037037037037,3.7802984613081207,,,,,,,,,,,H21R03,2021_Oct_27_1143,ER,2021.1.4,59.94799819802621,
3,,1,ABLENKEN,,Stimuli/326.jpg,,StimuliNegative.xlsx,23,"Denken Sie während des Betrachtens der Bilder an etwas Neutrales, das mit dem Bild nichts zu tun hat. Das könnten geometrische Figuren, Alltagstätigkeiten oder bekannte Orte sein.",,,,,,,,,0,1,1,0,0,0,0,5,,,,,4.1,,,,,,,,726.854680564662,6.014290860868641,None,,,,,,,,H21R03,2021_Oct_27_1143,ER,2021.1.4,59.94799819802621,
3,,1,ABLENKEN,,Stimuli/6410.jpg,,StimuliNegative.xlsx,23,"Denken Sie während des Betrachtens der Bilder an etwas Neutrales, das mit dem Bild nichts zu tun hat. Das könnten geometrische Figuren, Alltagstätigkeiten oder bekannte Orte sein.",,,,,,,,,0,1,1,0,0,1,1,9,,,,,3.2,,,,,,,,736.1162717808475,6.007556265438325,None,,,,,,,,H21R03,2021_Oct_27_1143,ER,2021.1.4,59.94799819802621,
3,,1,ABLENKEN,,Stimuli/1301.jpg,,StimuliNegative.xlsx,23,"Denken Sie während des Betrachtens der Bilder an etwas Neutrales, das mit dem Bild nichts zu tun hat. Das könnten geometrische Figuren, Alltagstätigkeiten oder bekannte Orte sein.",,,,,,,,,0,1,1,0,0,2,2,6,,,,,3.7,,,,,,,,745.8699808930396,5.999439655221067,None,,,,,,,,H21R03,2021_Oct_27_1143,ER,2021.1.4,59.94799819802621,
3,,1,ABLENKEN,,Stimuli/3350.jpg,,StimuliNegative.xlsx,23,"Denken Sie während des Betrachtens der Bilder an etwas Neutrales, das mit dem Bild nichts zu tun hat. Das könnten geometrische Figuren, Alltagstätigkeiten oder bekannte Orte sein.",,,,,,,,,0,1,1,0,0,3,3,7,,,,,4.0,,,,,,,,755.9029035143176,6.0001107729185605,None,,,,,,,,H21R03,2021_Oct_27_1143,ER,2021.1.4,59.94799819802621,
3,,1,ABLENKEN,,Stimuli/6555.jpg,,StimuliNegative.xlsx,23,"Denken Sie während des Betrachtens der Bilder an etwas Neutrales, das mit dem Bild nichts zu tun hat. Das könnten geometrische Figuren, Alltagstätigkeiten oder bekannte Orte sein.",,,,,,,,,0,1,1,0,0,4,4,10,,,,,3.7,,,,,,,,765.6512148128386,6.002046491892543,None,,,,,,,,H21R03,2021_Oct_27_1143,ER,2021.1.4,59.94799819802621,
3,,1,ABLENKEN,,Stimuli/6940.jpg,,StimuliNegative.xlsx,23,"Denken Sie während des Betrachtens der Bilder an etwas Neutrales, das mit dem Bild nichts zu tun hat. Das könnten geometrische Figuren, Alltagstätigkeiten oder bekannte Orte sein.",,,,,,,,,0,1,1,0,0,5,5,12,,,,,4.5,,,,,,,,776.186398446298,6.0009734093619045,None,,,,,,,,H21R03,2021_Oct_27_1143,ER,2021.1.4,59.94799819802621,
3,,1,ABLENKEN,,Stimuli/254.jpg,,StimuliNegative.xlsx,23,"Denken Sie während des Betrachtens der Bilder an etwas Neutrales, das mit dem Bild nichts zu tun hat. Das könnten geometrische Figuren, Alltagstätigkeiten oder bekannte Orte sein.",,,,,,,,,0,1,1,0,0,6,6,4,,,,,3.6,,,,,,,,785.8267897220212,6.001706088936771,None,,,,,,,,H21R03,2021_Oct_27_1143,ER,2021.1.4,59.94799819802621,
3,,1,ABLENKEN,,Stimuli/6825.jpg,,StimuliNegative.xlsx,23,"Denken Sie während des Betrachtens der Bilder an etwas Neutrales, das mit dem Bild nichts zu tun hat. Das könnten geometrische Figuren, Alltagstätigkeiten oder bekannte Orte sein.",,,,,,,,,0,1,1,0,0,7,7,11,,,,,4.4,,,,,,,,796.2947634213924,6.0165538299334,None,,,,,,,,H21R03,2021_Oct_27_1143,ER,2021.1.4,59.94799819802621,
3,,1,ABLENKEN,,Stimuli/9570.jpg,,StimuliNegative.xlsx,23,"Denken Sie während des Betrachtens der Bilder an etwas Neutrales, das mit dem Bild nichts zu tun hat. Das könnten geometrische Figuren, Alltagstätigkeiten oder bekannte Orte sein.",,,,,,,,,0,1,1,0,0,8,8,18,,,,,4.9,,,,,,,,807.2511629070796,6.005376416171202,None,,,,,,,,H21R03,2021_Oct_27_1143,ER,2021.1.4,59.94799819802621,
3,,1,ABLENKEN,,Stimuli/253.jpg,,StimuliNegative.xlsx,23,"Denken Sie während des Betrachtens der Bilder an etwas Neutrales, das mit dem Bild nichts zu tun hat. Das könnten geometrische Figuren, Alltagstätigkeiten oder bekannte Orte sein.",,,,,,,,,0,1,1,0,0,9,9,3,,,,,3.4,,,,,,,,816.6963689710101,6.014007271936862,None,,,,,,,,H21R03,2021_Oct_27_1143,ER,2021.1.4,59.94799819802621,
3,,1,ABLENKEN,,Stimuli/9041.jpg,,StimuliNegative.xlsx,23,"Denken Sie während des Betrachtens der Bilder an etwas Neutrales, das mit dem Bild nichts zu tun hat. Das könnten geometrische Figuren, Alltagstätigkeiten oder bekannte Orte sein.",,,,,,,,,0,1,1,0,0,10,10,14,,,,,4.2,,,,,,,,826.9519265440613,6.002096857802826,None,,,,,,,,H21R03,2021_Oct_27_1143,ER,2021.1.4,59.94799819802621,
3,,1,ABLENKEN,,Stimuli/208.jpg,,StimuliNegative.xlsx,23,"Denken Sie während des Betrachtens der Bilder an etwas Neutrales, das mit dem Bild nichts zu tun hat. Das könnten geometrische Figuren, Alltagstätigkeiten oder bekannte Orte sein.",,,,,,,,,0,1,1,0,0,11,11,0,,,,,4.0,,,,,,,,836.9832836518035,6.00666026561521,None,,,,,,,,H21R03,2021_Oct_27_1143,ER,2021.1.4,59.94799819802621,
3,,1,ABLENKEN,,Stimuli/8230.jpg,,StimuliNegative.xlsx,23,"Denken Sie während des Betrachtens der Bilder an etwas Neutrales, das mit dem Bild nichts zu tun hat. Das könnten geometrische Figuren, Alltagstätigkeiten oder bekannte Orte sein.",,,,,,,,,0,1,1,0,0,12,12,13,,,,,4.9,,,,,,,,847.9364000503119,5.999573750450509,None,,,,,,,,H21R03,2021_Oct_27_1143,ER,2021.1.4,59.94799819802621,
3,,1,ABLENKEN,,Stimuli/226.jpg,,StimuliNegative.xlsx,23,"Denken Sie während des Betrachtens der Bilder an etwas Neutrales, das mit dem Bild nichts zu tun hat. Das könnten geometrische Figuren, Alltagstätigkeiten oder bekannte Orte sein.",,,,,,,,,0,1,1,0,0,13,13,2,,,,,4.7,,,,,,,,858.6819322414958,6.0085860397230135,None,,,,,,,,H21R03,2021_Oct_27_1143,ER,2021.1.4,59.94799819802621,
3,,1,ABLENKEN,,Stimuli/6242.jpg,,StimuliNegative.xlsx,23,"Denken Sie während des Betrachtens der Bilder an etwas Neutrales, das mit dem Bild nichts zu tun hat. Das könnten geometrische Figuren, Alltagstätigkeiten oder bekannte Orte sein.",,,,,,,,,0,1,1,0,0,14,14,8,,,,,3.2,,,,,,,,867.9320188580314,6.007703192750341,None,,,,,,,,H21R03,2021_Oct_27_1143,ER,2021.1.4,59.94799819802621,
3,,1,ABLENKEN,,Stimuli/9340.jpg,,StimuliNegative.xlsx,23,"Denken Sie während des Betrachtens der Bilder an etwas Neutrales, das mit dem Bild nichts zu tun hat. Das könnten geometrische Figuren, Alltagstätigkeiten oder bekannte Orte sein.",,,,,,,,,0,1,1,0,0,15,15,16,,,,,3.5,,,,,,,,877.4823956720065,6.009896515693981,None,,,,,,,,H21R03,2021_Oct_27_1143,ER,2021.1.4,59.94799819802621,
3,,1,ABLENKEN,,Stimuli/9800.jpg,,StimuliNegative.xlsx,23,"Denken Sie während des Betrachtens der Bilder an etwas Neutrales, das mit dem Bild nichts zu tun hat. Das könnten geometrische Figuren, Alltagstätigkeiten oder bekannte Orte sein.",,,,,,,,,0,1,1,0,0,16,16,19,,,,,3.6,,,,,,,,887.1196754895791,6.0007013693102635,None,,,,,,,,H21R03,2021_Oct_27_1143,ER,2021.1.4,59.94799819802621,
3,,1,ABLENKEN,,Stimuli/9409.jpg,,StimuliNegative.xlsx,23,"Denken Sie während des Betrachtens der Bilder an etwas Neutrales, das mit dem Bild nichts zu tun hat. Das könnten geometrische Figuren, Alltagstätigkeiten oder bekannte Orte sein.",,,,,,,,,0,1,1,0,0,17,17,17,,,,,3.8,,,,,,,,896.9530570501374,6.000313198936055,None,,,,,,,,H21R03,2021_Oct_27_1143,ER,2021.1.4,59.94799819802621,
3,,1,ABLENKEN,,Stimuli/219.jpg,,StimuliNegative.xlsx,23,"Denken Sie während des Betrachtens der Bilder an etwas Neutrales, das mit dem Bild nichts zu tun hat. Das könnten geometrische Figuren, Alltagstätigkeiten oder bekannte Orte sein.",,,,,,,,,0,1,1,0,0,18,18,1,,,,,3.5,,,,,,,,906.493928823038,6.000869116658578,None,,,,,,,,H21R03,2021_Oct_27_1143,ER,2021.1.4,59.94799819802621,
3,,1,ABLENKEN,,Stimuli/9140.jpg,,StimuliNegative.xlsx,23,"Denken Sie während des Betrachtens der Bilder an etwas Neutrales, das mit dem Bild nichts zu tun hat. Das könnten geometrische Figuren, Alltagstätigkeiten oder bekannte Orte sein.",,,,,,,,,0,1,1,0,0,19,19,15,,,,,3.9,,,,,,,,916.4392516588705,6.011019643352483,None,,,,,,,,H21R03,2021_Oct_27_1143,ER,2021.1.4,59.94799819802621,
3,,1,ABLENKEN,,,,StimuliNegative.xlsx,23,"Denken Sie während des Betrachtens der Bilder an etwas Neutrales, das mit dem Bild nichts zu tun hat. Das könnten geometrische Figuren, Alltagstätigkeiten oder bekannte Orte sein.",,,,,,,,,0,1,1,0,,,,,,,,,,,,,4.074074074074074,4.187030426153797,117.77777777777779,2.3138915586750954,,,,,,,,,,,H21R03,2021_Oct_27_1143,ER,2021.1.4,59.94799819802621,
5,,1,UNTERDRÜCKEN,,Stimuli/9904.jpg,,StimuliNegative.xlsx,25,"Unterdrücken Sie alle aufkommenden Emotionen. Wenn Sie also die Bilder ansehen, verhalten Sie sich so, dass eine außenstehende Person nicht sehen kann, welche Emotionen Sie gerade empfinden.",,,,,,,,,0,2,2,2,0,0,0,19,,,,,4.6,,,,,,,,939.6429451800796,6.00346668214479,None,,,,,,,,H21R03,2021_Oct_27_1143,ER,2021.1.4,59.94799819802621,
5,,1,UNTERDRÜCKEN,,Stimuli/228.jpg,,StimuliNegative.xlsx,25,"Unterdrücken Sie alle aufkommenden Emotionen. Wenn Sie also die Bilder ansehen, verhalten Sie sich so, dass eine außenstehende Person nicht sehen kann, welche Emotionen Sie gerade empfinden.",,,,,,,,,0,2,2,2,0,1,1,3,,,,,3.9,,,,,,,,949.5975430420076,6.010562179755652,None,,,,,,,,H21R03,2021_Oct_27_1143,ER,2021.1.4,59.94799819802621,
5,,1,UNTERDRÜCKEN,,Stimuli/3185.jpg,,StimuliNegative.xlsx,25,"Unterdrücken Sie alle aufkommenden Emotionen. Wenn Sie also die Bilder ansehen, verhalten Sie sich so, dass eine außenstehende Person nicht sehen kann, welche Emotionen Sie gerade empfinden.",,,,,,,,,0,2,2,2,0,2,2,9,,,,,4.6,,,,,,,,960.2398129339708,6.009140706300968,None,,,,,,,,H21R03,2021_Oct_27_1143,ER,2021.1.4,59.94799819802621,
5,,1,UNTERDRÜCKEN,,Stimuli/9145.jpg,,StimuliNegative.xlsx,25,"Unterdrücken Sie alle aufkommenden Emotionen. Wenn Sie also die Bilder ansehen, verhalten Sie sich so, dass eine außenstehende Person nicht sehen kann, welche Emotionen Sie gerade empfinden.",,,,,,,,,0,2,2,2,0,3,3,16,,,,,4.2,,,,,,,,970.496492672246,6.01289569317305,None,,,,,,,,H21R03,2021_Oct_27_1143,ER,2021.1.4,59.94799819802621,
5,,1,UNTERDRÜCKEN,,Stimuli/9042.jpg,,StimuliNegative.xlsx,25,"Unterdrücken Sie alle aufkommenden Emotionen. Wenn Sie also die Bilder ansehen, verhalten Sie sich so, dass eine außenstehende Person nicht sehen kann, welche Emotionen Sie gerade empfinden.",,,,,,,,,0,2,2,2,0,4,4,14,,,,,4.1,,,,,,,,980.6537327873812,6.01632025402796,None,,,,,,,,H21R03,2021_Oct_27_1143,ER,2021.1.4,59.94799819802621,
5,,1,UNTERDRÜCKEN,,Stimuli/3051.jpg,,StimuliNegative.xlsx,25,"Unterdrücken Sie alle aufkommenden Emotionen. Wenn Sie also die Bilder ansehen, verhalten Sie sich so, dass eine außenstehende Person nicht sehen kann, welche Emotionen Sie gerade empfinden.",,,,,,,,,0,2,2,2,0,5,5,7,,,,,4.2,,,,,,,,990.9117691971187,6.0167925065761665,None,,,,,,,,H21R03,2021_Oct_27_1143,ER,2021.1.4,59.94799819802621,
5,,1,UNTERDRÜCKEN,,Stimuli/9031.jpg,,StimuliNegative.xlsx,25,"Unterdrücken Sie alle aufkommenden Emotionen. Wenn Sie also die Bilder ansehen, verhalten Sie sich so, dass eine außenstehende Person nicht sehen kann, welche Emotionen Sie gerade empfinden.",,,,,,,,,0,2,2,2,0,6,6,12,,,,,3.4,,,,,,,,1000.3458828918956,6.014614870844525,None,,,,,,,,H21R03,2021_Oct_27_1143,ER,2021.1.4,59.94799819802621,
5,,1,UNTERDRÜCKEN,,Stimuli/246.jpg,,StimuliNegative.xlsx,25,"Unterdrücken Sie alle aufkommenden Emotionen. Wenn Sie also die Bilder ansehen, verhalten Sie sich so, dass eine außenstehende Person nicht sehen kann, welche Emotionen Sie gerade empfinden.",,,,,,,,,0,2,2,2,0,7,7,4,,,,,4.2,,,,,,,,1010.5953606263065,6.01451061021362,None,,,,,,,,H21R03,2021_Oct_27_1143,ER,2021.1.4,59.94799819802621,
5,,1,UNTERDRÜCKEN,,Stimuli/9040.jpg,,StimuliNegative.xlsx,25,"Unterdrücken Sie alle aufkommenden Emotionen. Wenn Sie also die Bilder ansehen, verhalten Sie sich so, dass eine außenstehende Person nicht sehen kann, welche Emotionen Sie gerade empfinden.",,,,,,,,,0,2,2,2,0,8,8,13,,,,,3.1,,,,,,,,1019.7391976358194,6.011944194571697,None,,,,,,,,H21R03,2021_Oct_27_1143,ER,2021.1.4,59.94799819802621,
5,,1,UNTERDRÜCKEN,,Stimuli/3301.jpg,,StimuliNegative.xlsx,25,"Unterdrücken Sie alle aufkommenden Emotionen. Wenn Sie also die Bilder ansehen, verhalten Sie sich so, dass eine außenstehende Person nicht sehen kann, welche Emotionen Sie gerade empfinden.",,,,,,,,,0,2,2,2,0,9,9,10,,,,,3.7,,,,,,,,1029.4961369028752,6.01336213920149,None,,,,,,,,H21R03,2021_Oct_27_1143,ER,2021.1.4,59.94799819802621,
5,,1,UNTERDRÜCKEN,,Stimuli/210.jpg,,StimuliNegative.xlsx,25,"Unterdrücken Sie alle aufkommenden Emotionen. Wenn Sie also die Bilder ansehen, verhalten Sie sich so, dass eine außenstehende Person nicht sehen kann, welche Emotionen Sie gerade empfinden.",,,,,,,,,0,2,2,2,0,10,10,0,,,,,4.5,,,,,,,,1040.0337076236756,6.004950070375344,None,,,,,,,,H21R03,2021_Oct_27_1143,ER,2021.1.4,59.94799819802621,
5,,1,UNTERDRÜCKEN,,Stimuli/218.jpg,,StimuliNegative.xlsx,25,"Unterdrücken Sie alle aufkommenden Emotionen. Wenn Sie also die Bilder ansehen, verhalten Sie sich so, dass eine außenstehende Person nicht sehen kann, welche Emotionen Sie gerade empfinden.",,,,,,,,,0,2,2,2,0,11,11,1,,,,,4.7,,,,,,,,1050.7770971786085,6.001378229339025,None,,,,,,,,H21R03,2021_Oct_27_1143,ER,2021.1.4,59.94799819802621,
5,,1,UNTERDRÜCKEN,,Stimuli/251.jpg,,StimuliNegative.xlsx,25,"Unterdrücken Sie alle aufkommenden Emotionen. Wenn Sie also die Bilder ansehen, verhalten Sie sich so, dass eine außenstehende Person nicht sehen kann, welche Emotionen Sie gerade empfinden.",,,,,,,,,0,2,2,2,0,12,12,5,,,,,3.5,,,,,,,,1060.3250435969821,6.0066185292671435,None,,,,,,,,H21R03,2021_Oct_27_1143,ER,2021.1.4,59.94799819802621,
5,,1,UNTERDRÜCKEN,,Stimuli/9043.jpg,,StimuliNegative.xlsx,25,"Unterdrücken Sie alle aufkommenden Emotionen. Wenn Sie also die Bilder ansehen, verhalten Sie sich so, dass eine außenstehende Person nicht sehen kann, welche Emotionen Sie gerade empfinden.",,,,,,,,,0,2,2,2,0,13,13,15,,,,,3.2,,,,,,,,1069.5854305226385,6.003342243071529,None,,,,,,,,H21R03,2021_Oct_27_1143,ER,2021.1.4,59.94799819802621,
5,,1,UNTERDRÜCKEN,,Stimuli/3160.jpg,,StimuliNegative.xlsx,25,"Unterdrücken Sie alle aufkommenden Emotionen. Wenn Sie also die Bilder ansehen, verhalten Sie sich so, dass eine außenstehende Person nicht sehen kann, welche Emotionen Sie gerade empfinden.",,,,,,,,,0,2,2,2,0,14,14,8,,,,,3.8,,,,,,,,1079.4250170345913,6.005695582047338,None,,,,,,,,H21R03,2021_Oct_27_1143,ER,2021.1.4,59.94799819802621,
5,,1,UNTERDRÜCKEN,,Stimuli/6562.jpg,,StimuliNegative.xlsx,25,"Unterdrücken Sie alle aufkommenden Emotionen. Wenn Sie also die Bilder ansehen, verhalten Sie sich so, dass eine außenstehende Person nicht sehen kann, welche Emotionen Sie gerade empfinden.",,,,,,,,,0,2,2,2,0,15,15,11,,,,,4.8,,,,,,,,1090.2645387445373,6.010080976833706,None,,,,,,,,H21R03,2021_Oct_27_1143,ER,2021.1.4,59.94799819802621,
5,,1,UNTERDRÜCKEN,,Stimuli/9184.jpg,,StimuliNegative.xlsx,25,"Unterdrücken Sie alle aufkommenden Emotionen. Wenn Sie also die Bilder ansehen, verhalten Sie sich so, dass eine außenstehende Person nicht sehen kann, welche Emotionen Sie gerade empfinden.",,,,,,,,,0,2,2,2,0,16,16,18,,,,,3.5,,,,,,,,1099.8046691441123,6.01387478072138,None,,,,,,,,H21R03,2021_Oct_27_1143,ER,2021.1.4,59.94799819802621,
5,,1,UNTERDRÜCKEN,,Stimuli/2703.jpg,,StimuliNegative.xlsx,25,"Unterdrücken Sie alle aufkommenden Emotionen. Wenn Sie also die Bilder ansehen, verhalten Sie sich so, dass eine außenstehende Person nicht sehen kann, welche Emotionen Sie gerade empfinden.",,,,,,,,,0,2,2,2,0,17,17,6,,,,,4.8,,,,,,,,1110.6687411859748,6.003838170814561,None,,,,,,,,H21R03,2021_Oct_27_1143,ER,2021.1.4,59.94799819802621,
5,,1,UNTERDRÜCKEN,,Stimuli/222.jpg,,StimuliNegative.xlsx,25,"Unterdrücken Sie alle aufkommenden Emotionen. Wenn Sie also die Bilder ansehen, verhalten Sie sich so, dass eine außenstehende Person nicht sehen kann, welche Emotionen Sie gerade empfinden.",,,,,,,,,0,2,2,2,0,18,18,2,,,,,4.2,,,,,,,,1120.915078910868,6.007991272897925,None,,,,,,,,H21R03,2021_Oct_27_1143,ER,2021.1.4,59.94799819802621,
5,,1,UNTERDRÜCKEN,,Stimuli/9160.jpg,,StimuliNegative.xlsx,25,"Unterdrücken Sie alle aufkommenden Emotionen. Wenn Sie also die Bilder ansehen, verhalten Sie sich so, dass eine außenstehende Person nicht sehen kann, welche Emotionen Sie gerade empfinden.",,,,,,,,,0,2,2,2,0,19,19,17,,,,,4.5,,,,,,,,1131.4586945028714,6.006289418539382,None,,,,,,,,H21R03,2021_Oct_27_1143,ER,2021.1.4,59.94799819802621,
5,,1,UNTERDRÜCKEN,,,,StimuliNegative.xlsx,25,"Unterdrücken Sie alle aufkommenden Emotionen. Wenn Sie also die Bilder ansehen, verhalten Sie sich so, dass eine außenstehende Person nicht sehen kann, welche Emotionen Sie gerade empfinden.",,,,,,,,,0,2,2,2,,,,,,,,,,,,,113.70370370370371,7.353791301648016,180.0,2.2806035439571133,,,,,,,,,,,H21R03,2021_Oct_27_1143,ER,2021.1.4,59.94799819802621,
,,,,,,,,,,,,,,,,,,,,,,,,,,,,,,,,,,,,,,,,,1,16.694816931150854,,,,,,H21R03,2021_Oct_27_1143,ER,2021.1.4,59.94799819802621,
,,,,,,,,,,,,,,,,,,,,,,,,,,,,,,,,,,,,,,,,,,,space,8.49771043646615,,,,H21R03,2021_Oct_27_1143,ER,2021.1.4,59.94799819802621,
,,,,,Stimuli/223.jpg,,,,,,,,,,,,,,,,,,,,,0,0,0,0,3.5,,,,,,,,,,,,,,,1241.7790245567448,6.01363867049804,None,H21R03,2021_Oct_27_1143,ER,2021.1.4,59.94799819802621,
,,,,,Stimuli/245.jpg,,,,,,,,,,,,,,,,,,,,,0,1,1,2,3.6,,,,,,,,,,,,,,,1251.4295897456323,6.011882600578247,None,H21R03,2021_Oct_27_1143,ER,2021.1.4,59.94799819802621,
,,,,,Stimuli/9400.jpg,,,,,,,,,,,,,,,,,,,,,0,2,2,15,4.1,,,,,,,,,,,,,,,1261.5965058892907,6.011532958538737,None,H21R03,2021_Oct_27_1143,ER,2021.1.4,59.94799819802621,
,,,,,Stimuli/3016.jpg,,,,,,,,,,,,,,,,,,,,,0,3,3,4,3.2,,,,,,,,,,,,,,,1270.8265850503813,6.0032366350787925,None,H21R03,2021_Oct_27_1143,ER,2021.1.4,59.94799819802621,
,,,,,Stimuli/9402.jpg,,,,,,,,,,,,,,,,,,,,,0,4,4,16,4.6,,,,,,,,,,,,,,,1281.4644374994386,6.010321899098926,None,H21R03,2021_Oct_27_1143,ER,2021.1.4,59.94799819802621,
,,,,,Stimuli/3215.jpg,,,,,,,,,,,,,,,,,,,,,0,5,5,7,3.4,,,,,,,,,,,,,,,1290.8976276054018,6.009857057055342,None,H21R03,2021_Oct_27_1143,ER,2021.1.4,59.94799819802621,
,,,,,Stimuli/6831.jpg,,,,,,,,,,,,,,,,,,,,,0,6,6,12,4.3,,,,,,,,,,,,,,,1301.2374649844714,6.014245627782657,None,H21R03,2021_Oct_27_1143,ER,2021.1.4,59.94799819802621,
,,,,,Stimuli/3101.jpg,,,,,,,,,,,,,,,,,,,,,0,7,7,5,4.5,,,,,,,,,,,,,,,1311.7847011473204,6.003484967863187,None,H21R03,2021_Oct_27_1143,ER,2021.1.4,59.94799819802621,
,,,,,Stimuli/8231.jpg,,,,,,,,,,,,,,,,,,,,,0,8,8,13,3.0,,,,,,,,,,,,,,,1320.8258523387194,6.003396073647309,None,H21R03,2021_Oct_27_1143,ER,2021.1.4,59.94799819802621,
,,,,,Stimuli/9405.jpg,,,,,,,,,,,,,,,,,,,,,0,9,9,18,4.4,,,,,,,,,,,,,,,1331.2896424598148,6.009471453115111,None,H21R03,2021_Oct_27_1143,ER,2021.1.4,59.94799819802621,
,,,,,Stimuli/9423.jpg,,,,,,,,,,,,,,,,,,,,,0,10,10,19,3.1,,,,,,,,,,,,,,,1340.450726423951,6.0043626820115605,None,H21R03,2021_Oct_27_1143,ER,2021.1.4,59.94799819802621,
,,,,,Stimuli/2981.jpg,,,,,,,,,,,,,,,,,,,,,0,11,11,3,3.6,,,,,,,,,,,,,,,1350.0879831437924,6.012861688155681,None,H21R03,2021_Oct_27_1143,ER,2021.1.4,59.94799819802621,
,,,,,Stimuli/6571.jpg,,,,,,,,,,,,,,,,,,,,,0,12,12,11,4.5,,,,,,,,,,,,,,,1360.6533449378185,5.998659464879893,None,H21R03,2021_Oct_27_1143,ER,2021.1.4,59.94799819802621,
,,,,,Stimuli/3181.jpg,,,,,,,,,,,,,,,,,,,,,0,13,13,6,4.7,,,,,,,,,,,,,,,1371.4033452586154,5.998654332041042,None,H21R03,2021_Oct_27_1143,ER,2021.1.4,59.94799819802621,
,,,,,Stimuli/238.jpg,,,,,,,,,,,,,,,,,,,,,0,14,14,1,4.9,,,,,,,,,,,,,,,1382.3391906423349,6.01035012966895,None,H21R03,2021_Oct_27_1143,ER,2021.1.4,59.94799819802621,
,,,,,Stimuli/3225.jpg,,,,,,,,,,,,,,,,,,,,,0,15,15,9,4.1,,,,,,,,,,,,,,,1392.5172816012346,6.0040387041226495,None,H21R03,2021_Oct_27_1143,ER,2021.1.4,59.94799819802621,
,,,,,Stimuli/6020.jpg,,,,,,,,,,,,,,,,,,,,,0,16,16,10,3.0,,,,,,,,,,,,,,,1401.5610264764255,6.016714198820409,None,H21R03,2021_Oct_27_1143,ER,2021.1.4,59.94799819802621,
,,,,,Stimuli/9403.jpg,,,,,,,,,,,,,,,,,,,,,0,17,17,17,4.0,,,,,,,,,,,,,,,1411.630468550502,6.011338552547386,None,H21R03,2021_Oct_27_1143,ER,2021.1.4,59.94799819802621,
,,,,,Stimuli/3220.jpg,,,,,,,,,,,,,,,,,,,,,0,18,18,8,3.0,,,,,,,,,,,,,,,1420.6793603722326,6.012860404967796,None,H21R03,2021_Oct_27_1143,ER,2021.1.4,59.94799819802621,
,,,,,Stimuli/9373.jpg,,,,,,,,,,,,,,,,,,,,,0,19,19,14,4.4,,,,,,,,,,,,,,,1431.1388572007854,6.012243823584868,None,H21R03,2021_Oct_27_1143,ER,2021.1.4,59.94799819802621,
,,,,,,,,,,,,,,,,,,,,,,,,,,,,,,,,,,167.03703703703704,8.117172592741554,214.07407407407408,4.615351400047075,,,,,,,,,,,H21R03,2021_Oct_27_1143,ER,2021.1.4,59.94799819802621,
