Block,conds_view_File,n_reps,instr_1,TriggerBlockView,ImageFile,Trigger,conds_reg_File,TriggerBlockReg,instr_2,blocks_view.thisRepN,blocks_view.thisTrialN,blocks_view.thisN,blocks_view.thisIndex,trials_view.thisRepN,trials_view.thisTrialN,trials_view.thisN,trials_view.thisIndex,blocks_reg.thisRepN,blocks_reg.thisTrialN,blocks_reg.thisN,blocks_reg.thisIndex,trials_reg.thisRepN,trials_reg.thisTrialN,trials_reg.thisN,trials_reg.thisIndex,trials_choice.thisRepN,trials_choice.thisTrialN,trials_choice.thisN,trials_choice.thisIndex,Fix_jitter,image_view.started,image_view.lasted,image_view.stopped,slider_arousal.response,slider_arousal.rt,slider_effort.response,slider_effort.rt,image_reg.started,image_reg.lasted,image_reg.stopped,resp_choice.keys,resp_choice.rt,key_resp.keys,key_resp.rt,image.started,image.lased,image.stopped,participant,date,expName,psychopyVersion,frameRate,
,,,,,,,,,,,,,,,,,,,,,,,,,,,,,,,,,,,,,,,,,,,,,,,,M05D02,2021_Oct_14_1555,ER,2021.1.4,59.96958416309927,
1,StimuliNeutral.xlsx,1,ANSCHAUEN,21,Stimuli/7025.jpg,1,,,,0,0,0,0,0,0,0,11,,,,,,,,,,,,,4.5,88.46690175026197,6.031297428551625,None,,,,,,,,,,,,,,,M05D02,2021_Oct_14_1555,ER,2021.1.4,59.96958416309927,
1,StimuliNeutral.xlsx,1,ANSCHAUEN,21,Stimuli/7006.jpg,1,,,,0,0,0,0,0,1,1,8,,,,,,,,,,,,,3.4,97.91158348114368,6.012711131728793,None,,,,,,,,,,,,,,,M05D02,2021_Oct_14_1555,ER,2021.1.4,59.96958416309927,
1,StimuliNeutral.xlsx,1,ANSCHAUEN,21,Stimuli/7100.jpg,1,,,,0,0,0,0,0,2,2,13,,,,,,,,,,,,,3.3,107.2613938391296,6.012663332248849,None,,,,,,,,,,,,,,,M05D02,2021_Oct_14_1555,ER,2021.1.4,59.96958416309927,
1,StimuliNeutral.xlsx,1,ANSCHAUEN,21,Stimuli/143.jpg,1,,,,0,0,0,0,0,3,3,4,,,,,,,,,,,,,4.7,118.01722962579515,6.0006746462913725,None,,,,,,,,,,,,,,,M05D02,2021_Oct_14_1555,ER,2021.1.4,59.96958416309927,
1,StimuliNeutral.xlsx,1,ANSCHAUEN,21,Stimuli/7009.jpg,1,,,,0,0,0,0,0,4,4,9,,,,,,,,,,,,,4.3,128.37446911303778,6.002787447279843,None,,,,,,,,,,,,,,,M05D02,2021_Oct_14_1555,ER,2021.1.4,59.96958416309927,
1,StimuliNeutral.xlsx,1,ANSCHAUEN,21,Stimuli/7211.jpg,1,,,,0,0,0,0,0,5,5,16,,,,,,,,,,,,,4.6,139.0355573563229,6.0142570758453076,None,,,,,,,,,,,,,,,M05D02,2021_Oct_14_1555,ER,2021.1.4,59.96958416309927,
1,StimuliNeutral.xlsx,1,ANSCHAUEN,21,Stimuli/124.jpg,1,,,,0,0,0,0,0,6,6,2,,,,,,,,,,,,,3.4,148.49748186587385,6.007293430073332,None,,,,,,,,,,,,,,,M05D02,2021_Oct_14_1555,ER,2021.1.4,59.96958416309927,
1,StimuliNeutral.xlsx,1,ANSCHAUEN,21,Stimuli/7002.jpg,1,,,,0,0,0,0,0,7,7,6,,,,,,,,,,,,,3.3,157.8507052347486,6.001500711055996,None,,,,,,,,,,,,,,,M05D02,2021_Oct_14_1555,ER,2021.1.4,59.96958416309927,
1,StimuliNeutral.xlsx,1,ANSCHAUEN,21,Stimuli/7004.jpg,1,,,,0,0,0,0,0,8,8,7,,,,,,,,,,,,,4.5,168.39718605448616,6.009174932929454,None,,,,,,,,,,,,,,,M05D02,2021_Oct_14_1555,ER,2021.1.4,59.96958416309927,
1,StimuliNeutral.xlsx,1,ANSCHAUEN,21,Stimuli/083.jpg,1,,,,0,0,0,0,0,9,9,0,,,,,,,,,,,,,4.2,178.65462472759828,6.009555724724123,None,,,,,,,,,,,,,,,M05D02,2021_Oct_14_1555,ER,2021.1.4,59.96958416309927,
1,StimuliNeutral.xlsx,1,ANSCHAUEN,21,Stimuli/7185.jpg,1,,,,0,0,0,0,0,10,10,15,,,,,,,,,,,,,4.6,189.32591479053735,6.001729442778014,None,,,,,,,,,,,,,,,M05D02,2021_Oct_14_1555,ER,2021.1.4,59.96958416309927,
1,StimuliNeutral.xlsx,1,ANSCHAUEN,21,Stimuli/7233.jpg,1,,,,0,0,0,0,0,11,11,18,,,,,,,,,,,,,4.9,200.2873470296472,6.011582550816456,None,,,,,,,,,,,,,,,M05D02,2021_Oct_14_1555,ER,2021.1.4,59.96958416309927,
1,StimuliNeutral.xlsx,1,ANSCHAUEN,21,Stimuli/7224.jpg,1,,,,0,0,0,0,0,12,12,17,,,,,,,,,,,,,4.2,210.54850989144325,6.003861171073368,None,,,,,,,,,,,,,,,M05D02,2021_Oct_14_1555,ER,2021.1.4,59.96958416309927,
1,StimuliNeutral.xlsx,1,ANSCHAUEN,21,Stimuli/7000.jpg,1,,,,0,0,0,0,0,13,13,5,,,,,,,,,,,,,3.5,220.09887465918837,6.00431125607065,None,,,,,,,,,,,,,,,M05D02,2021_Oct_14_1555,ER,2021.1.4,59.96958416309927,
1,StimuliNeutral.xlsx,1,ANSCHAUEN,21,Stimuli/7021.jpg,1,,,,0,0,0,0,0,14,14,10,,,,,,,,,,,,,4.9,231.05825376645407,6.000811628680822,None,,,,,,,,,,,,,,,M05D02,2021_Oct_14_1555,ER,2021.1.4,59.96958416309927,
1,StimuliNeutral.xlsx,1,ANSCHAUEN,21,Stimuli/7235.jpg,1,,,,0,0,0,0,0,15,15,19,,,,,,,,,,,,,4.1,241.21309679971273,6.007756347144095,None,,,,,,,,,,,,,,,M05D02,2021_Oct_14_1555,ER,2021.1.4,59.96958416309927,
1,StimuliNeutral.xlsx,1,ANSCHAUEN,21,Stimuli/7041.jpg,1,,,,0,0,0,0,0,16,16,12,,,,,,,,,,,,,4.9,252.16797537781713,5.998812712350627,None,,,,,,,,,,,,,,,M05D02,2021_Oct_14_1555,ER,2021.1.4,59.96958416309927,
1,StimuliNeutral.xlsx,1,ANSCHAUEN,21,Stimuli/7150.jpg,1,,,,0,0,0,0,0,17,17,14,,,,,,,,,,,,,4.9,263.1015851140237,6.014817837480223,None,,,,,,,,,,,,,,,M05D02,2021_Oct_14_1555,ER,2021.1.4,59.96958416309927,
1,StimuliNeutral.xlsx,1,ANSCHAUEN,21,Stimuli/140.jpg,1,,,,0,0,0,0,0,18,18,3,,,,,,,,,,,,,4.2,273.3688435317854,6.0140796724226675,None,,,,,,,,,,,,,,,M05D02,2021_Oct_14_1555,ER,2021.1.4,59.96958416309927,
1,StimuliNeutral.xlsx,1,ANSCHAUEN,21,Stimuli/107.jpg,1,,,,0,0,0,0,0,19,19,1,,,,,,,,,,,,,3.4,282.8135688917155,6.007252688239532,None,,,,,,,,,,,,,,,M05D02,2021_Oct_14_1555,ER,2021.1.4,59.96958416309927,
1,StimuliNeutral.xlsx,1,ANSCHAUEN,21,,,,,,0,0,0,0,,,,,,,,,,,,,,,,,,,,,14.074074074074083,4.816669441603153,25.185185185185176,2.5643934326726594,,,,,,,,,,,M05D02,2021_Oct_14_1555,ER,2021.1.4,59.96958416309927,
2,StimuliNegative.xlsx,1,ANSCHAUEN,22,Stimuli/9402.jpg,,,,,0,1,1,1,0,0,0,16,,,,,,,,,,,,,4.4,304.85724542207754,6.004410063040268,None,,,,,,,,,,,,,,,M05D02,2021_Oct_14_1555,ER,2021.1.4,59.96958416309927,
2,StimuliNegative.xlsx,1,ANSCHAUEN,22,Stimuli/8231.jpg,,,,,0,1,1,1,0,1,1,13,,,,,,,,,,,,,4.6,315.51745691390533,6.000972992012976,None,,,,,,,,,,,,,,,M05D02,2021_Oct_14_1555,ER,2021.1.4,59.96958416309927,
2,StimuliNegative.xlsx,1,ANSCHAUEN,22,Stimuli/6831.jpg,,,,,0,1,1,1,0,2,2,12,,,,,,,,,,,,,3.7,325.26411937165176,6.006097801575379,None,,,,,,,,,,,,,,,M05D02,2021_Oct_14_1555,ER,2021.1.4,59.96958416309927,
2,StimuliNegative.xlsx,1,ANSCHAUEN,22,Stimuli/3225.jpg,,,,,0,1,1,1,0,3,3,9,,,,,,,,,,,,,4.6,335.92210578184313,6.006657921609076,None,,,,,,,,,,,,,,,M05D02,2021_Oct_14_1555,ER,2021.1.4,59.96958416309927,
2,StimuliNegative.xlsx,1,ANSCHAUEN,22,Stimuli/238.jpg,,,,,0,1,1,1,0,4,4,1,,,,,,,,,,,,,3.2,345.1766290077376,6.013807311650453,None,,,,,,,,,,,,,,,M05D02,2021_Oct_14_1555,ER,2021.1.4,59.96958416309927,
2,StimuliNegative.xlsx,1,ANSCHAUEN,22,Stimuli/6571.jpg,,,,,0,1,1,1,0,5,5,11,,,,,,,,,,,,,4.3,355.53999163990375,6.005841480895469,None,,,,,,,,,,,,,,,M05D02,2021_Oct_14_1555,ER,2021.1.4,59.96958416309927,
2,StimuliNegative.xlsx,1,ANSCHAUEN,22,Stimuli/245.jpg,,,,,0,1,1,1,0,6,6,2,,,,,,,,,,,,,3.0,364.58939993693093,6.006200778971106,None,,,,,,,,,,,,,,,M05D02,2021_Oct_14_1555,ER,2021.1.4,59.96958416309927,
2,StimuliNegative.xlsx,1,ANSCHAUEN,22,Stimuli/223.jpg,,,,,0,1,1,1,0,7,7,0,,,,,,,,,,,,,4.1,374.73055788404235,6.006407054559531,None,,,,,,,,,,,,,,,M05D02,2021_Oct_14_1555,ER,2021.1.4,59.96958416309927,
2,StimuliNegative.xlsx,1,ANSCHAUEN,22,Stimuli/2981.jpg,,,,,0,1,1,1,0,8,8,3,,,,,,,,,,,,,4.1,384.8903922732952,6.00596691442297,None,,,,,,,,,,,,,,,M05D02,2021_Oct_14_1555,ER,2021.1.4,59.96958416309927,
2,StimuliNegative.xlsx,1,ANSCHAUEN,22,Stimuli/3215.jpg,,,,,0,1,1,1,0,9,9,7,,,,,,,,,,,,,4.8,395.748101574849,6.005402303162555,None,,,,,,,,,,,,,,,M05D02,2021_Oct_14_1555,ER,2021.1.4,59.96958416309927,
2,StimuliNegative.xlsx,1,ANSCHAUEN,22,Stimuli/3016.jpg,,,,,0,1,1,1,0,10,10,4,,,,,,,,,,,,,3.4,405.17805272635087,6.012704715689324,None,,,,,,,,,,,,,,,M05D02,2021_Oct_14_1555,ER,2021.1.4,59.96958416309927,
2,StimuliNegative.xlsx,1,ANSCHAUEN,22,Stimuli/3220.jpg,,,,,0,1,1,1,0,11,11,8,,,,,,,,,,,,,5.0,416.23320722612516,6.001207498164149,None,,,,,,,,,,,,,,,M05D02,2021_Oct_14_1555,ER,2021.1.4,59.96958416309927,
2,StimuliNegative.xlsx,1,ANSCHAUEN,22,Stimuli/9373.jpg,,,,,0,1,1,1,0,12,12,14,,,,,,,,,,,,,3.7,425.98022673633204,6.008160557476003,None,,,,,,,,,,,,,,,M05D02,2021_Oct_14_1555,ER,2021.1.4,59.96958416309927,
2,StimuliNegative.xlsx,1,ANSCHAUEN,22,Stimuli/9405.jpg,,,,,0,1,1,1,0,13,13,18,,,,,,,,,,,,,4.8,436.8352342446997,6.014857616910376,None,,,,,,,,,,,,,,,M05D02,2021_Oct_14_1555,ER,2021.1.4,59.96958416309927,
2,StimuliNegative.xlsx,1,ANSCHAUEN,22,Stimuli/3101.jpg,,,,,0,1,1,1,0,14,14,5,,,,,,,,,,,,,4.9,447.7987186532482,6.004459145724468,None,,,,,,,,,,,,,,,M05D02,2021_Oct_14_1555,ER,2021.1.4,59.96958416309927,
2,StimuliNegative.xlsx,1,ANSCHAUEN,22,Stimuli/3181.jpg,,,,,0,1,1,1,0,15,15,6,,,,,,,,,,,,,4.2,458.0348329857443,6.015614709278452,None,,,,,,,,,,,,,,,M05D02,2021_Oct_14_1555,ER,2021.1.4,59.96958416309927,
2,StimuliNegative.xlsx,1,ANSCHAUEN,22,Stimuli/9403.jpg,,,,,0,1,1,1,0,16,16,17,,,,,,,,,,,,,4.5,468.6106479267055,6.013936915600425,None,,,,,,,,,,,,,,,M05D02,2021_Oct_14_1555,ER,2021.1.4,59.96958416309927,
2,StimuliNegative.xlsx,1,ANSCHAUEN,22,Stimuli/6020.jpg,,,,,0,1,1,1,0,17,17,10,,,,,,,,,,,,,4.1,478.7688317904376,6.013710429493585,None,,,,,,,,,,,,,,,M05D02,2021_Oct_14_1555,ER,2021.1.4,59.96958416309927,
2,StimuliNegative.xlsx,1,ANSCHAUEN,22,Stimuli/9400.jpg,,,,,0,1,1,1,0,18,18,15,,,,,,,,,,,,,4.4,489.2171417902482,6.001550435341414,None,,,,,,,,,,,,,,,M05D02,2021_Oct_14_1555,ER,2021.1.4,59.96958416309927,
2,StimuliNegative.xlsx,1,ANSCHAUEN,22,Stimuli/9423.jpg,,,,,0,1,1,1,0,19,19,19,,,,,,,,,,,,,3.7,498.96639728935224,6.003284369346147,None,,,,,,,,,,,,,,,M05D02,2021_Oct_14_1555,ER,2021.1.4,59.96958416309927,
2,StimuliNegative.xlsx,1,ANSCHAUEN,22,,,,,,0,1,1,1,,,,,,,,,,,,,,,,,,,,,178.14814814814815,5.619158158198843,87.03703703703705,2.304087432617962,,,,,,,,,,,M05D02,2021_Oct_14_1555,ER,2021.1.4,59.96958416309927,
3,,1,ABLENKEN,,Stimuli/2703.jpg,,StimuliNegative.xlsx,23,"Denken Sie während des Betrachtens der Bilder an etwas Neutrales, das mit dem Bild nichts zu tun hat. Das könnten geometrische Figuren, Alltagstätigkeiten oder bekannte Orte sein.",,,,,,,,,0,0,0,0,0,0,0,6,,,,,3.1,,,,,,,,523.9764730338775,6.000464841881694,None,,,,,,,,M05D02,2021_Oct_14_1555,ER,2021.1.4,59.96958416309927,
3,,1,ABLENKEN,,Stimuli/9040.jpg,,StimuliNegative.xlsx,23,"Denken Sie während des Betrachtens der Bilder an etwas Neutrales, das mit dem Bild nichts zu tun hat. Das könnten geometrische Figuren, Alltagstätigkeiten oder bekannte Orte sein.",,,,,,,,,0,0,0,0,0,1,1,13,,,,,3.8,,,,,,,,533.8300488035857,6.010014150569987,None,,,,,,,,M05D02,2021_Oct_14_1555,ER,2021.1.4,59.96958416309927,
3,,1,ABLENKEN,,Stimuli/3051.jpg,,StimuliNegative.xlsx,23,"Denken Sie während des Betrachtens der Bilder an etwas Neutrales, das mit dem Bild nichts zu tun hat. Das könnten geometrische Figuren, Alltagstätigkeiten oder bekannte Orte sein.",,,,,,,,,0,0,0,0,0,2,2,7,,,,,3.8,,,,,,,,543.684964241822,6.01532695001697,None,,,,,,,,M05D02,2021_Oct_14_1555,ER,2021.1.4,59.96958416309927,
3,,1,ABLENKEN,,Stimuli/218.jpg,,StimuliNegative.xlsx,23,"Denken Sie während des Betrachtens der Bilder an etwas Neutrales, das mit dem Bild nichts zu tun hat. Das könnten geometrische Figuren, Alltagstätigkeiten oder bekannte Orte sein.",,,,,,,,,0,0,0,0,0,3,3,1,,,,,3.8,,,,,,,,553.5521657493337,6.014152815245325,None,,,,,,,,M05D02,2021_Oct_14_1555,ER,2021.1.4,59.96958416309927,
3,,1,ABLENKEN,,Stimuli/3185.jpg,,StimuliNegative.xlsx,23,"Denken Sie während des Betrachtens der Bilder an etwas Neutrales, das mit dem Bild nichts zu tun hat. Das könnten geometrische Figuren, Alltagstätigkeiten oder bekannte Orte sein.",,,,,,,,,0,0,0,0,0,4,4,9,,,,,4.3,,,,,,,,563.9239497508806,6.003509251444484,None,,,,,,,,M05D02,2021_Oct_14_1555,ER,2021.1.4,59.96958416309927,
3,,1,ABLENKEN,,Stimuli/6562.jpg,,StimuliNegative.xlsx,23,"Denken Sie während des Betrachtens der Bilder an etwas Neutrales, das mit dem Bild nichts zu tun hat. Das könnten geometrische Figuren, Alltagstätigkeiten oder bekannte Orte sein.",,,,,,,,,0,0,0,0,0,5,5,11,,,,,4.7,,,,,,,,574.6800710511943,6.009043083367942,None,,,,,,,,M05D02,2021_Oct_14_1555,ER,2021.1.4,59.96958416309927,
3,,1,ABLENKEN,,Stimuli/9042.jpg,,StimuliNegative.xlsx,23,"Denken Sie während des Betrachtens der Bilder an etwas Neutrales, das mit dem Bild nichts zu tun hat. Das könnten geometrische Figuren, Alltagstätigkeiten oder bekannte Orte sein.",,,,,,,,,0,0,0,0,0,6,6,14,,,,,4.5,,,,,,,,585.2369285275927,6.0110936487981235,None,,,,,,,,M05D02,2021_Oct_14_1555,ER,2021.1.4,59.96958416309927,
3,,1,ABLENKEN,,Stimuli/3301.jpg,,StimuliNegative.xlsx,23,"Denken Sie während des Betrachtens der Bilder an etwas Neutrales, das mit dem Bild nichts zu tun hat. Das könnten geometrische Figuren, Alltagstätigkeiten oder bekannte Orte sein.",,,,,,,,,0,0,0,0,0,7,7,10,,,,,4.5,,,,,,,,595.7987934000794,6.002892670285291,None,,,,,,,,M05D02,2021_Oct_14_1555,ER,2021.1.4,59.96958416309927,
3,,1,ABLENKEN,,Stimuli/9904.jpg,,StimuliNegative.xlsx,23,"Denken Sie während des Betrachtens der Bilder an etwas Neutrales, das mit dem Bild nichts zu tun hat. Das könnten geometrische Figuren, Alltagstätigkeiten oder bekannte Orte sein.",,,,,,,,,0,0,0,0,0,8,8,19,,,,,3.6,,,,,,,,605.449597056835,6.0019052421903325,None,,,,,,,,M05D02,2021_Oct_14_1555,ER,2021.1.4,59.96958416309927,
3,,1,ABLENKEN,,Stimuli/251.jpg,,StimuliNegative.xlsx,23,"Denken Sie während des Betrachtens der Bilder an etwas Neutrales, das mit dem Bild nichts zu tun hat. Das könnten geometrische Figuren, Alltagstätigkeiten oder bekannte Orte sein.",,,,,,,,,0,0,0,0,0,9,9,5,,,,,4.1,,,,,,,,615.586614414462,6.010679493607313,None,,,,,,,,M05D02,2021_Oct_14_1555,ER,2021.1.4,59.96958416309927,
3,,1,ABLENKEN,,Stimuli/222.jpg,,StimuliNegative.xlsx,23,"Denken Sie während des Betrachtens der Bilder an etwas Neutrales, das mit dem Bild nichts zu tun hat. Das könnten geometrische Figuren, Alltagstätigkeiten oder bekannte Orte sein.",,,,,,,,,0,0,0,0,0,10,10,2,,,,,3.3,,,,,,,,624.9394027760263,6.005563987297137,None,,,,,,,,M05D02,2021_Oct_14_1555,ER,2021.1.4,59.96958416309927,
3,,1,ABLENKEN,,Stimuli/9043.jpg,,StimuliNegative.xlsx,23,"Denken Sie während des Betrachtens der Bilder an etwas Neutrales, das mit dem Bild nichts zu tun hat. Das könnten geometrische Figuren, Alltagstätigkeiten oder bekannte Orte sein.",,,,,,,,,0,0,0,0,0,11,11,15,,,,,4.8,,,,,,,,635.8177114060145,6.000311498595693,None,,,,,,,,M05D02,2021_Oct_14_1555,ER,2021.1.4,59.96958416309927,
3,,1,ABLENKEN,,Stimuli/210.jpg,,StimuliNegative.xlsx,23,"Denken Sie während des Betrachtens der Bilder an etwas Neutrales, das mit dem Bild nichts zu tun hat. Das könnten geometrische Figuren, Alltagstätigkeiten oder bekannte Orte sein.",,,,,,,,,0,0,0,0,0,12,12,0,,,,,4.2,,,,,,,,646.0638469467194,6.007688657953622,None,,,,,,,,M05D02,2021_Oct_14_1555,ER,2021.1.4,59.96958416309927,
3,,1,ABLENKEN,,Stimuli/246.jpg,,StimuliNegative.xlsx,23,"Denken Sie während des Betrachtens der Bilder an etwas Neutrales, das mit dem Bild nichts zu tun hat. Das könnten geometrische Figuren, Alltagstätigkeiten oder bekannte Orte sein.",,,,,,,,,0,0,0,0,0,13,13,4,,,,,3.1,,,,,,,,655.2087547466635,6.000888300326551,None,,,,,,,,M05D02,2021_Oct_14_1555,ER,2021.1.4,59.96958416309927,
3,,1,ABLENKEN,,Stimuli/9184.jpg,,StimuliNegative.xlsx,23,"Denken Sie während des Betrachtens der Bilder an etwas Neutrales, das mit dem Bild nichts zu tun hat. Das könnten geometrische Figuren, Alltagstätigkeiten oder bekannte Orte sein.",,,,,,,,,0,0,0,0,0,14,14,18,,,,,3.9,,,,,,,,665.1778660196742,6.013674820487722,None,,,,,,,,M05D02,2021_Oct_14_1555,ER,2021.1.4,59.96958416309927,
3,,1,ABLENKEN,,Stimuli/9145.jpg,,StimuliNegative.xlsx,23,"Denken Sie während des Betrachtens der Bilder an etwas Neutrales, das mit dem Bild nichts zu tun hat. Das könnten geometrische Figuren, Alltagstätigkeiten oder bekannte Orte sein.",,,,,,,,,0,0,0,0,0,15,15,16,,,,,4.8,,,,,,,,676.0385154701889,6.008025179093238,None,,,,,,,,M05D02,2021_Oct_14_1555,ER,2021.1.4,59.96958416309927,
3,,1,ABLENKEN,,Stimuli/3160.jpg,,StimuliNegative.xlsx,23,"Denken Sie während des Betrachtens der Bilder an etwas Neutrales, das mit dem Bild nichts zu tun hat. Das könnten geometrische Figuren, Alltagstätigkeiten oder bekannte Orte sein.",,,,,,,,,0,0,0,0,0,16,16,8,,,,,4.8,,,,,,,,686.9005106844652,6.000846275281219,None,,,,,,,,M05D02,2021_Oct_14_1555,ER,2021.1.4,59.96958416309927,
3,,1,ABLENKEN,,Stimuli/9031.jpg,,StimuliNegative.xlsx,23,"Denken Sie während des Betrachtens der Bilder an etwas Neutrales, das mit dem Bild nichts zu tun hat. Das könnten geometrische Figuren, Alltagstätigkeiten oder bekannte Orte sein.",,,,,,,,,0,0,0,0,0,17,17,12,,,,,3.6,,,,,,,,696.5505870834277,6.000779548498031,None,,,,,,,,M05D02,2021_Oct_14_1555,ER,2021.1.4,59.96958416309927,
3,,1,ABLENKEN,,Stimuli/228.jpg,,StimuliNegative.xlsx,23,"Denken Sie während des Betrachtens der Bilder an etwas Neutrales, das mit dem Bild nichts zu tun hat. Das könnten geometrische Figuren, Alltagstätigkeiten oder bekannte Orte sein.",,,,,,,,,0,0,0,0,0,18,18,3,,,,,3.3,,,,,,,,705.89416329905,6.012152615705418,None,,,,,,,,M05D02,2021_Oct_14_1555,ER,2021.1.4,59.96958416309927,
3,,1,ABLENKEN,,Stimuli/9160.jpg,,StimuliNegative.xlsx,23,"Denken Sie während des Betrachtens der Bilder an etwas Neutrales, das mit dem Bild nichts zu tun hat. Das könnten geometrische Figuren, Alltagstätigkeiten oder bekannte Orte sein.",,,,,,,,,0,0,0,0,0,19,19,17,,,,,4.3,,,,,,,,716.2555793055853,6.007872156613303,None,,,,,,,,M05D02,2021_Oct_14_1555,ER,2021.1.4,59.96958416309927,
3,,1,ABLENKEN,,,,StimuliNegative.xlsx,23,"Denken Sie während des Betrachtens der Bilder an etwas Neutrales, das mit dem Bild nichts zu tun hat. Das könnten geometrische Figuren, Alltagstätigkeiten oder bekannte Orte sein.",,,,,,,,,0,0,0,0,,,,,,,,,,,,,138.14814814814815,4.212136318972625,212.22222222222223,2.898464610263545,,,,,,,,,,,M05D02,2021_Oct_14_1555,ER,2021.1.4,59.96958416309927,
5,,1,UNTERDRÜCKEN,,Stimuli/3280.jpg,,StimuliNegative.xlsx,25,"Unterdrücken Sie alle aufkommenden Emotionen. Wenn Sie also die Bilder ansehen, verhalten Sie sich so, dass eine außenstehende Person nicht sehen kann, welche Emotionen Sie gerade empfinden.",,,,,,,,,0,1,1,2,0,0,0,8,,,,,4.3,,,,,,,,740.2689461562968,6.014051762660529,None,,,,,,,,M05D02,2021_Oct_14_1555,ER,2021.1.4,59.96958416309927,
5,,1,UNTERDRÜCKEN,,Stimuli/9326.jpg,,StimuliNegative.xlsx,25,"Unterdrücken Sie alle aufkommenden Emotionen. Wenn Sie also die Bilder ansehen, verhalten Sie sich so, dass eine außenstehende Person nicht sehen kann, welche Emotionen Sie gerade empfinden.",,,,,,,,,0,1,1,2,0,1,1,16,,,,,3.6,,,,,,,,749.9339716006962,5.999932952412564,None,,,,,,,,M05D02,2021_Oct_14_1555,ER,2021.1.4,59.96958416309927,
5,,1,UNTERDRÜCKEN,,Stimuli/6244.jpg,,StimuliNegative.xlsx,25,"Unterdrücken Sie alle aufkommenden Emotionen. Wenn Sie also die Bilder ansehen, verhalten Sie sich so, dass eine außenstehende Person nicht sehen kann, welche Emotionen Sie gerade empfinden.",,,,,,,,,0,1,1,2,0,2,2,10,,,,,3.1,,,,,,,,759.0772327247396,6.0131541590835695,None,,,,,,,,M05D02,2021_Oct_14_1555,ER,2021.1.4,59.96958416309927,
5,,1,UNTERDRÜCKEN,,Stimuli/9180.jpg,,StimuliNegative.xlsx,25,"Unterdrücken Sie alle aufkommenden Emotionen. Wenn Sie also die Bilder ansehen, verhalten Sie sich so, dass eine außenstehende Person nicht sehen kann, welche Emotionen Sie gerade empfinden.",,,,,,,,,0,1,1,2,0,3,3,12,,,,,3.5,,,,,,,,768.6286112263333,6.010486370892977,None,,,,,,,,M05D02,2021_Oct_14_1555,ER,2021.1.4,59.96958416309927,
5,,1,UNTERDRÜCKEN,,Stimuli/9425.jpg,,StimuliNegative.xlsx,25,"Unterdrücken Sie alle aufkommenden Emotionen. Wenn Sie also die Bilder ansehen, verhalten Sie sich so, dass eine außenstehende Person nicht sehen kann, welche Emotionen Sie gerade empfinden.",,,,,,,,,0,1,1,2,0,4,4,18,,,,,3.9,,,,,,,,778.5689170595688,6.013452504805173,None,,,,,,,,M05D02,2021_Oct_14_1555,ER,2021.1.4,59.96958416309927,
5,,1,UNTERDRÜCKEN,,Stimuli/3022.jpg,,StimuliNegative.xlsx,25,"Unterdrücken Sie alle aufkommenden Emotionen. Wenn Sie also die Bilder ansehen, verhalten Sie sich so, dass eine außenstehende Person nicht sehen kann, welche Emotionen Sie gerade empfinden.",,,,,,,,,0,1,1,2,0,5,5,6,,,,,3.5,,,,,,,,788.1286983240352,6.010213689320153,None,,,,,,,,M05D02,2021_Oct_14_1555,ER,2021.1.4,59.96958416309927,
5,,1,UNTERDRÜCKEN,,Stimuli/9253.jpg,,StimuliNegative.xlsx,25,"Unterdrücken Sie alle aufkommenden Emotionen. Wenn Sie also die Bilder ansehen, verhalten Sie sich so, dass eine außenstehende Person nicht sehen kann, welche Emotionen Sie gerade empfinden.",,,,,,,,,0,1,1,2,0,6,6,14,,,,,4.3,,,,,,,,798.4856853402216,6.014003321583004,None,,,,,,,,M05D02,2021_Oct_14_1555,ER,2021.1.4,59.96958416309927,
5,,1,UNTERDRÜCKEN,,Stimuli/327.jpg,,StimuliNegative.xlsx,25,"Unterdrücken Sie alle aufkommenden Emotionen. Wenn Sie also die Bilder ansehen, verhalten Sie sich so, dass eine außenstehende Person nicht sehen kann, welche Emotionen Sie gerade empfinden.",,,,,,,,,0,1,1,2,0,7,7,3,,,,,3.5,,,,,,,,808.0439960490039,6.01271177333183,None,,,,,,,,M05D02,2021_Oct_14_1555,ER,2021.1.4,59.96958416309927,
5,,1,UNTERDRÜCKEN,,Stimuli/3017.jpg,,StimuliNegative.xlsx,25,"Unterdrücken Sie alle aufkommenden Emotionen. Wenn Sie also die Bilder ansehen, verhalten Sie sich so, dass eine außenstehende Person nicht sehen kann, welche Emotionen Sie gerade empfinden.",,,,,,,,,0,1,1,2,0,8,8,5,,,,,4.9,,,,,,,,819.0109034133002,6.011883783756275,None,,,,,,,,M05D02,2021_Oct_14_1555,ER,2021.1.4,59.96958416309927,
5,,1,UNTERDRÜCKEN,,Stimuli/6190.jpg,,StimuliNegative.xlsx,25,"Unterdrücken Sie alle aufkommenden Emotionen. Wenn Sie also die Bilder ansehen, verhalten Sie sich so, dass eine außenstehende Person nicht sehen kann, welche Emotionen Sie gerade empfinden.",,,,,,,,,0,1,1,2,0,9,9,9,,,,,4.9,,,,,,,,829.9677401658992,6.015443721891643,None,,,,,,,,M05D02,2021_Oct_14_1555,ER,2021.1.4,59.96958416309927,
5,,1,UNTERDRÜCKEN,,Stimuli/9920.jpg,,StimuliNegative.xlsx,25,"Unterdrücken Sie alle aufkommenden Emotionen. Wenn Sie also die Bilder ansehen, verhalten Sie sich so, dass eine außenstehende Person nicht sehen kann, welche Emotionen Sie gerade empfinden.",,,,,,,,,0,1,1,2,0,10,10,19,,,,,3.6,,,,,,,,839.6298992457632,6.008958391679698,None,,,,,,,,M05D02,2021_Oct_14_1555,ER,2021.1.4,59.96958416309927,
5,,1,UNTERDRÜCKEN,,Stimuli/3180.jpg,,StimuliNegative.xlsx,25,"Unterdrücken Sie alle aufkommenden Emotionen. Wenn Sie also die Bilder ansehen, verhalten Sie sich so, dass eine außenstehende Person nicht sehen kann, welche Emotionen Sie gerade empfinden.",,,,,,,,,0,1,1,2,0,11,11,7,,,,,4.1,,,,,,,,849.7653372958775,6.004817160590392,None,,,,,,,,M05D02,2021_Oct_14_1555,ER,2021.1.4,59.96958416309927,
5,,1,UNTERDRÜCKEN,,Stimuli/9424.jpg,,StimuliNegative.xlsx,25,"Unterdrücken Sie alle aufkommenden Emotionen. Wenn Sie also die Bilder ansehen, verhalten Sie sich so, dass eine außenstehende Person nicht sehen kann, welche Emotionen Sie gerade empfinden.",,,,,,,,,0,1,1,2,0,12,12,17,,,,,3.6,,,,,,,,859.4144724622092,6.007024598122371,None,,,,,,,,M05D02,2021_Oct_14_1555,ER,2021.1.4,59.96958416309927,
5,,1,UNTERDRÜCKEN,,Stimuli/225.jpg,,StimuliNegative.xlsx,25,"Unterdrücken Sie alle aufkommenden Emotionen. Wenn Sie also die Bilder ansehen, verhalten Sie sich so, dass eine außenstehende Person nicht sehen kann, welche Emotionen Sie gerade empfinden.",,,,,,,,,0,1,1,2,0,13,13,0,,,,,4.7,,,,,,,,870.1635938661402,6.007516066556491,None,,,,,,,,M05D02,2021_Oct_14_1555,ER,2021.1.4,59.96958416309927,
5,,1,UNTERDRÜCKEN,,Stimuli/6836.jpg,,StimuliNegative.xlsx,25,"Unterdrücken Sie alle aufkommenden Emotionen. Wenn Sie also die Bilder ansehen, verhalten Sie sich so, dass eine außenstehende Person nicht sehen kann, welche Emotionen Sie gerade empfinden.",,,,,,,,,0,1,1,2,0,14,14,11,,,,,4.3,,,,,,,,880.5217986461521,6.006632899059696,None,,,,,,,,M05D02,2021_Oct_14_1555,ER,2021.1.4,59.96958416309927,
5,,1,UNTERDRÜCKEN,,Stimuli/255.jpg,,StimuliNegative.xlsx,25,"Unterdrücken Sie alle aufkommenden Emotionen. Wenn Sie also die Bilder ansehen, verhalten Sie sich so, dass eine außenstehende Person nicht sehen kann, welche Emotionen Sie gerade empfinden.",,,,,,,,,0,1,1,2,0,15,15,2,,,,,3.1,,,,,,,,889.6733887486444,6.0039532412065455,None,,,,,,,,M05D02,2021_Oct_14_1555,ER,2021.1.4,59.96958416309927,
5,,1,UNTERDRÜCKEN,,Stimuli/9300.jpg,,StimuliNegative.xlsx,25,"Unterdrücken Sie alle aufkommenden Emotionen. Wenn Sie also die Bilder ansehen, verhalten Sie sich so, dass eine außenstehende Person nicht sehen kann, welche Emotionen Sie gerade empfinden.",,,,,,,,,0,1,1,2,0,16,16,15,,,,,4.9,,,,,,,,900.6375513323055,6.009909569167576,None,,,,,,,,M05D02,2021_Oct_14_1555,ER,2021.1.4,59.96958416309927,
5,,1,UNTERDRÜCKEN,,Stimuli/1111.jpg,,StimuliNegative.xlsx,25,"Unterdrücken Sie alle aufkommenden Emotionen. Wenn Sie also die Bilder ansehen, verhalten Sie sich so, dass eine außenstehende Person nicht sehen kann, welche Emotionen Sie gerade empfinden.",,,,,,,,,0,1,1,2,0,17,17,4,,,,,3.3,,,,,,,,909.9988258652265,6.005530623904633,None,,,,,,,,M05D02,2021_Oct_14_1555,ER,2021.1.4,59.96958416309927,
5,,1,UNTERDRÜCKEN,,Stimuli/230.jpg,,StimuliNegative.xlsx,25,"Unterdrücken Sie alle aufkommenden Emotionen. Wenn Sie also die Bilder ansehen, verhalten Sie sich so, dass eine außenstehende Person nicht sehen kann, welche Emotionen Sie gerade empfinden.",,,,,,,,,0,1,1,2,0,18,18,1,,,,,4.9,,,,,,,,920.948954971931,6.003085793001446,None,,,,,,,,M05D02,2021_Oct_14_1555,ER,2021.1.4,59.96958416309927,
5,,1,UNTERDRÜCKEN,,Stimuli/9182.jpg,,StimuliNegative.xlsx,25,"Unterdrücken Sie alle aufkommenden Emotionen. Wenn Sie also die Bilder ansehen, verhalten Sie sich so, dass eine außenstehende Person nicht sehen kann, welche Emotionen Sie gerade empfinden.",,,,,,,,,0,1,1,2,0,19,19,13,,,,,4.7,,,,,,,,931.7094609919386,6.016082117575934,None,,,,,,,,M05D02,2021_Oct_14_1555,ER,2021.1.4,59.96958416309927,
5,,1,UNTERDRÜCKEN,,,,StimuliNegative.xlsx,25,"Unterdrücken Sie alle aufkommenden Emotionen. Wenn Sie also die Bilder ansehen, verhalten Sie sich so, dass eine außenstehende Person nicht sehen kann, welche Emotionen Sie gerade empfinden.",,,,,,,,,0,1,1,2,,,,,,,,,,,,,164.44444444444443,3.5700196555299044,90.74074074074075,2.18002918655111,,,,,,,,,,,M05D02,2021_Oct_14_1555,ER,2021.1.4,59.96958416309927,
4,,1,DISTANZIEREN,,Stimuli/9570.jpg,,StimuliNegative.xlsx,24,Nehmen Sie die Position eines uninvolvierten Beobachters ein. Denken Sie über das Bild in einer neutralen Weise nach.,,,,,,,,,0,2,2,1,0,0,0,18,,,,,3.3,,,,,,,,951.8877010665692,6.010287794546457,None,,,,,,,,M05D02,2021_Oct_14_1555,ER,2021.1.4,59.96958416309927,
4,,1,DISTANZIEREN,,Stimuli/3350.jpg,,StimuliNegative.xlsx,24,Nehmen Sie die Position eines uninvolvierten Beobachters ein. Denken Sie über das Bild in einer neutralen Weise nach.,,,,,,,,,0,2,2,1,0,1,1,7,,,,,4.7,,,,,,,,962.6483411817499,6.005266283178571,None,,,,,,,,M05D02,2021_Oct_14_1555,ER,2021.1.4,59.96958416309927,
4,,1,DISTANZIEREN,,Stimuli/6242.jpg,,StimuliNegative.xlsx,24,Nehmen Sie die Position eines uninvolvierten Beobachters ein. Denken Sie über das Bild in einer neutralen Weise nach.,,,,,,,,,0,2,2,1,0,2,2,8,,,,,3.3,,,,,,,,971.9953162929814,6.010186100358624,None,,,,,,,,M05D02,2021_Oct_14_1555,ER,2021.1.4,59.96958416309927,
4,,1,DISTANZIEREN,,Stimuli/9140.jpg,,StimuliNegative.xlsx,24,Nehmen Sie die Position eines uninvolvierten Beobachters ein. Denken Sie über das Bild in einer neutralen Weise nach.,,,,,,,,,0,2,2,1,0,3,3,15,,,,,4.3,,,,,,,,982.3534546670089,6.011995101996945,None,,,,,,,,M05D02,2021_Oct_14_1555,ER,2021.1.4,59.96958416309927,
4,,1,DISTANZIEREN,,Stimuli/1301.jpg,,StimuliNegative.xlsx,24,Nehmen Sie die Position eines uninvolvierten Beobachters ein. Denken Sie über das Bild in einer neutralen Weise nach.,,,,,,,,,0,2,2,1,0,4,4,6,,,,,4.3,,,,,,,,992.7167200962158,6.000746826706745,None,,,,,,,,M05D02,2021_Oct_14_1555,ER,2021.1.4,59.96958416309927,
4,,1,DISTANZIEREN,,Stimuli/9409.jpg,,StimuliNegative.xlsx,24,Nehmen Sie die Position eines uninvolvierten Beobachters ein. Denken Sie über das Bild in einer neutralen Weise nach.,,,,,,,,,0,2,2,1,0,5,5,17,,,,,4.1,,,,,,,,1002.8673349610817,6.000627488418104,None,,,,,,,,M05D02,2021_Oct_14_1555,ER,2021.1.4,59.96958416309927,
4,,1,DISTANZIEREN,,Stimuli/208.jpg,,StimuliNegative.xlsx,24,Nehmen Sie die Position eines uninvolvierten Beobachters ein. Denken Sie über das Bild in einer neutralen Weise nach.,,,,,,,,,0,2,2,1,0,6,6,0,,,,,3.2,,,,,,,,1012.1167192621306,6.000933212582822,None,,,,,,,,M05D02,2021_Oct_14_1555,ER,2021.1.4,59.96958416309927,
4,,1,DISTANZIEREN,,Stimuli/6555.jpg,,StimuliNegative.xlsx,24,Nehmen Sie die Position eines uninvolvierten Beobachters ein. Denken Sie über das Bild in einer neutralen Weise nach.,,,,,,,,,0,2,2,1,0,7,7,10,,,,,3.2,,,,,,,,1021.3475102087177,6.004526193311904,None,,,,,,,,M05D02,2021_Oct_14_1555,ER,2021.1.4,59.96958416309927,
4,,1,DISTANZIEREN,,Stimuli/254.jpg,,StimuliNegative.xlsx,24,Nehmen Sie die Position eines uninvolvierten Beobachters ein. Denken Sie über das Bild in einer neutralen Weise nach.,,,,,,,,,0,2,2,1,0,8,8,4,,,,,4.0,,,,,,,,1031.3959291528354,6.008574391862567,None,,,,,,,,M05D02,2021_Oct_14_1555,ER,2021.1.4,59.96958416309927,
4,,1,DISTANZIEREN,,Stimuli/6940.jpg,,StimuliNegative.xlsx,24,Nehmen Sie die Position eines uninvolvierten Beobachters ein. Denken Sie über das Bild in einer neutralen Weise nach.,,,,,,,,,0,2,2,1,0,9,9,12,,,,,3.9,,,,,,,,1041.3540863258531,6.010295493792,None,,,,,,,,M05D02,2021_Oct_14_1555,ER,2021.1.4,59.96958416309927,
4,,1,DISTANZIEREN,,Stimuli/219.jpg,,StimuliNegative.xlsx,24,Nehmen Sie die Position eines uninvolvierten Beobachters ein. Denken Sie über das Bild in einer neutralen Weise nach.,,,,,,,,,0,2,2,1,0,10,10,1,,,,,3.0,,,,,,,,1050.4080644452424,6.001494615820775,None,,,,,,,,M05D02,2021_Oct_14_1555,ER,2021.1.4,59.96958416309927,
4,,1,DISTANZIEREN,,Stimuli/9340.jpg,,StimuliNegative.xlsx,24,Nehmen Sie die Position eines uninvolvierten Beobachters ein. Denken Sie über das Bild in einer neutralen Weise nach.,,,,,,,,,0,2,2,1,0,11,11,16,,,,,3.5,,,,,,,,1059.9670780308807,6.00113050571963,None,,,,,,,,M05D02,2021_Oct_14_1555,ER,2021.1.4,59.96958416309927,
4,,1,DISTANZIEREN,,Stimuli/6410.jpg,,StimuliNegative.xlsx,24,Nehmen Sie die Position eines uninvolvierten Beobachters ein. Denken Sie über das Bild in einer neutralen Weise nach.,,,,,,,,,0,2,2,1,0,12,12,9,,,,,3.6,,,,,,,,1069.6111506232064,6.011211383076443,None,,,,,,,,M05D02,2021_Oct_14_1555,ER,2021.1.4,59.96958416309927,
4,,1,DISTANZIEREN,,Stimuli/9800.jpg,,StimuliNegative.xlsx,24,Nehmen Sie die Position eines uninvolvierten Beobachters ein. Denken Sie über das Bild in einer neutralen Weise nach.,,,,,,,,,0,2,2,1,0,13,13,19,,,,,4.0,,,,,,,,1079.6689543046632,6.013277988595291,None,,,,,,,,M05D02,2021_Oct_14_1555,ER,2021.1.4,59.96958416309927,
4,,1,DISTANZIEREN,,Stimuli/226.jpg,,StimuliNegative.xlsx,24,Nehmen Sie die Position eines uninvolvierten Beobachters ein. Denken Sie über das Bild in einer neutralen Weise nach.,,,,,,,,,0,2,2,1,0,14,14,2,,,,,4.0,,,,,,,,1089.7332709052935,6.0010098842249135,None,,,,,,,,M05D02,2021_Oct_14_1555,ER,2021.1.4,59.96958416309927,
4,,1,DISTANZIEREN,,Stimuli/326.jpg,,StimuliNegative.xlsx,24,Nehmen Sie die Position eines uninvolvierten Beobachters ein. Denken Sie über das Bild in einer neutralen Weise nach.,,,,,,,,,0,2,2,1,0,15,15,5,,,,,4.2,,,,,,,,1099.9832121183535,6.001060891718225,None,,,,,,,,M05D02,2021_Oct_14_1555,ER,2021.1.4,59.96958416309927,
4,,1,DISTANZIEREN,,Stimuli/253.jpg,,StimuliNegative.xlsx,24,Nehmen Sie die Position eines uninvolvierten Beobachters ein. Denken Sie über das Bild in einer neutralen Weise nach.,,,,,,,,,0,2,2,1,0,16,16,3,,,,,3.5,,,,,,,,1109.5253018023614,6.000154947292685,None,,,,,,,,M05D02,2021_Oct_14_1555,ER,2021.1.4,59.96958416309927,
4,,1,DISTANZIEREN,,Stimuli/6825.jpg,,StimuliNegative.xlsx,24,Nehmen Sie die Position eines uninvolvierten Beobachters ein. Denken Sie über das Bild in einer neutralen Weise nach.,,,,,,,,,0,2,2,1,0,17,17,11,,,,,4.7,,,,,,,,1120.292544982034,6.015151150604652,None,,,,,,,,M05D02,2021_Oct_14_1555,ER,2021.1.4,59.96958416309927,
4,,1,DISTANZIEREN,,Stimuli/8230.jpg,,StimuliNegative.xlsx,24,Nehmen Sie die Position eines uninvolvierten Beobachters ein. Denken Sie über das Bild in einer neutralen Weise nach.,,,,,,,,,0,2,2,1,0,18,18,13,,,,,4.6,,,,,,,,1130.9475668623236,6.00445882492204,None,,,,,,,,M05D02,2021_Oct_14_1555,ER,2021.1.4,59.96958416309927,
4,,1,DISTANZIEREN,,Stimuli/9041.jpg,,StimuliNegative.xlsx,24,Nehmen Sie die Position eines uninvolvierten Beobachters ein. Denken Sie über das Bild in einer neutralen Weise nach.,,,,,,,,,0,2,2,1,0,19,19,14,,,,,4.4,,,,,,,,1141.3986280588051,6.004095677224541,None,,,,,,,,M05D02,2021_Oct_14_1555,ER,2021.1.4,59.96958416309927,
4,,1,DISTANZIEREN,,,,StimuliNegative.xlsx,24,Nehmen Sie die Position eines uninvolvierten Beobachters ein. Denken Sie über das Bild in einer neutralen Weise nach.,,,,,,,,,0,2,2,1,,,,,,,,,,,,,149.25925925925924,3.135095754541908,158.8888888888889,4.476075720785957,,,,,,,,,,,M05D02,2021_Oct_14_1555,ER,2021.1.4,59.96958416309927,
,,,,,,,,,,,,,,,,,,,,,,,,,,,,,,,,,,,,,,,,,3,15.435890156162714,,,,,,M05D02,2021_Oct_14_1555,ER,2021.1.4,59.96958416309927,
,,,,,,,,,,,,,,,,,,,,,,,,,,,,,,,,,,,,,,,,,,,space,4.856812981182884,,,,M05D02,2021_Oct_14_1555,ER,2021.1.4,59.96958416309927,
,,,,,Stimuli/9254.jpg,,,,,,,,,,,,,,,,,,,,,0,0,0,12,4.1,,,,,,,,,,,,,,,1261.9801154180896,6.007592417399792,None,M05D02,2021_Oct_14_1555,ER,2021.1.4,59.96958416309927,
,,,,,Stimuli/9599.jpg,,,,,,,,,,,,,,,,,,,,,0,1,1,18,3.6,,,,,,,,,,,,,,,1271.6344636144931,6.0154998622147104,None,M05D02,2021_Oct_14_1555,ER,2021.1.4,59.96958416309927,
,,,,,Stimuli/2800.jpg,,,,,,,,,,,,,,,,,,,,,0,2,2,3,3.1,,,,,,,,,,,,,,,1280.7973087291139,6.006751595748938,None,M05D02,2021_Oct_14_1555,ER,2021.1.4,59.96958416309927,
,,,,,Stimuli/9181.jpg,,,,,,,,,,,,,,,,,,,,,0,3,3,9,4.7,,,,,,,,,,,,,,,1291.5531932776612,6.010454290706548,None,M05D02,2021_Oct_14_1555,ER,2021.1.4,59.96958416309927,
,,,,,Stimuli/3061.jpg,,,,,,,,,,,,,,,,,,,,,0,4,4,4,3.3,,,,,,,,,,,,,,,1300.9122860371954,6.008540066066416,None,M05D02,2021_Oct_14_1555,ER,2021.1.4,59.96958416309927,
,,,,,Stimuli/9411.jpg,,,,,,,,,,,,,,,,,,,,,0,5,5,15,3.7,,,,,,,,,,,,,,,1310.6516207390705,6.012623552822333,None,M05D02,2021_Oct_14_1555,ER,2021.1.4,59.96958416309927,
,,,,,Stimuli/227.jpg,,,,,,,,,,,,,,,,,,,,,0,6,6,0,3.7,,,,,,,,,,,,,,,1320.4240516054688,6.001370786307234,None,M05D02,2021_Oct_14_1555,ER,2021.1.4,59.96958416309927,
,,,,,Stimuli/6561.jpg,,,,,,,,,,,,,,,,,,,,,0,7,7,6,3.4,,,,,,,,,,,,,,,1329.8825021517787,6.002239196917799,None,M05D02,2021_Oct_14_1555,ER,2021.1.4,59.96958416309927,
,,,,,Stimuli/252.jpg,,,,,,,,,,,,,,,,,,,,,0,8,8,1,3.6,,,,,,,,,,,,,,,1339.5084022816718,6.016688112271368,None,M05D02,2021_Oct_14_1555,ER,2021.1.4,59.96958416309927,
,,,,,Stimuli/9295.jpg,,,,,,,,,,,,,,,,,,,,,0,9,9,13,4.3,,,,,,,,,,,,,,,1349.8811425935346,6.006418282626328,None,M05D02,2021_Oct_14_1555,ER,2021.1.4,59.96958416309927,
,,,,,Stimuli/9420.jpg,,,,,,,,,,,,,,,,,,,,,0,10,10,16,4.6,,,,,,,,,,,,,,,1360.5305071331895,6.007012728454356,None,M05D02,2021_Oct_14_1555,ER,2021.1.4,59.96958416309927,
,,,,,Stimuli/9905.jpg,,,,,,,,,,,,,,,,,,,,,0,11,11,19,3.4,,,,,,,,,,,,,,,1369.9853255609469,6.013947181256299,None,M05D02,2021_Oct_14_1555,ER,2021.1.4,59.96958416309927,
,,,,,Stimuli/9185.jpg,,,,,,,,,,,,,,,,,,,,,0,12,12,10,3.5,,,,,,,,,,,,,,,1379.5551957228126,6.006899164596689,None,M05D02,2021_Oct_14_1555,ER,2021.1.4,59.96958416309927,
,,,,,Stimuli/6838.jpg,,,,,,,,,,,,,,,,,,,,,0,13,13,7,4.7,,,,,,,,,,,,,,,1390.3194888086673,6.0123136582351435,None,M05D02,2021_Oct_14_1555,ER,2021.1.4,59.96958416309927,
,,,,,Stimuli/1051.jpg,,,,,,,,,,,,,,,,,,,,,0,14,14,2,3.2,,,,,,,,,,,,,,,1399.5770153814865,6.012022690956655,None,M05D02,2021_Oct_14_1555,ER,2021.1.4,59.96958416309927,
,,,,,Stimuli/9230.jpg,,,,,,,,,,,,,,,,,,,,,0,15,15,11,4.1,,,,,,,,,,,,,,,1409.7294953883138,6.008087414653346,None,M05D02,2021_Oct_14_1555,ER,2021.1.4,59.96958416309927,
,,,,,Stimuli/9421.jpg,,,,,,,,,,,,,,,,,,,,,0,16,16,17,4.1,,,,,,,,,,,,,,,1419.8684815068955,6.0128593421814,None,M05D02,2021_Oct_14_1555,ER,2021.1.4,59.96958416309927,
,,,,,Stimuli/9332.jpg,,,,,,,,,,,,,,,,,,,,,0,17,17,14,4.7,,,,,,,,,,,,,,,1430.6403692557615,6.003879135976604,None,M05D02,2021_Oct_14_1555,ER,2021.1.4,59.96958416309927,
,,,,,Stimuli/3230.jpg,,,,,,,,,,,,,,,,,,,,,0,18,18,5,4.8,,,,,,,,,,,,,,,1441.5028305951291,6.012084605712516,None,M05D02,2021_Oct_14_1555,ER,2021.1.4,59.96958416309927,
,,,,,Stimuli/9120.jpg,,,,,,,,,,,,,,,,,,,,,0,19,19,8,4.7,,,,,,,,,,,,,,,1452.2683937355105,6.013414970988379,None,M05D02,2021_Oct_14_1555,ER,2021.1.4,59.96958416309927,
,,,,,,,,,,,,,,,,,,,,,,,,,,,,,,,,,,154.44444444444446,3.529413519681839,103.33333333333331,1.8124034185912024,,,,,,,,,,,M05D02,2021_Oct_14_1555,ER,2021.1.4,59.96958416309927,
