Block,conds_view_File,n_reps,instr_1,TriggerBlockView,ImageFile,Trigger,conds_reg_File,TriggerBlockReg,instr_2,blocks_view.thisRepN,blocks_view.thisTrialN,blocks_view.thisN,blocks_view.thisIndex,trials_view.thisRepN,trials_view.thisTrialN,trials_view.thisN,trials_view.thisIndex,blocks_reg.thisRepN,blocks_reg.thisTrialN,blocks_reg.thisN,blocks_reg.thisIndex,trials_reg.thisRepN,trials_reg.thisTrialN,trials_reg.thisN,trials_reg.thisIndex,trials_choice.thisRepN,trials_choice.thisTrialN,trials_choice.thisN,trials_choice.thisIndex,Fix_jitter,image_view.started,image_view.lasted,image_view.stopped,slider_arousal.response,slider_arousal.rt,slider_effort.response,slider_effort.rt,image_reg.started,image_reg.lasted,image_reg.stopped,resp_choice.keys,resp_choice.rt,key_resp.keys,key_resp.rt,image.started,image.lased,image.stopped,participant,date,expName,psychopyVersion,frameRate,
,,,,,,,,,,,,,,,,,,,,,,,,,,,,,,,,,,,,,,,,,,,,,,,,M28B11,2021_Oct_20_1322,ER,2021.1.4,59.995207603596555,
1,StimuliNeutral.xlsx,1,ANSCHAUEN,21,Stimuli/7004.jpg,1,,,,0,0,0,0,0,0,0,7,,,,,,,,,,,,,3.5,92.32526677084388,6.030428440484684,None,,,,,,,,,,,,,,,M28B11,2021_Oct_20_1322,ER,2021.1.4,59.995207603596555,
1,StimuliNeutral.xlsx,1,ANSCHAUEN,21,Stimuli/140.jpg,1,,,,0,0,0,0,0,1,1,3,,,,,,,,,,,,,3.7,102.08673423394794,6.011983938107733,None,,,,,,,,,,,,,,,M28B11,2021_Oct_20_1322,ER,2021.1.4,59.995207603596555,
1,StimuliNeutral.xlsx,1,ANSCHAUEN,21,Stimuli/7235.jpg,1,,,,0,0,0,0,0,2,2,19,,,,,,,,,,,,,4.3,112.44323844334576,6.014751559821889,None,,,,,,,,,,,,,,,M28B11,2021_Oct_20_1322,ER,2021.1.4,59.995207603596555,
1,StimuliNeutral.xlsx,1,ANSCHAUEN,21,Stimuli/7233.jpg,1,,,,0,0,0,0,0,3,3,18,,,,,,,,,,,,,4.3,122.81806589209009,6.015309370064642,None,,,,,,,,,,,,,,,M28B11,2021_Oct_20_1322,ER,2021.1.4,59.995207603596555,
1,StimuliNeutral.xlsx,1,ANSCHAUEN,21,Stimuli/7185.jpg,1,,,,0,0,0,0,0,4,4,15,,,,,,,,,,,,,3.2,132.08254295779625,6.003680367139168,None,,,,,,,,,,,,,,,M28B11,2021_Oct_20_1322,ER,2021.1.4,59.995207603596555,
1,StimuliNeutral.xlsx,1,ANSCHAUEN,21,Stimuli/143.jpg,1,,,,0,0,0,0,0,5,5,4,,,,,,,,,,,,,4.3,142.44089626905043,6.003144948801491,None,,,,,,,,,,,,,,,M28B11,2021_Oct_20_1322,ER,2021.1.4,59.995207603596555,
1,StimuliNeutral.xlsx,1,ANSCHAUEN,21,Stimuli/124.jpg,1,,,,0,0,0,0,0,6,6,2,,,,,,,,,,,,,3.4,151.8780908055487,6.011939474905375,None,,,,,,,,,,,,,,,M28B11,2021_Oct_20_1322,ER,2021.1.4,59.995207603596555,
1,StimuliNeutral.xlsx,1,ANSCHAUEN,21,Stimuli/7150.jpg,1,,,,0,0,0,0,0,7,7,14,,,,,,,,,,,,,4.9,162.87445836619008,6.003208082693163,None,,,,,,,,,,,,,,,M28B11,2021_Oct_20_1322,ER,2021.1.4,59.995207603596555,
1,StimuliNeutral.xlsx,1,ANSCHAUEN,21,Stimuli/107.jpg,1,,,,0,0,0,0,0,8,8,1,,,,,,,,,,,,,3.6,172.52030595514225,6.010524995450396,None,,,,,,,,,,,,,,,M28B11,2021_Oct_20_1322,ER,2021.1.4,59.995207603596555,
1,StimuliNeutral.xlsx,1,ANSCHAUEN,21,Stimuli/7211.jpg,1,,,,0,0,0,0,0,9,9,16,,,,,,,,,,,,,4.4,182.9885695092962,6.007682626834139,None,,,,,,,,,,,,,,,M28B11,2021_Oct_20_1322,ER,2021.1.4,59.995207603596555,
1,StimuliNeutral.xlsx,1,ANSCHAUEN,21,Stimuli/083.jpg,1,,,,0,0,0,0,0,10,10,0,,,,,,,,,,,,,4.7,193.74747184081934,6.007090811617672,None,,,,,,,,,,,,,,,M28B11,2021_Oct_20_1322,ER,2021.1.4,59.995207603596555,
1,StimuliNeutral.xlsx,1,ANSCHAUEN,21,Stimuli/7025.jpg,1,,,,0,0,0,0,0,11,11,11,,,,,,,,,,,,,4.3,204.10594256559853,6.006244215532206,None,,,,,,,,,,,,,,,M28B11,2021_Oct_20_1322,ER,2021.1.4,59.995207603596555,
1,StimuliNeutral.xlsx,1,ANSCHAUEN,21,Stimuli/7006.jpg,1,,,,0,0,0,0,0,12,12,8,,,,,,,,,,,,,3.9,214.0596412344603,6.016186185646802,None,,,,,,,,,,,,,,,M28B11,2021_Oct_20_1322,ER,2021.1.4,59.995207603596555,
1,StimuliNeutral.xlsx,1,ANSCHAUEN,21,Stimuli/7041.jpg,1,,,,0,0,0,0,0,13,13,12,,,,,,,,,,,,,5.0,225.11836850445252,6.015855438949075,None,,,,,,,,,,,,,,,M28B11,2021_Oct_20_1322,ER,2021.1.4,59.995207603596555,
1,StimuliNeutral.xlsx,1,ANSCHAUEN,21,Stimuli/7100.jpg,1,,,,0,0,0,0,0,14,14,13,,,,,,,,,,,,,3.8,234.97518629767,6.001943866722286,None,,,,,,,,,,,,,,,M28B11,2021_Oct_20_1322,ER,2021.1.4,59.995207603596555,
1,StimuliNeutral.xlsx,1,ANSCHAUEN,21,Stimuli/7002.jpg,1,,,,0,0,0,0,0,15,15,6,,,,,,,,,,,,,4.6,245.63455728866393,6.017023735155817,None,,,,,,,,,,,,,,,M28B11,2021_Oct_20_1322,ER,2021.1.4,59.995207603596555,
1,StimuliNeutral.xlsx,1,ANSCHAUEN,21,Stimuli/7000.jpg,1,,,,0,0,0,0,0,16,16,5,,,,,,,,,,,,,4.7,256.39987822365947,6.001712889410555,None,,,,,,,,,,,,,,,M28B11,2021_Oct_20_1322,ER,2021.1.4,59.995207603596555,
1,StimuliNeutral.xlsx,1,ANSCHAUEN,21,Stimuli/7009.jpg,1,,,,0,0,0,0,0,17,17,9,,,,,,,,,,,,,4.8,267.26527522073593,6.003439444932155,None,,,,,,,,,,,,,,,M28B11,2021_Oct_20_1322,ER,2021.1.4,59.995207603596555,
1,StimuliNeutral.xlsx,1,ANSCHAUEN,21,Stimuli/7224.jpg,1,,,,0,0,0,0,0,18,18,17,,,,,,,,,,,,,4.7,278.01816380082164,6.0152163375751115,None,,,,,,,,,,,,,,,M28B11,2021_Oct_20_1322,ER,2021.1.4,59.995207603596555,
1,StimuliNeutral.xlsx,1,ANSCHAUEN,21,Stimuli/7021.jpg,1,,,,0,0,0,0,0,19,19,10,,,,,,,,,,,,,3.1,287.181444885151,6.005158622050658,None,,,,,,,,,,,,,,,M28B11,2021_Oct_20_1322,ER,2021.1.4,59.995207603596555,
1,StimuliNeutral.xlsx,1,ANSCHAUEN,21,,,,,,0,0,0,0,,,,,,,,,,,,,,,,,,,,,4.444444444444451,5.535248584521469,4.444444444444451,3.464410082262475,,,,,,,,,,,M28B11,2021_Oct_20_1322,ER,2021.1.4,59.995207603596555,
2,StimuliNegative.xlsx,1,ANSCHAUEN,22,Stimuli/2703.jpg,,,,,0,1,1,1,0,0,0,6,,,,,,,,,,,,,4.9,310.83443897694815,6.015858262078837,None,,,,,,,,,,,,,,,M28B11,2021_Oct_20_1322,ER,2021.1.4,59.995207603596555,
2,StimuliNegative.xlsx,1,ANSCHAUEN,22,Stimuli/251.jpg,,,,,0,1,1,1,0,1,1,5,,,,,,,,,,,,,5.0,321.90770883642836,6.003514127631206,None,,,,,,,,,,,,,,,M28B11,2021_Oct_20_1322,ER,2021.1.4,59.995207603596555,
2,StimuliNegative.xlsx,1,ANSCHAUEN,22,Stimuli/228.jpg,,,,,0,1,1,1,0,2,2,3,,,,,,,,,,,,,3.5,331.454831259849,6.009007923479658,None,,,,,,,,,,,,,,,M28B11,2021_Oct_20_1322,ER,2021.1.4,59.995207603596555,
2,StimuliNegative.xlsx,1,ANSCHAUEN,22,Stimuli/9145.jpg,,,,,0,1,1,1,0,3,3,16,,,,,,,,,,,,,5.0,342.5235056328238,6.004610949195921,None,,,,,,,,,,,,,,,M28B11,2021_Oct_20_1322,ER,2021.1.4,59.995207603596555,
2,StimuliNegative.xlsx,1,ANSCHAUEN,22,Stimuli/3185.jpg,,,,,0,1,1,1,0,4,4,9,,,,,,,,,,,,,4.5,353.08342227566754,6.016198632773012,None,,,,,,,,,,,,,,,M28B11,2021_Oct_20_1322,ER,2021.1.4,59.995207603596555,
2,StimuliNegative.xlsx,1,ANSCHAUEN,22,Stimuli/9040.jpg,,,,,0,1,1,1,0,5,5,13,,,,,,,,,,,,,3.9,363.0264080875786,5.999243035912514,None,,,,,,,,,,,,,,,M28B11,2021_Oct_20_1322,ER,2021.1.4,59.995207603596555,
2,StimuliNegative.xlsx,1,ANSCHAUEN,22,Stimuli/3160.jpg,,,,,0,1,1,1,0,6,6,8,,,,,,,,,,,,,4.6,373.68190796260023,6.004385810403619,None,,,,,,,,,,,,,,,M28B11,2021_Oct_20_1322,ER,2021.1.4,59.995207603596555,
2,StimuliNegative.xlsx,1,ANSCHAUEN,22,Stimuli/9031.jpg,,,,,0,1,1,1,0,7,7,12,,,,,,,,,,,,,4.9,384.6515751852421,6.015368718421087,None,,,,,,,,,,,,,,,M28B11,2021_Oct_20_1322,ER,2021.1.4,59.995207603596555,
2,StimuliNegative.xlsx,1,ANSCHAUEN,22,Stimuli/6562.jpg,,,,,0,1,1,1,0,8,8,11,,,,,,,,,,,,,3.7,394.4077885556617,6.003208467620425,None,,,,,,,,,,,,,,,M28B11,2021_Oct_20_1322,ER,2021.1.4,59.995207603596555,
2,StimuliNegative.xlsx,1,ANSCHAUEN,22,Stimuli/222.jpg,,,,,0,1,1,1,0,9,9,2,,,,,,,,,,,,,4.0,404.4584325814503,6.000416529073846,None,,,,,,,,,,,,,,,M28B11,2021_Oct_20_1322,ER,2021.1.4,59.995207603596555,
2,StimuliNegative.xlsx,1,ANSCHAUEN,22,Stimuli/9184.jpg,,,,,0,1,1,1,0,10,10,18,,,,,,,,,,,,,3.4,413.91115681472,6.012786648410838,None,,,,,,,,,,,,,,,M28B11,2021_Oct_20_1322,ER,2021.1.4,59.995207603596555,
2,StimuliNegative.xlsx,1,ANSCHAUEN,22,Stimuli/246.jpg,,,,,0,1,1,1,0,11,11,4,,,,,,,,,,,,,4.6,424.5699121869402,6.010536865098402,None,,,,,,,,,,,,,,,M28B11,2021_Oct_20_1322,ER,2021.1.4,59.995207603596555,
2,StimuliNegative.xlsx,1,ANSCHAUEN,22,Stimuli/9160.jpg,,,,,0,1,1,1,0,12,12,17,,,,,,,,,,,,,4.7,435.34247105324175,5.999560886470135,None,,,,,,,,,,,,,,,M28B11,2021_Oct_20_1322,ER,2021.1.4,59.995207603596555,
2,StimuliNegative.xlsx,1,ANSCHAUEN,22,Stimuli/9043.jpg,,,,,0,1,1,1,0,13,13,15,,,,,,,,,,,,,4.9,446.29549475508975,6.010708109126426,None,,,,,,,,,,,,,,,M28B11,2021_Oct_20_1322,ER,2021.1.4,59.995207603596555,
2,StimuliNegative.xlsx,1,ANSCHAUEN,22,Stimuli/210.jpg,,,,,0,1,1,1,0,14,14,0,,,,,,,,,,,,,3.5,455.8587146945647,6.0007424637442455,None,,,,,,,,,,,,,,,M28B11,2021_Oct_20_1322,ER,2021.1.4,59.995207603596555,
2,StimuliNegative.xlsx,1,ANSCHAUEN,22,Stimuli/3301.jpg,,,,,0,1,1,1,0,15,15,10,,,,,,,,,,,,,4.7,466.61241426173365,6.008070540439803,None,,,,,,,,,,,,,,,M28B11,2021_Oct_20_1322,ER,2021.1.4,59.995207603596555,
2,StimuliNegative.xlsx,1,ANSCHAUEN,22,Stimuli/218.jpg,,,,,0,1,1,1,0,16,16,1,,,,,,,,,,,,,3.6,476.24732667801436,6.006792209285777,None,,,,,,,,,,,,,,,M28B11,2021_Oct_20_1322,ER,2021.1.4,59.995207603596555,
2,StimuliNegative.xlsx,1,ANSCHAUEN,22,Stimuli/9042.jpg,,,,,0,1,1,1,0,17,17,14,,,,,,,,,,,,,4.2,486.5222416735487,6.006054557510652,None,,,,,,,,,,,,,,,M28B11,2021_Oct_20_1322,ER,2021.1.4,59.995207603596555,
2,StimuliNegative.xlsx,1,ANSCHAUEN,22,Stimuli/3051.jpg,,,,,0,1,1,1,0,18,18,7,,,,,,,,,,,,,5.0,497.5658322289819,6.0040075850556605,None,,,,,,,,,,,,,,,M28B11,2021_Oct_20_1322,ER,2021.1.4,59.995207603596555,
2,StimuliNegative.xlsx,1,ANSCHAUEN,22,Stimuli/9904.jpg,,,,,0,1,1,1,0,19,19,19,,,,,,,,,,,,,4.9,508.52293556794757,6.005352322245017,None,,,,,,,,,,,,,,,M28B11,2021_Oct_20_1322,ER,2021.1.4,59.995207603596555,
2,StimuliNegative.xlsx,1,ANSCHAUEN,22,,,,,,0,1,1,1,,,,,,,,,,,,,,,,,,,,,72.22222222222223,8.918419768626336,39.62962962962963,4.113733880105428,,,,,,,,,,,M28B11,2021_Oct_20_1322,ER,2021.1.4,59.995207603596555,
5,,1,UNTERDRÜCKEN,,Stimuli/225.jpg,,StimuliNegative.xlsx,25,"Unterdrücken Sie alle aufkommenden Emotionen. Wenn Sie also die Bilder ansehen, verhalten Sie sich so, dass eine außenstehende Person nicht sehen kann, welche Emotionen Sie gerade empfinden.",,,,,,,,,0,0,0,2,0,0,0,0,,,,,4.9,,,,,,,,543.6846601216821,6.0139351190882735,None,,,,,,,,M28B11,2021_Oct_20_1322,ER,2021.1.4,59.995207603596555,
5,,1,UNTERDRÜCKEN,,Stimuli/1111.jpg,,StimuliNegative.xlsx,25,"Unterdrücken Sie alle aufkommenden Emotionen. Wenn Sie also die Bilder ansehen, verhalten Sie sich so, dass eine außenstehende Person nicht sehen kann, welche Emotionen Sie gerade empfinden.",,,,,,,,,0,0,0,2,0,1,1,4,,,,,4.3,,,,,,,,554.049874101358,6.001535806746688,None,,,,,,,,M28B11,2021_Oct_20_1322,ER,2021.1.4,59.995207603596555,
5,,1,UNTERDRÜCKEN,,Stimuli/3017.jpg,,StimuliNegative.xlsx,25,"Unterdrücken Sie alle aufkommenden Emotionen. Wenn Sie also die Bilder ansehen, verhalten Sie sich so, dass eine außenstehende Person nicht sehen kann, welche Emotionen Sie gerade empfinden.",,,,,,,,,0,0,0,2,0,2,2,5,,,,,4.3,,,,,,,,564.4183214428485,6.013680338335689,None,,,,,,,,M28B11,2021_Oct_20_1322,ER,2021.1.4,59.995207603596555,
5,,1,UNTERDRÜCKEN,,Stimuli/6190.jpg,,StimuliNegative.xlsx,25,"Unterdrücken Sie alle aufkommenden Emotionen. Wenn Sie also die Bilder ansehen, verhalten Sie sich so, dass eine außenstehende Person nicht sehen kann, welche Emotionen Sie gerade empfinden.",,,,,,,,,0,0,0,2,0,3,3,9,,,,,4.0,,,,,,,,574.4725116122281,6.005243313789833,None,,,,,,,,M28B11,2021_Oct_20_1322,ER,2021.1.4,59.995207603596555,
5,,1,UNTERDRÜCKEN,,Stimuli/9425.jpg,,StimuliNegative.xlsx,25,"Unterdrücken Sie alle aufkommenden Emotionen. Wenn Sie also die Bilder ansehen, verhalten Sie sich so, dass eine außenstehende Person nicht sehen kann, welche Emotionen Sie gerade empfinden.",,,,,,,,,0,0,0,2,0,4,4,18,,,,,4.6,,,,,,,,585.1226688532624,6.0067420358536765,None,,,,,,,,M28B11,2021_Oct_20_1322,ER,2021.1.4,59.995207603596555,
5,,1,UNTERDRÜCKEN,,Stimuli/9253.jpg,,StimuliNegative.xlsx,25,"Unterdrücken Sie alle aufkommenden Emotionen. Wenn Sie also die Bilder ansehen, verhalten Sie sich so, dass eine außenstehende Person nicht sehen kann, welche Emotionen Sie gerade empfinden.",,,,,,,,,0,0,0,2,0,5,5,14,,,,,3.8,,,,,,,,594.9829179430963,6.002339736209251,None,,,,,,,,M28B11,2021_Oct_20_1322,ER,2021.1.4,59.995207603596555,
5,,1,UNTERDRÜCKEN,,Stimuli/9180.jpg,,StimuliNegative.xlsx,25,"Unterdrücken Sie alle aufkommenden Emotionen. Wenn Sie also die Bilder ansehen, verhalten Sie sich so, dass eine außenstehende Person nicht sehen kann, welche Emotionen Sie gerade empfinden.",,,,,,,,,0,0,0,2,0,6,6,12,,,,,3.1,,,,,,,,604.1433557606069,6.013847861031536,None,,,,,,,,M28B11,2021_Oct_20_1322,ER,2021.1.4,59.995207603596555,
5,,1,UNTERDRÜCKEN,,Stimuli/9920.jpg,,StimuliNegative.xlsx,25,"Unterdrücken Sie alle aufkommenden Emotionen. Wenn Sie also die Bilder ansehen, verhalten Sie sich so, dass eine außenstehende Person nicht sehen kann, welche Emotionen Sie gerade empfinden.",,,,,,,,,0,0,0,2,0,7,7,19,,,,,3.2,,,,,,,,613.3952580353944,6.012050087447278,None,,,,,,,,M28B11,2021_Oct_20_1322,ER,2021.1.4,59.995207603596555,
5,,1,UNTERDRÜCKEN,,Stimuli/255.jpg,,StimuliNegative.xlsx,25,"Unterdrücken Sie alle aufkommenden Emotionen. Wenn Sie also die Bilder ansehen, verhalten Sie sich so, dass eine außenstehende Person nicht sehen kann, welche Emotionen Sie gerade empfinden.",,,,,,,,,0,0,0,2,0,8,8,2,,,,,4.8,,,,,,,,624.2709450726397,6.0080804211320356,None,,,,,,,,M28B11,2021_Oct_20_1322,ER,2021.1.4,59.995207603596555,
5,,1,UNTERDRÜCKEN,,Stimuli/9300.jpg,,StimuliNegative.xlsx,25,"Unterdrücken Sie alle aufkommenden Emotionen. Wenn Sie also die Bilder ansehen, verhalten Sie sich so, dass eine außenstehende Person nicht sehen kann, welche Emotionen Sie gerade empfinden.",,,,,,,,,0,0,0,2,0,9,9,15,,,,,4.1,,,,,,,,634.435711148777,6.01237499556737,None,,,,,,,,M28B11,2021_Oct_20_1322,ER,2021.1.4,59.995207603596555,
5,,1,UNTERDRÜCKEN,,Stimuli/3022.jpg,,StimuliNegative.xlsx,25,"Unterdrücken Sie alle aufkommenden Emotionen. Wenn Sie also die Bilder ansehen, verhalten Sie sich so, dass eine außenstehende Person nicht sehen kann, welche Emotionen Sie gerade empfinden.",,,,,,,,,0,0,0,2,0,10,10,6,,,,,4.9,,,,,,,,645.3841691986308,6.01644532935461,None,,,,,,,,M28B11,2021_Oct_20_1322,ER,2021.1.4,59.995207603596555,
5,,1,UNTERDRÜCKEN,,Stimuli/9326.jpg,,StimuliNegative.xlsx,25,"Unterdrücken Sie alle aufkommenden Emotionen. Wenn Sie also die Bilder ansehen, verhalten Sie sich so, dass eine außenstehende Person nicht sehen kann, welche Emotionen Sie gerade empfinden.",,,,,,,,,0,0,0,2,0,11,11,16,,,,,4.8,,,,,,,,656.2553431954584,6.007925794634502,None,,,,,,,,M28B11,2021_Oct_20_1322,ER,2021.1.4,59.995207603596555,
5,,1,UNTERDRÜCKEN,,Stimuli/6244.jpg,,StimuliNegative.xlsx,25,"Unterdrücken Sie alle aufkommenden Emotionen. Wenn Sie also die Bilder ansehen, verhalten Sie sich so, dass eine außenstehende Person nicht sehen kann, welche Emotionen Sie gerade empfinden.",,,,,,,,,0,0,0,2,0,12,12,10,,,,,4.2,,,,,,,,666.5126679838868,6.007764174719341,None,,,,,,,,M28B11,2021_Oct_20_1322,ER,2021.1.4,59.995207603596555,
5,,1,UNTERDRÜCKEN,,Stimuli/230.jpg,,StimuliNegative.xlsx,25,"Unterdrücken Sie alle aufkommenden Emotionen. Wenn Sie also die Bilder ansehen, verhalten Sie sich so, dass eine außenstehende Person nicht sehen kann, welche Emotionen Sie gerade empfinden.",,,,,,,,,0,0,0,2,0,13,13,1,,,,,4.6,,,,,,,,677.1653691835818,6.002784110954963,None,,,,,,,,M28B11,2021_Oct_20_1322,ER,2021.1.4,59.995207603596555,
5,,1,UNTERDRÜCKEN,,Stimuli/327.jpg,,StimuliNegative.xlsx,25,"Unterdrücken Sie alle aufkommenden Emotionen. Wenn Sie also die Bilder ansehen, verhalten Sie sich so, dass eine außenstehende Person nicht sehen kann, welche Emotionen Sie gerade empfinden.",,,,,,,,,0,0,0,2,0,14,14,3,,,,,4.6,,,,,,,,687.825335261994,5.999721672269516,None,,,,,,,,M28B11,2021_Oct_20_1322,ER,2021.1.4,59.995207603596555,
5,,1,UNTERDRÜCKEN,,Stimuli/3180.jpg,,StimuliNegative.xlsx,25,"Unterdrücken Sie alle aufkommenden Emotionen. Wenn Sie also die Bilder ansehen, verhalten Sie sich so, dass eine außenstehende Person nicht sehen kann, welche Emotionen Sie gerade empfinden.",,,,,,,,,0,0,0,2,0,15,15,7,,,,,5.0,,,,,,,,698.8916174155893,6.000996474700514,None,,,,,,,,M28B11,2021_Oct_20_1322,ER,2021.1.4,59.995207603596555,
5,,1,UNTERDRÜCKEN,,Stimuli/9424.jpg,,StimuliNegative.xlsx,25,"Unterdrücken Sie alle aufkommenden Emotionen. Wenn Sie also die Bilder ansehen, verhalten Sie sich so, dass eine außenstehende Person nicht sehen kann, welche Emotionen Sie gerade empfinden.",,,,,,,,,0,0,0,2,0,16,16,17,,,,,3.8,,,,,,,,708.7414048362407,6.001567245286424,None,,,,,,,,M28B11,2021_Oct_20_1322,ER,2021.1.4,59.995207603596555,
5,,1,UNTERDRÜCKEN,,Stimuli/6836.jpg,,StimuliNegative.xlsx,25,"Unterdrücken Sie alle aufkommenden Emotionen. Wenn Sie also die Bilder ansehen, verhalten Sie sich so, dass eine außenstehende Person nicht sehen kann, welche Emotionen Sie gerade empfinden.",,,,,,,,,0,0,0,2,0,17,17,11,,,,,3.0,,,,,,,,717.7896341864835,6.004591123491991,None,,,,,,,,M28B11,2021_Oct_20_1322,ER,2021.1.4,59.995207603596555,
5,,1,UNTERDRÜCKEN,,Stimuli/3280.jpg,,StimuliNegative.xlsx,25,"Unterdrücken Sie alle aufkommenden Emotionen. Wenn Sie also die Bilder ansehen, verhalten Sie sich so, dass eine außenstehende Person nicht sehen kann, welche Emotionen Sie gerade empfinden.",,,,,,,,,0,0,0,2,0,18,18,8,,,,,4.9,,,,,,,,728.7241322229966,6.003954652755056,None,,,,,,,,M28B11,2021_Oct_20_1322,ER,2021.1.4,59.995207603596555,
5,,1,UNTERDRÜCKEN,,Stimuli/9182.jpg,,StimuliNegative.xlsx,25,"Unterdrücken Sie alle aufkommenden Emotionen. Wenn Sie also die Bilder ansehen, verhalten Sie sich so, dass eine außenstehende Person nicht sehen kann, welche Emotionen Sie gerade empfinden.",,,,,,,,,0,0,0,2,0,19,19,13,,,,,4.9,,,,,,,,739.6687355178292,6.013943395810202,None,,,,,,,,M28B11,2021_Oct_20_1322,ER,2021.1.4,59.995207603596555,
5,,1,UNTERDRÜCKEN,,,,StimuliNegative.xlsx,25,"Unterdrücken Sie alle aufkommenden Emotionen. Wenn Sie also die Bilder ansehen, verhalten Sie sich so, dass eine außenstehende Person nicht sehen kann, welche Emotionen Sie gerade empfinden.",,,,,,,,,0,0,0,2,,,,,,,,,,,,,55.55555555555556,5.852046828076709,101.11111111111111,11.11489678680664,,,,,,,,,,,M28B11,2021_Oct_20_1322,ER,2021.1.4,59.995207603596555,
3,,1,ABLENKEN,,Stimuli/326.jpg,,StimuliNegative.xlsx,23,"Denken Sie während des Betrachtens der Bilder an etwas Neutrales, das mit dem Bild nichts zu tun hat. Das könnten geometrische Figuren, Alltagstätigkeiten oder bekannte Orte sein.",,,,,,,,,0,1,1,0,0,0,0,5,,,,,3.8,,,,,,,,786.0687317965203,6.012213632231578,None,,,,,,,,M28B11,2021_Oct_20_1322,ER,2021.1.4,59.995207603596555,
3,,1,ABLENKEN,,Stimuli/9041.jpg,,StimuliNegative.xlsx,23,"Denken Sie während des Betrachtens der Bilder an etwas Neutrales, das mit dem Bild nichts zu tun hat. Das könnten geometrische Figuren, Alltagstätigkeiten oder bekannte Orte sein.",,,,,,,,,0,1,1,0,0,1,1,14,,,,,4.8,,,,,,,,796.9317968849791,6.0035215702373534,None,,,,,,,,M28B11,2021_Oct_20_1322,ER,2021.1.4,59.995207603596555,
3,,1,ABLENKEN,,Stimuli/219.jpg,,StimuliNegative.xlsx,23,"Denken Sie während des Betrachtens der Bilder an etwas Neutrales, das mit dem Bild nichts zu tun hat. Das könnten geometrische Figuren, Alltagstätigkeiten oder bekannte Orte sein.",,,,,,,,,0,1,1,0,0,2,2,1,,,,,3.6,,,,,,,,806.5842003805446,6.0139457055483945,None,,,,,,,,M28B11,2021_Oct_20_1322,ER,2021.1.4,59.995207603596555,
3,,1,ABLENKEN,,Stimuli/9570.jpg,,StimuliNegative.xlsx,23,"Denken Sie während des Betrachtens der Bilder an etwas Neutrales, das mit dem Bild nichts zu tun hat. Das könnten geometrische Figuren, Alltagstätigkeiten oder bekannte Orte sein.",,,,,,,,,0,1,1,0,0,3,3,18,,,,,3.8,,,,,,,,816.4542133954819,6.009687638434116,None,,,,,,,,M28B11,2021_Oct_20_1322,ER,2021.1.4,59.995207603596555,
3,,1,ABLENKEN,,Stimuli/9409.jpg,,StimuliNegative.xlsx,23,"Denken Sie während des Betrachtens der Bilder an etwas Neutrales, das mit dem Bild nichts zu tun hat. Das könnten geometrische Figuren, Alltagstätigkeiten oder bekannte Orte sein.",,,,,,,,,0,1,1,0,0,4,4,17,,,,,5.0,,,,,,,,827.5165297965868,6.001084759423975,None,,,,,,,,M28B11,2021_Oct_20_1322,ER,2021.1.4,59.995207603596555,
3,,1,ABLENKEN,,Stimuli/6242.jpg,,StimuliNegative.xlsx,23,"Denken Sie während des Betrachtens der Bilder an etwas Neutrales, das mit dem Bild nichts zu tun hat. Das könnten geometrische Figuren, Alltagstätigkeiten oder bekannte Orte sein.",,,,,,,,,0,1,1,0,0,5,5,8,,,,,3.6,,,,,,,,837.1573215483804,6.002908517781179,None,,,,,,,,M28B11,2021_Oct_20_1322,ER,2021.1.4,59.995207603596555,
3,,1,ABLENKEN,,Stimuli/6410.jpg,,StimuliNegative.xlsx,23,"Denken Sie während des Betrachtens der Bilder an etwas Neutrales, das mit dem Bild nichts zu tun hat. Das könnten geometrische Figuren, Alltagstätigkeiten oder bekannte Orte sein.",,,,,,,,,0,1,1,0,0,6,6,9,,,,,3.4,,,,,,,,846.6070514171734,6.004298552288674,None,,,,,,,,M28B11,2021_Oct_20_1322,ER,2021.1.4,59.995207603596555,
3,,1,ABLENKEN,,Stimuli/8230.jpg,,StimuliNegative.xlsx,23,"Denken Sie während des Betrachtens der Bilder an etwas Neutrales, das mit dem Bild nichts zu tun hat. Das könnten geometrische Figuren, Alltagstätigkeiten oder bekannte Orte sein.",,,,,,,,,0,1,1,0,0,7,7,13,,,,,3.5,,,,,,,,856.1546248880331,6.006703924504109,None,,,,,,,,M28B11,2021_Oct_20_1322,ER,2021.1.4,59.995207603596555,
3,,1,ABLENKEN,,Stimuli/3350.jpg,,StimuliNegative.xlsx,23,"Denken Sie während des Betrachtens der Bilder an etwas Neutrales, das mit dem Bild nichts zu tun hat. Das könnten geometrische Figuren, Alltagstätigkeiten oder bekannte Orte sein.",,,,,,,,,0,1,1,0,0,8,8,7,,,,,4.5,,,,,,,,866.7054432695732,6.0068745911703445,None,,,,,,,,M28B11,2021_Oct_20_1322,ER,2021.1.4,59.995207603596555,
3,,1,ABLENKEN,,Stimuli/226.jpg,,StimuliNegative.xlsx,23,"Denken Sie während des Betrachtens der Bilder an etwas Neutrales, das mit dem Bild nichts zu tun hat. Das könnten geometrische Figuren, Alltagstätigkeiten oder bekannte Orte sein.",,,,,,,,,0,1,1,0,0,9,9,2,,,,,3.1,,,,,,,,875.8436187218758,6.0132957610767335,None,,,,,,,,M28B11,2021_Oct_20_1322,ER,2021.1.4,59.995207603596555,
3,,1,ABLENKEN,,Stimuli/208.jpg,,StimuliNegative.xlsx,23,"Denken Sie während des Betrachtens der Bilder an etwas Neutrales, das mit dem Bild nichts zu tun hat. Das könnten geometrische Figuren, Alltagstätigkeiten oder bekannte Orte sein.",,,,,,,,,0,1,1,0,0,10,10,0,,,,,4.9,,,,,,,,886.7885319113266,6.006947733985726,None,,,,,,,,M28B11,2021_Oct_20_1322,ER,2021.1.4,59.995207603596555,
3,,1,ABLENKEN,,Stimuli/9140.jpg,,StimuliNegative.xlsx,23,"Denken Sie während des Betrachtens der Bilder an etwas Neutrales, das mit dem Bild nichts zu tun hat. Das könnten geometrische Figuren, Alltagstätigkeiten oder bekannte Orte sein.",,,,,,,,,0,1,1,0,0,11,11,15,,,,,3.2,,,,,,,,896.0566981983138,6.004715530551039,None,,,,,,,,M28B11,2021_Oct_20_1322,ER,2021.1.4,59.995207603596555,
3,,1,ABLENKEN,,Stimuli/253.jpg,,StimuliNegative.xlsx,23,"Denken Sie während des Betrachtens der Bilder an etwas Neutrales, das mit dem Bild nichts zu tun hat. Das könnten geometrische Figuren, Alltagstätigkeiten oder bekannte Orte sein.",,,,,,,,,0,1,1,0,0,12,12,3,,,,,3.7,,,,,,,,905.8060146497446,6.004918983089738,None,,,,,,,,M28B11,2021_Oct_20_1322,ER,2021.1.4,59.995207603596555,
3,,1,ABLENKEN,,Stimuli/6555.jpg,,StimuliNegative.xlsx,23,"Denken Sie während des Betrachtens der Bilder an etwas Neutrales, das mit dem Bild nichts zu tun hat. Das könnten geometrische Figuren, Alltagstätigkeiten oder bekannte Orte sein.",,,,,,,,,0,1,1,0,0,13,13,10,,,,,5.0,,,,,,,,916.8561091419542,6.004809525504243,None,,,,,,,,M28B11,2021_Oct_20_1322,ER,2021.1.4,59.995207603596555,
3,,1,ABLENKEN,,Stimuli/9800.jpg,,StimuliNegative.xlsx,23,"Denken Sie während des Betrachtens der Bilder an etwas Neutrales, das mit dem Bild nichts zu tun hat. Das könnten geometrische Figuren, Alltagstätigkeiten oder bekannte Orte sein.",,,,,,,,,0,1,1,0,0,14,14,19,,,,,4.6,,,,,,,,927.4900665311143,6.0034792243968695,None,,,,,,,,M28B11,2021_Oct_20_1322,ER,2021.1.4,59.995207603596555,
3,,1,ABLENKEN,,Stimuli/9340.jpg,,StimuliNegative.xlsx,23,"Denken Sie während des Betrachtens der Bilder an etwas Neutrales, das mit dem Bild nichts zu tun hat. Das könnten geometrische Figuren, Alltagstätigkeiten oder bekannte Orte sein.",,,,,,,,,0,1,1,0,0,15,15,16,,,,,4.4,,,,,,,,937.9516166648827,6.015280497900676,None,,,,,,,,M28B11,2021_Oct_20_1322,ER,2021.1.4,59.995207603596555,
3,,1,ABLENKEN,,Stimuli/6940.jpg,,StimuliNegative.xlsx,23,"Denken Sie während des Betrachtens der Bilder an etwas Neutrales, das mit dem Bild nichts zu tun hat. Das könnten geometrische Figuren, Alltagstätigkeiten oder bekannte Orte sein.",,,,,,,,,0,1,1,0,0,16,16,12,,,,,4.0,,,,,,,,948.0101158447796,6.014304361946415,None,,,,,,,,M28B11,2021_Oct_20_1322,ER,2021.1.4,59.995207603596555,
3,,1,ABLENKEN,,Stimuli/254.jpg,,StimuliNegative.xlsx,23,"Denken Sie während des Betrachtens der Bilder an etwas Neutrales, das mit dem Bild nichts zu tun hat. Das könnten geometrische Figuren, Alltagstätigkeiten oder bekannte Orte sein.",,,,,,,,,0,1,1,0,0,17,17,4,,,,,3.2,,,,,,,,957.2740700034774,6.001667656353675,None,,,,,,,,M28B11,2021_Oct_20_1322,ER,2021.1.4,59.995207603596555,
3,,1,ABLENKEN,,Stimuli/1301.jpg,,StimuliNegative.xlsx,23,"Denken Sie während des Betrachtens der Bilder an etwas Neutrales, das mit dem Bild nichts zu tun hat. Das könnten geometrische Figuren, Alltagstätigkeiten oder bekannte Orte sein.",,,,,,,,,0,1,1,0,0,18,18,6,,,,,4.3,,,,,,,,967.630555606389,6.005468837509397,None,,,,,,,,M28B11,2021_Oct_20_1322,ER,2021.1.4,59.995207603596555,
3,,1,ABLENKEN,,Stimuli/6825.jpg,,StimuliNegative.xlsx,23,"Denken Sie während des Betrachtens der Bilder an etwas Neutrales, das mit dem Bild nichts zu tun hat. Das könnten geometrische Figuren, Alltagstätigkeiten oder bekannte Orte sein.",,,,,,,,,0,1,1,0,0,19,19,11,,,,,3.2,,,,,,,,976.8966466261772,6.007503362779971,None,,,,,,,,M28B11,2021_Oct_20_1322,ER,2021.1.4,59.995207603596555,
3,,1,ABLENKEN,,,,StimuliNegative.xlsx,23,"Denken Sie während des Betrachtens der Bilder an etwas Neutrales, das mit dem Bild nichts zu tun hat. Das könnten geometrische Figuren, Alltagstätigkeiten oder bekannte Orte sein.",,,,,,,,,0,1,1,0,,,,,,,,,,,,,9.629629629629633,4.769486867822707,35.18518518518518,6.331062056240626,,,,,,,,,,,M28B11,2021_Oct_20_1322,ER,2021.1.4,59.995207603596555,
4,,1,DISTANZIEREN,,Stimuli/3181.jpg,,StimuliNegative.xlsx,24,Nehmen Sie die Position eines uninvolvierten Beobachters ein. Denken Sie über das Bild in einer neutralen Weise nach.,,,,,,,,,0,2,2,1,0,0,0,6,,,,,3.6,,,,,,,,1008.3078761025099,6.001621460891329,None,,,,,,,,M28B11,2021_Oct_20_1322,ER,2021.1.4,59.995207603596555,
4,,1,DISTANZIEREN,,Stimuli/3215.jpg,,StimuliNegative.xlsx,24,Nehmen Sie die Position eines uninvolvierten Beobachters ein. Denken Sie über das Bild in einer neutralen Weise nach.,,,,,,,,,0,2,2,1,0,1,1,7,,,,,4.7,,,,,,,,1019.0492889587767,6.016653273196425,None,,,,,,,,M28B11,2021_Oct_20_1322,ER,2021.1.4,59.995207603596555,
4,,1,DISTANZIEREN,,Stimuli/9400.jpg,,StimuliNegative.xlsx,24,Nehmen Sie die Position eines uninvolvierten Beobachters ein. Denken Sie über das Bild in einer neutralen Weise nach.,,,,,,,,,0,2,2,1,0,2,2,15,,,,,4.5,,,,,,,,1029.6058682999574,6.005967042699922,None,,,,,,,,M28B11,2021_Oct_20_1322,ER,2021.1.4,59.995207603596555,
4,,1,DISTANZIEREN,,Stimuli/6831.jpg,,StimuliNegative.xlsx,24,Nehmen Sie die Position eines uninvolvierten Beobachters ein. Denken Sie über das Bild in einer neutralen Weise nach.,,,,,,,,,0,2,2,1,0,3,3,12,,,,,4.7,,,,,,,,1040.3640026318608,6.0045866323052905,None,,,,,,,,M28B11,2021_Oct_20_1322,ER,2021.1.4,59.995207603596555,
4,,1,DISTANZIEREN,,Stimuli/3101.jpg,,StimuliNegative.xlsx,24,Nehmen Sie die Position eines uninvolvierten Beobachters ein. Denken Sie über das Bild in einer neutralen Weise nach.,,,,,,,,,0,2,2,1,0,4,4,5,,,,,4.7,,,,,,,,1051.1187133664498,6.012218765041325,None,,,,,,,,M28B11,2021_Oct_20_1322,ER,2021.1.4,59.995207603596555,
4,,1,DISTANZIEREN,,Stimuli/6020.jpg,,StimuliNegative.xlsx,24,Nehmen Sie die Position eines uninvolvierten Beobachters ein. Denken Sie über das Bild in einer neutralen Weise nach.,,,,,,,,,0,2,2,1,0,5,5,10,,,,,3.6,,,,,,,,1060.7737875374733,6.001955415587872,None,,,,,,,,M28B11,2021_Oct_20_1322,ER,2021.1.4,59.995207603596555,
4,,1,DISTANZIEREN,,Stimuli/238.jpg,,StimuliNegative.xlsx,24,Nehmen Sie die Position eines uninvolvierten Beobachters ein. Denken Sie über das Bild in einer neutralen Weise nach.,,,,,,,,,0,2,2,1,0,6,6,1,,,,,3.3,,,,,,,,1070.1204578868928,6.008005417766981,None,,,,,,,,M28B11,2021_Oct_20_1322,ER,2021.1.4,59.995207603596555,
4,,1,DISTANZIEREN,,Stimuli/6571.jpg,,StimuliNegative.xlsx,24,Nehmen Sie die Position eines uninvolvierten Beobachters ein. Denken Sie über das Bild in einer neutralen Weise nach.,,,,,,,,,0,2,2,1,0,7,7,11,,,,,3.6,,,,,,,,1079.7813228521263,6.004591123608407,None,,,,,,,,M28B11,2021_Oct_20_1322,ER,2021.1.4,59.995207603596555,
4,,1,DISTANZIEREN,,Stimuli/2981.jpg,,StimuliNegative.xlsx,24,Nehmen Sie die Position eines uninvolvierten Beobachters ein. Denken Sie über das Bild in einer neutralen Weise nach.,,,,,,,,,0,2,2,1,0,8,8,3,,,,,3.7,,,,,,,,1089.5355026596226,6.013287099369336,None,,,,,,,,M28B11,2021_Oct_20_1322,ER,2021.1.4,59.995207603596555,
4,,1,DISTANZIEREN,,Stimuli/245.jpg,,StimuliNegative.xlsx,24,Nehmen Sie die Position eines uninvolvierten Beobachters ein. Denken Sie über das Bild in einer neutralen Weise nach.,,,,,,,,,0,2,2,1,0,9,9,2,,,,,3.2,,,,,,,,1098.7882730241981,6.007047182531096,None,,,,,,,,M28B11,2021_Oct_20_1322,ER,2021.1.4,59.995207603596555,
4,,1,DISTANZIEREN,,Stimuli/3225.jpg,,StimuliNegative.xlsx,24,Nehmen Sie die Position eines uninvolvierten Beobachters ein. Denken Sie über das Bild in einer neutralen Weise nach.,,,,,,,,,0,2,2,1,0,10,10,9,,,,,3.9,,,,,,,,1108.7536604293273,6.0098820443381555,None,,,,,,,,M28B11,2021_Oct_20_1322,ER,2021.1.4,59.995207603596555,
4,,1,DISTANZIEREN,,Stimuli/223.jpg,,StimuliNegative.xlsx,24,Nehmen Sie die Position eines uninvolvierten Beobachters ein. Denken Sie über das Bild in einer neutralen Weise nach.,,,,,,,,,0,2,2,1,0,11,11,0,,,,,3.8,,,,,,,,1118.601822347031,6.01214729034109,None,,,,,,,,M28B11,2021_Oct_20_1322,ER,2021.1.4,59.995207603596555,
4,,1,DISTANZIEREN,,Stimuli/3220.jpg,,StimuliNegative.xlsx,24,Nehmen Sie die Position eines uninvolvierten Beobachters ein. Denken Sie über das Bild in einer neutralen Weise nach.,,,,,,,,,0,2,2,1,0,12,12,8,,,,,3.9,,,,,,,,1128.5614651534124,6.010487461579032,None,,,,,,,,M28B11,2021_Oct_20_1322,ER,2021.1.4,59.995207603596555,
4,,1,DISTANZIEREN,,Stimuli/9402.jpg,,StimuliNegative.xlsx,24,Nehmen Sie die Position eines uninvolvierten Beobachters ein. Denken Sie über das Bild in einer neutralen Weise nach.,,,,,,,,,0,2,2,1,0,13,13,16,,,,,3.4,,,,,,,,1138.0249205293949,6.000377391290385,None,,,,,,,,M28B11,2021_Oct_20_1322,ER,2021.1.4,59.995207603596555,
4,,1,DISTANZIEREN,,Stimuli/9403.jpg,,StimuliNegative.xlsx,24,Nehmen Sie die Position eines uninvolvierten Beobachters ein. Denken Sie über das Bild in einer neutralen Weise nach.,,,,,,,,,0,2,2,1,0,14,14,17,,,,,4.0,,,,,,,,1148.0906871543848,6.002366940199863,None,,,,,,,,M28B11,2021_Oct_20_1322,ER,2021.1.4,59.995207603596555,
4,,1,DISTANZIEREN,,Stimuli/3016.jpg,,StimuliNegative.xlsx,24,Nehmen Sie die Position eines uninvolvierten Beobachters ein. Denken Sie über das Bild in einer neutralen Weise nach.,,,,,,,,,0,2,2,1,0,15,15,4,,,,,4.4,,,,,,,,1158.5188838405302,6.0113671002327465,None,,,,,,,,M28B11,2021_Oct_20_1322,ER,2021.1.4,59.995207603596555,
4,,1,DISTANZIEREN,,Stimuli/9423.jpg,,StimuliNegative.xlsx,24,Nehmen Sie die Position eines uninvolvierten Beobachters ein. Denken Sie über das Bild in einer neutralen Weise nach.,,,,,,,,,0,2,2,1,0,16,16,19,,,,,4.3,,,,,,,,1168.8658756334917,6.001795014657546,None,,,,,,,,M28B11,2021_Oct_20_1322,ER,2021.1.4,59.995207603596555,
4,,1,DISTANZIEREN,,Stimuli/9373.jpg,,StimuliNegative.xlsx,24,Nehmen Sie die Position eines uninvolvierten Beobachters ein. Denken Sie über das Bild in einer neutralen Weise nach.,,,,,,,,,0,2,2,1,0,17,17,14,,,,,3.7,,,,,,,,1178.6257971525192,6.015111820248421,None,,,,,,,,M28B11,2021_Oct_20_1322,ER,2021.1.4,59.995207603596555,
4,,1,DISTANZIEREN,,Stimuli/9405.jpg,,StimuliNegative.xlsx,24,Nehmen Sie die Position eines uninvolvierten Beobachters ein. Denken Sie über das Bild in einer neutralen Weise nach.,,,,,,,,,0,2,2,1,0,18,18,18,,,,,4.8,,,,,,,,1189.4996126318001,6.002267235016916,None,,,,,,,,M28B11,2021_Oct_20_1322,ER,2021.1.4,59.995207603596555,
4,,1,DISTANZIEREN,,Stimuli/8231.jpg,,StimuliNegative.xlsx,24,Nehmen Sie die Position eines uninvolvierten Beobachters ein. Denken Sie über das Bild in einer neutralen Weise nach.,,,,,,,,,0,2,2,1,0,19,19,13,,,,,4.4,,,,,,,,1199.9531654962339,6.010239160968922,None,,,,,,,,M28B11,2021_Oct_20_1322,ER,2021.1.4,59.995207603596555,
4,,1,DISTANZIEREN,,,,StimuliNegative.xlsx,24,Nehmen Sie die Position eines uninvolvierten Beobachters ein. Denken Sie über das Bild in einer neutralen Weise nach.,,,,,,,,,0,2,2,1,,,,,,,,,,,,,62.22222222222222,7.518736592493951,83.7037037037037,6.097615511913318,,,,,,,,,,,M28B11,2021_Oct_20_1322,ER,2021.1.4,59.995207603596555,
,,,,,,,,,,,,,,,,,,,,,,,,,,,,,,,,,,,,,,,,,3,49.1615567743429,,,,,,M28B11,2021_Oct_20_1322,ER,2021.1.4,59.995207603596555,
,,,,,,,,,,,,,,,,,,,,,,,,,,,,,,,,,,,,,,,,,,,space,22.081693795276806,,,,M28B11,2021_Oct_20_1322,ER,2021.1.4,59.995207603596555,
,,,,,Stimuli/227.jpg,,,,,,,,,,,,,,,,,,,,,0,0,0,0,4.3,,,,,,,,,,,,,,,1456.427725428308,6.010955511475913,None,M28B11,2021_Oct_20_1322,ER,2021.1.4,59.995207603596555,
,,,,,Stimuli/9411.jpg,,,,,,,,,,,,,,,,,,,,,0,1,1,15,4.4,,,,,,,,,,,,,,,1466.9056348524173,6.00410023261793,None,M28B11,2021_Oct_20_1322,ER,2021.1.4,59.995207603596555,
,,,,,Stimuli/252.jpg,,,,,,,,,,,,,,,,,,,,,0,2,2,1,3.6,,,,,,,,,,,,,,,1476.5500545523828,6.014291850791778,None,M28B11,2021_Oct_20_1322,ER,2021.1.4,59.995207603596555,
,,,,,Stimuli/9332.jpg,,,,,,,,,,,,,,,,,,,,,0,3,3,14,4.1,,,,,,,,,,,,,,,1486.7025813962682,6.012296719884034,None,M28B11,2021_Oct_20_1322,ER,2021.1.4,59.995207603596555,
,,,,,Stimuli/9421.jpg,,,,,,,,,,,,,,,,,,,,,0,4,4,17,3.6,,,,,,,,,,,,,,,1496.357546173851,6.001504047366325,None,M28B11,2021_Oct_20_1322,ER,2021.1.4,59.995207603596555,
,,,,,Stimuli/9420.jpg,,,,,,,,,,,,,,,,,,,,,0,5,5,16,4.5,,,,,,,,,,,,,,,1506.9168378946488,6.015724808501545,None,M28B11,2021_Oct_20_1322,ER,2021.1.4,59.995207603596555,
,,,,,Stimuli/9905.jpg,,,,,,,,,,,,,,,,,,,,,0,6,6,19,3.4,,,,,,,,,,,,,,,1516.3700628996594,6.009798058483284,None,M28B11,2021_Oct_20_1322,ER,2021.1.4,59.995207603596555,
,,,,,Stimuli/6561.jpg,,,,,,,,,,,,,,,,,,,,,0,7,7,6,3.5,,,,,,,,,,,,,,,1525.9303590510972,6.006434771872591,None,M28B11,2021_Oct_20_1322,ER,2021.1.4,59.995207603596555,
,,,,,Stimuli/9120.jpg,,,,,,,,,,,,,,,,,,,,,0,8,8,8,4.8,,,,,,,,,,,,,,,1536.7951834168634,6.0084862996591255,None,M28B11,2021_Oct_20_1322,ER,2021.1.4,59.995207603596555,
,,,,,Stimuli/1051.jpg,,,,,,,,,,,,,,,,,,,,,0,9,9,2,3.8,,,,,,,,,,,,,,,1546.6561164562008,6.00396459759213,None,M28B11,2021_Oct_20_1322,ER,2021.1.4,59.995207603596555,
,,,,,Stimuli/9599.jpg,,,,,,,,,,,,,,,,,,,,,0,10,10,18,4.7,,,,,,,,,,,,,,,1557.4174668266787,6.014473681221716,None,M28B11,2021_Oct_20_1322,ER,2021.1.4,59.995207603596555,
,,,,,Stimuli/9181.jpg,,,,,,,,,,,,,,,,,,,,,0,11,11,9,4.2,,,,,,,,,,,,,,,1567.6728340822738,6.003955936001148,None,M28B11,2021_Oct_20_1322,ER,2021.1.4,59.995207603596555,
,,,,,Stimuli/9230.jpg,,,,,,,,,,,,,,,,,,,,,0,12,12,11,5.0,,,,,,,,,,,,,,,1578.7323575824266,6.002420899050776,None,M28B11,2021_Oct_20_1322,ER,2021.1.4,59.995207603596555,
,,,,,Stimuli/9185.jpg,,,,,,,,,,,,,,,,,,,,,0,13,13,10,3.8,,,,,,,,,,,,,,,1588.5881225040066,6.0082630215911195,None,M28B11,2021_Oct_20_1322,ER,2021.1.4,59.995207603596555,
,,,,,Stimuli/2800.jpg,,,,,,,,,,,,,,,,,,,,,0,14,14,3,4.5,,,,,,,,,,,,,,,1599.1358980800142,6.012788188352715,None,M28B11,2021_Oct_20_1322,ER,2021.1.4,59.995207603596555,
,,,,,Stimuli/3061.jpg,,,,,,,,,,,,,,,,,,,,,0,15,15,4,3.6,,,,,,,,,,,,,,,1608.7957692010677,6.006881007226184,None,M28B11,2021_Oct_20_1322,ER,2021.1.4,59.995207603596555,
,,,,,Stimuli/9254.jpg,,,,,,,,,,,,,,,,,,,,,0,16,16,12,3.0,,,,,,,,,,,,,,,1617.8548166312976,6.007825383741874,None,M28B11,2021_Oct_20_1322,ER,2021.1.4,59.995207603596555,
,,,,,Stimuli/9295.jpg,,,,,,,,,,,,,,,,,,,,,0,17,17,13,3.1,,,,,,,,,,,,,,,1627.0167474606424,6.017224236333277,None,M28B11,2021_Oct_20_1322,ER,2021.1.4,59.995207603596555,
,,,,,Stimuli/6838.jpg,,,,,,,,,,,,,,,,,,,,,0,18,18,7,3.2,,,,,,,,,,,,,,,1636.2720406109584,6.005370351311285,None,M28B11,2021_Oct_20_1322,ER,2021.1.4,59.995207603596555,
,,,,,Stimuli/3230.jpg,,,,,,,,,,,,,,,,,,,,,0,19,19,5,4.3,,,,,,,,,,,,,,,1646.6241106971866,6.000645260850433,None,M28B11,2021_Oct_20_1322,ER,2021.1.4,59.995207603596555,
,,,,,,,,,,,,,,,,,,,,,,,,,,,,,,,,,,73.7037037037037,6.202847180538811,105.55555555555556,5.480869142047595,,,,,,,,,,,M28B11,2021_Oct_20_1322,ER,2021.1.4,59.995207603596555,
