Block,conds_view_File,n_reps,instr_1,TriggerBlockView,ImageFile,Trigger,conds_reg_File,TriggerBlockReg,instr_2,blocks_view.thisRepN,blocks_view.thisTrialN,blocks_view.thisN,blocks_view.thisIndex,trials_view.thisRepN,trials_view.thisTrialN,trials_view.thisN,trials_view.thisIndex,blocks_reg.thisRepN,blocks_reg.thisTrialN,blocks_reg.thisN,blocks_reg.thisIndex,trials_reg.thisRepN,trials_reg.thisTrialN,trials_reg.thisN,trials_reg.thisIndex,trials_choice.thisRepN,trials_choice.thisTrialN,trials_choice.thisN,trials_choice.thisIndex,Fix_jitter,image_view.started,image_view.lasted,image_view.stopped,slider_arousal.response,slider_arousal.rt,slider_effort.response,slider_effort.rt,image_reg.started,image_reg.lasted,image_reg.stopped,resp_choice.keys,resp_choice.rt,key_resp.keys,key_resp.rt,image.started,image.lased,image.stopped,participant,date,expName,psychopyVersion,frameRate,
,,,,,,,,,,,,,,,,,,,,,,,,,,,,,,,,,,,,,,,,,,,,,,,,R27R01,2021_Oct_26_1450,ER,2021.1.4,60.003869119784284,
1,StimuliNeutral.xlsx,1,ANSCHAUEN,21,Stimuli/7009.jpg,1,,,,0,0,0,0,0,0,0,9,,,,,,,,,,,,,3.6,99.499469233338,6.02364883874543,None,,,,,,,,,,,,,,,R27R01,2021_Oct_26_1450,ER,2021.1.4,60.003869119784284,
1,StimuliNeutral.xlsx,1,ANSCHAUEN,21,Stimuli/083.jpg,1,,,,0,0,0,0,0,1,1,0,,,,,,,,,,,,,4.8,110.37180228725288,6.000866549959028,None,,,,,,,,,,,,,,,R27R01,2021_Oct_26_1450,ER,2021.1.4,60.003869119784284,
1,StimuliNeutral.xlsx,1,ANSCHAUEN,21,Stimuli/124.jpg,1,,,,0,0,0,0,0,2,2,2,,,,,,,,,,,,,3.6,120.00234634473554,6.005120190017124,None,,,,,,,,,,,,,,,R27R01,2021_Oct_26_1450,ER,2021.1.4,60.003869119784284,
1,StimuliNeutral.xlsx,1,ANSCHAUEN,21,Stimuli/143.jpg,1,,,,0,0,0,0,0,3,3,4,,,,,,,,,,,,,4.9,130.94983011937984,6.009703261496043,None,,,,,,,,,,,,,,,R27R01,2021_Oct_26_1450,ER,2021.1.4,60.003869119784284,
1,StimuliNeutral.xlsx,1,ANSCHAUEN,21,Stimuli/7000.jpg,1,,,,0,0,0,0,0,4,4,5,,,,,,,,,,,,,4.2,141.2054020465232,5.999116479622899,None,,,,,,,,,,,,,,,R27R01,2021_Oct_26_1450,ER,2021.1.4,60.003869119784284,
1,StimuliNeutral.xlsx,1,ANSCHAUEN,21,Stimuli/7185.jpg,1,,,,0,0,0,0,0,5,5,15,,,,,,,,,,,,,3.4,150.64656201468688,6.017268731539843,None,,,,,,,,,,,,,,,R27R01,2021_Oct_26_1450,ER,2021.1.4,60.003869119784284,
1,StimuliNeutral.xlsx,1,ANSCHAUEN,21,Stimuli/7025.jpg,1,,,,0,0,0,0,0,6,6,11,,,,,,,,,,,,,3.2,159.89343957007418,6.006878184158722,None,,,,,,,,,,,,,,,R27R01,2021_Oct_26_1450,ER,2021.1.4,60.003869119784284,
1,StimuliNeutral.xlsx,1,ANSCHAUEN,21,Stimuli/7233.jpg,1,,,,0,0,0,0,0,7,7,18,,,,,,,,,,,,,4.7,170.6659686018395,6.012247637214159,None,,,,,,,,,,,,,,,R27R01,2021_Oct_26_1450,ER,2021.1.4,60.003869119784284,
1,StimuliNeutral.xlsx,1,ANSCHAUEN,21,Stimuli/140.jpg,1,,,,0,0,0,0,0,8,8,3,,,,,,,,,,,,,3.8,180.51897494826267,6.0056239451635065,None,,,,,,,,,,,,,,,R27R01,2021_Oct_26_1450,ER,2021.1.4,60.003869119784284,
1,StimuliNeutral.xlsx,1,ANSCHAUEN,21,Stimuli/7211.jpg,1,,,,0,0,0,0,0,9,9,16,,,,,,,,,,,,,3.1,189.66751743317445,6.009709998334756,None,,,,,,,,,,,,,,,R27R01,2021_Oct_26_1450,ER,2021.1.4,60.003869119784284,
1,StimuliNeutral.xlsx,1,ANSCHAUEN,21,Stimuli/7100.jpg,1,,,,0,0,0,0,0,10,10,13,,,,,,,,,,,,,3.1,198.81290162386676,6.001309705635322,None,,,,,,,,,,,,,,,R27R01,2021_Oct_26_1450,ER,2021.1.4,60.003869119784284,
1,StimuliNeutral.xlsx,1,ANSCHAUEN,21,Stimuli/7150.jpg,1,,,,0,0,0,0,0,11,11,14,,,,,,,,,,,,,4.2,209.06545737201031,6.011676513679504,None,,,,,,,,,,,,,,,R27R01,2021_Oct_26_1450,ER,2021.1.4,60.003869119784284,
1,StimuliNeutral.xlsx,1,ANSCHAUEN,21,Stimuli/7002.jpg,1,,,,0,0,0,0,0,12,12,6,,,,,,,,,,,,,4.4,219.50268976311668,6.005451032965993,None,,,,,,,,,,,,,,,R27R01,2021_Oct_26_1450,ER,2021.1.4,60.003869119784284,
1,StimuliNeutral.xlsx,1,ANSCHAUEN,21,Stimuli/7224.jpg,1,,,,0,0,0,0,0,13,13,17,,,,,,,,,,,,,3.6,229.1451243411932,6.003128652128453,None,,,,,,,,,,,,,,,R27R01,2021_Oct_26_1450,ER,2021.1.4,60.003869119784284,
1,StimuliNeutral.xlsx,1,ANSCHAUEN,21,Stimuli/7021.jpg,1,,,,0,0,0,0,0,14,14,10,,,,,,,,,,,,,4.9,240.11541873142755,6.011536740312977,None,,,,,,,,,,,,,,,R27R01,2021_Oct_26_1450,ER,2021.1.4,60.003869119784284,
1,StimuliNeutral.xlsx,1,ANSCHAUEN,21,Stimuli/7041.jpg,1,,,,0,0,0,0,0,15,15,12,,,,,,,,,,,,,4.1,250.26570894482165,6.01330586627887,None,,,,,,,,,,,,,,,R27R01,2021_Oct_26_1450,ER,2021.1.4,60.003869119784284,
1,StimuliNeutral.xlsx,1,ANSCHAUEN,21,Stimuli/7004.jpg,1,,,,0,0,0,0,0,16,16,7,,,,,,,,,,,,,3.0,259.31194515314905,6.003284882629714,None,,,,,,,,,,,,,,,R27R01,2021_Oct_26_1450,ER,2021.1.4,60.003869119784284,
1,StimuliNeutral.xlsx,1,ANSCHAUEN,21,Stimuli/7235.jpg,1,,,,0,0,0,0,0,17,17,19,,,,,,,,,,,,,4.6,269.9657803873938,6.012163811690698,None,,,,,,,,,,,,,,,R27R01,2021_Oct_26_1450,ER,2021.1.4,60.003869119784284,
1,StimuliNeutral.xlsx,1,ANSCHAUEN,21,Stimuli/7006.jpg,1,,,,0,0,0,0,0,18,18,8,,,,,,,,,,,,,4.4,280.4172470774149,6.009433787941589,None,,,,,,,,,,,,,,,R27R01,2021_Oct_26_1450,ER,2021.1.4,60.003869119784284,
1,StimuliNeutral.xlsx,1,ANSCHAUEN,21,Stimuli/107.jpg,1,,,,0,0,0,0,0,19,19,1,,,,,,,,,,,,,4.0,290.4445768286748,6.004613002291535,None,,,,,,,,,,,,,,,R27R01,2021_Oct_26_1450,ER,2021.1.4,60.003869119784284,
1,StimuliNeutral.xlsx,1,ANSCHAUEN,21,,,,,,0,0,0,0,,,,,,,,,,,,,,,,,,,,,3.3333333333333437,6.3183544533230815,11.111111111111116,3.2479413343239685,,,,,,,,,,,R27R01,2021_Oct_26_1450,ER,2021.1.4,60.003869119784284,
2,StimuliNegative.xlsx,1,ANSCHAUEN,22,Stimuli/9182.jpg,,,,,0,1,1,1,0,0,0,13,,,,,,,,,,,,,4.2,320.3229281253077,6.015622472682708,None,,,,,,,,,,,,,,,R27R01,2021_Oct_26_1450,ER,2021.1.4,60.003869119784284,
2,StimuliNegative.xlsx,1,ANSCHAUEN,22,Stimuli/3280.jpg,,,,,0,1,1,1,0,1,1,8,,,,,,,,,,,,,3.8,330.17769791950377,6.004455809384581,None,,,,,,,,,,,,,,,R27R01,2021_Oct_26_1450,ER,2021.1.4,60.003869119784284,
2,StimuliNegative.xlsx,1,ANSCHAUEN,22,Stimuli/327.jpg,,,,,0,1,1,1,0,2,2,3,,,,,,,,,,,,,4.8,341.0393906176366,6.013697886140335,None,,,,,,,,,,,,,,,R27R01,2021_Oct_26_1450,ER,2021.1.4,60.003869119784284,
2,StimuliNegative.xlsx,1,ANSCHAUEN,22,Stimuli/9425.jpg,,,,,0,1,1,1,0,3,3,18,,,,,,,,,,,,,4.7,351.8229090375976,6.01388661386909,None,,,,,,,,,,,,,,,R27R01,2021_Oct_26_1450,ER,2021.1.4,60.003869119784284,
2,StimuliNegative.xlsx,1,ANSCHAUEN,22,Stimuli/6244.jpg,,,,,0,1,1,1,0,4,4,10,,,,,,,,,,,,,3.4,361.27708201203063,6.005500981814066,None,,,,,,,,,,,,,,,R27R01,2021_Oct_26_1450,ER,2021.1.4,60.003869119784284,
2,StimuliNegative.xlsx,1,ANSCHAUEN,22,Stimuli/3022.jpg,,,,,0,1,1,1,0,5,5,6,,,,,,,,,,,,,5.0,372.3350181846529,6.007034831702413,None,,,,,,,,,,,,,,,R27R01,2021_Oct_26_1450,ER,2021.1.4,60.003869119784284,
2,StimuliNegative.xlsx,1,ANSCHAUEN,22,Stimuli/9300.jpg,,,,,0,1,1,1,0,6,6,15,,,,,,,,,,,,,3.0,381.3837784619411,6.0074868415099445,None,,,,,,,,,,,,,,,R27R01,2021_Oct_26_1450,ER,2021.1.4,60.003869119784284,
2,StimuliNegative.xlsx,1,ANSCHAUEN,22,Stimuli/1111.jpg,,,,,0,1,1,1,0,7,7,4,,,,,,,,,,,,,3.4,390.8230206766416,6.0137899562714665,None,,,,,,,,,,,,,,,R27R01,2021_Oct_26_1450,ER,2021.1.4,60.003869119784284,
2,StimuliNegative.xlsx,1,ANSCHAUEN,22,Stimuli/9326.jpg,,,,,0,1,1,1,0,8,8,16,,,,,,,,,,,,,3.5,400.38947494040303,6.01360966563152,None,,,,,,,,,,,,,,,R27R01,2021_Oct_26_1450,ER,2021.1.4,60.003869119784284,
2,StimuliNegative.xlsx,1,ANSCHAUEN,22,Stimuli/9424.jpg,,,,,0,1,1,1,0,9,9,17,,,,,,,,,,,,,3.5,409.945684717866,6.001952913346031,None,,,,,,,,,,,,,,,R27R01,2021_Oct_26_1450,ER,2021.1.4,60.003869119784284,
2,StimuliNegative.xlsx,1,ANSCHAUEN,22,Stimuli/9253.jpg,,,,,0,1,1,1,0,10,10,14,,,,,,,,,,,,,3.5,419.50288160262335,6.004357098655191,None,,,,,,,,,,,,,,,R27R01,2021_Oct_26_1450,ER,2021.1.4,60.003869119784284,
2,StimuliNegative.xlsx,1,ANSCHAUEN,22,Stimuli/255.jpg,,,,,0,1,1,1,0,11,11,2,,,,,,,,,,,,,3.8,429.35208163508855,6.005311163359011,None,,,,,,,,,,,,,,,R27R01,2021_Oct_26_1450,ER,2021.1.4,60.003869119784284,
2,StimuliNegative.xlsx,1,ANSCHAUEN,22,Stimuli/3017.jpg,,,,,0,1,1,1,0,12,12,5,,,,,,,,,,,,,4.1,439.51235006924503,6.01677286811946,None,,,,,,,,,,,,,,,R27R01,2021_Oct_26_1450,ER,2021.1.4,60.003869119784284,
2,StimuliNegative.xlsx,1,ANSCHAUEN,22,Stimuli/225.jpg,,,,,0,1,1,1,0,13,13,0,,,,,,,,,,,,,4.9,450.4702813977592,6.0024634053309,None,,,,,,,,,,,,,,,R27R01,2021_Oct_26_1450,ER,2021.1.4,60.003869119784284,
2,StimuliNegative.xlsx,1,ANSCHAUEN,22,Stimuli/3180.jpg,,,,,0,1,1,1,0,14,14,7,,,,,,,,,,,,,3.2,459.72389482960443,6.012140393155505,None,,,,,,,,,,,,,,,R27R01,2021_Oct_26_1450,ER,2021.1.4,60.003869119784284,
2,StimuliNegative.xlsx,1,ANSCHAUEN,22,Stimuli/230.jpg,,,,,0,1,1,1,0,15,15,1,,,,,,,,,,,,,3.3,469.0728319649529,6.013443714834011,None,,,,,,,,,,,,,,,R27R01,2021_Oct_26_1450,ER,2021.1.4,60.003869119784284,
2,StimuliNegative.xlsx,1,ANSCHAUEN,22,Stimuli/9920.jpg,,,,,0,1,1,1,0,16,16,19,,,,,,,,,,,,,4.2,479.34193435175075,6.009691071025827,None,,,,,,,,,,,,,,,R27R01,2021_Oct_26_1450,ER,2021.1.4,60.003869119784284,
2,StimuliNegative.xlsx,1,ANSCHAUEN,22,Stimuli/9180.jpg,,,,,0,1,1,1,0,17,17,12,,,,,,,,,,,,,4.3,489.6969144315599,6.000323656987121,None,,,,,,,,,,,,,,,R27R01,2021_Oct_26_1450,ER,2021.1.4,60.003869119784284,
2,StimuliNegative.xlsx,1,ANSCHAUEN,22,Stimuli/6836.jpg,,,,,0,1,1,1,0,18,18,11,,,,,,,,,,,,,4.0,499.7580611891033,6.01013794800383,None,,,,,,,,,,,,,,,R27R01,2021_Oct_26_1450,ER,2021.1.4,60.003869119784284,
2,StimuliNegative.xlsx,1,ANSCHAUEN,22,Stimuli/6190.jpg,,,,,0,1,1,1,0,19,19,9,,,,,,,,,,,,,3.3,509.10990511002046,6.0058686207351,None,,,,,,,,,,,,,,,R27R01,2021_Oct_26_1450,ER,2021.1.4,60.003869119784284,
2,StimuliNegative.xlsx,1,ANSCHAUEN,22,,,,,,0,1,1,1,,,,,,,,,,,,,,,,,,,,,99.25925925925927,9.818290132551965,62.22222222222222,4.297115125197706,,,,,,,,,,,R27R01,2021_Oct_26_1450,ER,2021.1.4,60.003869119784284,
3,,1,ABLENKEN,,Stimuli/219.jpg,,StimuliNegative.xlsx,23,"Denken Sie während des Betrachtens der Bilder an etwas Neutrales, das mit dem Bild nichts zu tun hat. Das könnten geometrische Figuren, Alltagstätigkeiten oder bekannte Orte sein.",,,,,,,,,0,0,0,0,0,0,0,1,,,,,3.0,,,,,,,,548.3813025132579,6.013793805893556,None,,,,,,,,R27R01,2021_Oct_26_1450,ER,2021.1.4,60.003869119784284,
3,,1,ABLENKEN,,Stimuli/6940.jpg,,StimuliNegative.xlsx,23,"Denken Sie während des Betrachtens der Bilder an etwas Neutrales, das mit dem Bild nichts zu tun hat. Das könnten geometrische Figuren, Alltagstätigkeiten oder bekannte Orte sein.",,,,,,,,,0,0,0,0,0,1,1,12,,,,,4.6,,,,,,,,559.0455824141557,6.002410793827266,None,,,,,,,,R27R01,2021_Oct_26_1450,ER,2021.1.4,60.003869119784284,
3,,1,ABLENKEN,,Stimuli/253.jpg,,StimuliNegative.xlsx,23,"Denken Sie während des Betrachtens der Bilder an etwas Neutrales, das mit dem Bild nichts zu tun hat. Das könnten geometrische Figuren, Alltagstätigkeiten oder bekannte Orte sein.",,,,,,,,,0,0,0,0,0,2,2,3,,,,,3.6,,,,,,,,568.6958682967249,6.016587990012567,None,,,,,,,,R27R01,2021_Oct_26_1450,ER,2021.1.4,60.003869119784284,
3,,1,ABLENKEN,,Stimuli/9140.jpg,,StimuliNegative.xlsx,23,"Denken Sie während des Betrachtens der Bilder an etwas Neutrales, das mit dem Bild nichts zu tun hat. Das könnten geometrische Figuren, Alltagstätigkeiten oder bekannte Orte sein.",,,,,,,,,0,0,0,0,0,3,3,15,,,,,4.6,,,,,,,,579.3615356656269,6.0041614095266596,None,,,,,,,,R27R01,2021_Oct_26_1450,ER,2021.1.4,60.003869119784284,
3,,1,ABLENKEN,,Stimuli/326.jpg,,StimuliNegative.xlsx,23,"Denken Sie während des Betrachtens der Bilder an etwas Neutrales, das mit dem Bild nichts zu tun hat. Das könnten geometrische Figuren, Alltagstätigkeiten oder bekannte Orte sein.",,,,,,,,,0,0,0,0,0,4,4,5,,,,,4.2,,,,,,,,589.628150234073,6.003451795832461,None,,,,,,,,R27R01,2021_Oct_26_1450,ER,2021.1.4,60.003869119784284,
3,,1,ABLENKEN,,Stimuli/8230.jpg,,StimuliNegative.xlsx,23,"Denken Sie während des Betrachtens der Bilder an etwas Neutrales, das mit dem Bild nichts zu tun hat. Das könnten geometrische Figuren, Alltagstätigkeiten oder bekannte Orte sein.",,,,,,,,,0,0,0,0,0,5,5,13,,,,,3.9,,,,,,,,599.5851249314687,6.005801669388347,None,,,,,,,,R27R01,2021_Oct_26_1450,ER,2021.1.4,60.003869119784284,
3,,1,ABLENKEN,,Stimuli/6410.jpg,,StimuliNegative.xlsx,23,"Denken Sie während des Betrachtens der Bilder an etwas Neutrales, das mit dem Bild nichts zu tun hat. Das könnten geometrische Figuren, Alltagstätigkeiten oder bekannte Orte sein.",,,,,,,,,0,0,0,0,0,6,6,9,,,,,4.4,,,,,,,,610.0348721235703,6.0062880049938485,None,,,,,,,,R27R01,2021_Oct_26_1450,ER,2021.1.4,60.003869119784284,
3,,1,ABLENKEN,,Stimuli/6242.jpg,,StimuliNegative.xlsx,23,"Denken Sie während des Betrachtens der Bilder an etwas Neutrales, das mit dem Bild nichts zu tun hat. Das könnten geometrische Figuren, Alltagstätigkeiten oder bekannte Orte sein.",,,,,,,,,0,0,0,0,0,7,7,8,,,,,3.2,,,,,,,,619.2692489932435,6.004248988431527,None,,,,,,,,R27R01,2021_Oct_26_1450,ER,2021.1.4,60.003869119784284,
3,,1,ABLENKEN,,Stimuli/6555.jpg,,StimuliNegative.xlsx,23,"Denken Sie während des Betrachtens der Bilder an etwas Neutrales, das mit dem Bild nichts zu tun hat. Das könnten geometrische Figuren, Alltagstätigkeiten oder bekannte Orte sein.",,,,,,,,,0,0,0,0,0,8,8,10,,,,,4.0,,,,,,,,629.3143428261808,6.012454778969186,None,,,,,,,,R27R01,2021_Oct_26_1450,ER,2021.1.4,60.003869119784284,
3,,1,ABLENKEN,,Stimuli/9340.jpg,,StimuliNegative.xlsx,23,"Denken Sie während des Betrachtens der Bilder an etwas Neutrales, das mit dem Bild nichts zu tun hat. Das könnten geometrische Figuren, Alltagstätigkeiten oder bekannte Orte sein.",,,,,,,,,0,0,0,0,0,9,9,16,,,,,3.2,,,,,,,,638.5622854437122,6.002858857772026,None,,,,,,,,R27R01,2021_Oct_26_1450,ER,2021.1.4,60.003869119784284,
3,,1,ABLENKEN,,Stimuli/3350.jpg,,StimuliNegative.xlsx,23,"Denken Sie während des Betrachtens der Bilder an etwas Neutrales, das mit dem Bild nichts zu tun hat. Das könnten geometrische Figuren, Alltagstätigkeiten oder bekannte Orte sein.",,,,,,,,,0,0,0,0,0,10,10,7,,,,,5.0,,,,,,,,649.6181575772273,6.006390340784947,None,,,,,,,,R27R01,2021_Oct_26_1450,ER,2021.1.4,60.003869119784284,
3,,1,ABLENKEN,,Stimuli/9570.jpg,,StimuliNegative.xlsx,23,"Denken Sie während des Betrachtens der Bilder an etwas Neutrales, das mit dem Bild nichts zu tun hat. Das könnten geometrische Figuren, Alltagstätigkeiten oder bekannte Orte sein.",,,,,,,,,0,0,0,0,0,11,11,18,,,,,3.2,,,,,,,,658.8588645090174,6.009660915652148,None,,,,,,,,R27R01,2021_Oct_26_1450,ER,2021.1.4,60.003869119784284,
3,,1,ABLENKEN,,Stimuli/254.jpg,,StimuliNegative.xlsx,23,"Denken Sie während des Betrachtens der Bilder an etwas Neutrales, das mit dem Bild nichts zu tun hat. Das könnten geometrische Figuren, Alltagstätigkeiten oder bekannte Orte sein.",,,,,,,,,0,0,0,0,0,12,12,4,,,,,3.5,,,,,,,,668.421514704434,6.000149461582168,None,,,,,,,,R27R01,2021_Oct_26_1450,ER,2021.1.4,60.003869119784284,
3,,1,ABLENKEN,,Stimuli/9800.jpg,,StimuliNegative.xlsx,23,"Denken Sie während des Betrachtens der Bilder an etwas Neutrales, das mit dem Bild nichts zu tun hat. Das könnten geometrische Figuren, Alltagstätigkeiten oder bekannte Orte sein.",,,,,,,,,0,0,0,0,0,13,13,19,,,,,3.8,,,,,,,,678.268165324592,6.007888806228948,None,,,,,,,,R27R01,2021_Oct_26_1450,ER,2021.1.4,60.003869119784284,
3,,1,ABLENKEN,,Stimuli/9041.jpg,,StimuliNegative.xlsx,23,"Denken Sie während des Betrachtens der Bilder an etwas Neutrales, das mit dem Bild nichts zu tun hat. Das könnten geometrische Figuren, Alltagstätigkeiten oder bekannte Orte sein.",,,,,,,,,0,0,0,0,0,14,14,14,,,,,3.1,,,,,,,,687.4230972199632,6.013694036518245,None,,,,,,,,R27R01,2021_Oct_26_1450,ER,2021.1.4,60.003869119784284,
3,,1,ABLENKEN,,Stimuli/9409.jpg,,StimuliNegative.xlsx,23,"Denken Sie während des Betrachtens der Bilder an etwas Neutrales, das mit dem Bild nichts zu tun hat. Das könnten geometrische Figuren, Alltagstätigkeiten oder bekannte Orte sein.",,,,,,,,,0,0,0,0,0,15,15,17,,,,,3.3,,,,,,,,696.7803277247547,6.016276812218166,None,,,,,,,,R27R01,2021_Oct_26_1450,ER,2021.1.4,60.003869119784284,
3,,1,ABLENKEN,,Stimuli/6825.jpg,,StimuliNegative.xlsx,23,"Denken Sie während des Betrachtens der Bilder an etwas Neutrales, das mit dem Bild nichts zu tun hat. Das könnten geometrische Figuren, Alltagstätigkeiten oder bekannte Orte sein.",,,,,,,,,0,0,0,0,0,16,16,11,,,,,3.9,,,,,,,,706.7513750369324,6.00732557441961,None,,,,,,,,R27R01,2021_Oct_26_1450,ER,2021.1.4,60.003869119784284,
3,,1,ABLENKEN,,Stimuli/1301.jpg,,StimuliNegative.xlsx,23,"Denken Sie während des Betrachtens der Bilder an etwas Neutrales, das mit dem Bild nichts zu tun hat. Das könnten geometrische Figuren, Alltagstätigkeiten oder bekannte Orte sein.",,,,,,,,,0,0,0,0,0,17,17,6,,,,,4.0,,,,,,,,716.7776310643978,6.003759348566746,None,,,,,,,,R27R01,2021_Oct_26_1450,ER,2021.1.4,60.003869119784284,
3,,1,ABLENKEN,,Stimuli/226.jpg,,StimuliNegative.xlsx,23,"Denken Sie während des Betrachtens der Bilder an etwas Neutrales, das mit dem Bild nichts zu tun hat. Das könnten geometrische Figuren, Alltagstätigkeiten oder bekannte Orte sein.",,,,,,,,,0,0,0,0,0,18,18,2,,,,,3.7,,,,,,,,726.5298084267586,6.016001885031528,None,,,,,,,,R27R01,2021_Oct_26_1450,ER,2021.1.4,60.003869119784284,
3,,1,ABLENKEN,,Stimuli/208.jpg,,StimuliNegative.xlsx,23,"Denken Sie während des Betrachtens der Bilder an etwas Neutrales, das mit dem Bild nichts zu tun hat. Das könnten geometrische Figuren, Alltagstätigkeiten oder bekannte Orte sein.",,,,,,,,,0,0,0,0,0,19,19,0,,,,,3.5,,,,,,,,736.0842313379137,6.006327142819828,None,,,,,,,,R27R01,2021_Oct_26_1450,ER,2021.1.4,60.003869119784284,
3,,1,ABLENKEN,,,,StimuliNegative.xlsx,23,"Denken Sie während des Betrachtens der Bilder an etwas Neutrales, das mit dem Bild nichts zu tun hat. Das könnten geometrische Figuren, Alltagstätigkeiten oder bekannte Orte sein.",,,,,,,,,0,0,0,0,,,,,,,,,,,,,113.33333333333333,5.504525712107807,98.88888888888889,3.348102729734819,,,,,,,,,,,R27R01,2021_Oct_26_1450,ER,2021.1.4,60.003869119784284,
5,,1,UNTERDRÜCKEN,,Stimuli/6831.jpg,,StimuliNegative.xlsx,25,"Unterdrücken Sie alle aufkommenden Emotionen. Wenn Sie also die Bilder ansehen, verhalten Sie sich so, dass eine außenstehende Person nicht sehen kann, welche Emotionen Sie gerade empfinden.",,,,,,,,,0,1,1,2,0,0,0,12,,,,,4.8,,,,,,,,776.5432384754342,6.005333619488738,None,,,,,,,,R27R01,2021_Oct_26_1450,ER,2021.1.4,60.003869119784284,
5,,1,UNTERDRÜCKEN,,Stimuli/3101.jpg,,StimuliNegative.xlsx,25,"Unterdrücken Sie alle aufkommenden Emotionen. Wenn Sie also die Bilder ansehen, verhalten Sie sich so, dass eine außenstehende Person nicht sehen kann, welche Emotionen Sie gerade empfinden.",,,,,,,,,0,1,1,2,0,1,1,5,,,,,4.8,,,,,,,,787.394097374269,6.004405443493852,None,,,,,,,,R27R01,2021_Oct_26_1450,ER,2021.1.4,60.003869119784284,
5,,1,UNTERDRÜCKEN,,Stimuli/3215.jpg,,StimuliNegative.xlsx,25,"Unterdrücken Sie alle aufkommenden Emotionen. Wenn Sie also die Bilder ansehen, verhalten Sie sich so, dass eine außenstehende Person nicht sehen kann, welche Emotionen Sie gerade empfinden.",,,,,,,,,0,1,1,2,0,2,2,7,,,,,4.8,,,,,,,,798.2466683925807,6.014770647529076,None,,,,,,,,R27R01,2021_Oct_26_1450,ER,2021.1.4,60.003869119784284,
5,,1,UNTERDRÜCKEN,,Stimuli/6571.jpg,,StimuliNegative.xlsx,25,"Unterdrücken Sie alle aufkommenden Emotionen. Wenn Sie also die Bilder ansehen, verhalten Sie sich so, dass eine außenstehende Person nicht sehen kann, welche Emotionen Sie gerade empfinden.",,,,,,,,,0,1,1,2,0,3,3,11,,,,,4.6,,,,,,,,808.9014169496938,6.00626041603482,None,,,,,,,,R27R01,2021_Oct_26_1450,ER,2021.1.4,60.003869119784284,
5,,1,UNTERDRÜCKEN,,Stimuli/3220.jpg,,StimuliNegative.xlsx,25,"Unterdrücken Sie alle aufkommenden Emotionen. Wenn Sie also die Bilder ansehen, verhalten Sie sich so, dass eine außenstehende Person nicht sehen kann, welche Emotionen Sie gerade empfinden.",,,,,,,,,0,1,1,2,0,4,4,8,,,,,4.6,,,,,,,,819.5401430583772,6.010636474079547,None,,,,,,,,R27R01,2021_Oct_26_1450,ER,2021.1.4,60.003869119784284,
5,,1,UNTERDRÜCKEN,,Stimuli/245.jpg,,StimuliNegative.xlsx,25,"Unterdrücken Sie alle aufkommenden Emotionen. Wenn Sie also die Bilder ansehen, verhalten Sie sich so, dass eine außenstehende Person nicht sehen kann, welche Emotionen Sie gerade empfinden.",,,,,,,,,0,1,1,2,0,5,5,2,,,,,4.7,,,,,,,,830.2956830657365,6.001410758217844,None,,,,,,,,R27R01,2021_Oct_26_1450,ER,2021.1.4,60.003869119784284,
5,,1,UNTERDRÜCKEN,,Stimuli/9400.jpg,,StimuliNegative.xlsx,25,"Unterdrücken Sie alle aufkommenden Emotionen. Wenn Sie also die Bilder ansehen, verhalten Sie sich so, dass eine außenstehende Person nicht sehen kann, welche Emotionen Sie gerade empfinden.",,,,,,,,,0,1,1,2,0,6,6,15,,,,,5.0,,,,,,,,841.3570800487234,6.010970428806559,None,,,,,,,,R27R01,2021_Oct_26_1450,ER,2021.1.4,60.003869119784284,
5,,1,UNTERDRÜCKEN,,Stimuli/9402.jpg,,StimuliNegative.xlsx,25,"Unterdrücken Sie alle aufkommenden Emotionen. Wenn Sie also die Bilder ansehen, verhalten Sie sich so, dass eine außenstehende Person nicht sehen kann, welche Emotionen Sie gerade empfinden.",,,,,,,,,0,1,1,2,0,7,7,16,,,,,3.2,,,,,,,,850.6176138180906,6.008269277224372,None,,,,,,,,R27R01,2021_Oct_26_1450,ER,2021.1.4,60.003869119784284,
5,,1,UNTERDRÜCKEN,,Stimuli/3225.jpg,,StimuliNegative.xlsx,25,"Unterdrücken Sie alle aufkommenden Emotionen. Wenn Sie also die Bilder ansehen, verhalten Sie sich so, dass eine außenstehende Person nicht sehen kann, welche Emotionen Sie gerade empfinden.",,,,,,,,,0,1,1,2,0,8,8,9,,,,,4.5,,,,,,,,861.1795296980711,6.017197609769482,None,,,,,,,,R27R01,2021_Oct_26_1450,ER,2021.1.4,60.003869119784284,
5,,1,UNTERDRÜCKEN,,Stimuli/6020.jpg,,StimuliNegative.xlsx,25,"Unterdrücken Sie alle aufkommenden Emotionen. Wenn Sie also die Bilder ansehen, verhalten Sie sich so, dass eine außenstehende Person nicht sehen kann, welche Emotionen Sie gerade empfinden.",,,,,,,,,0,1,1,2,0,9,9,10,,,,,4.7,,,,,,,,871.9266226719008,6.005897172099594,None,,,,,,,,R27R01,2021_Oct_26_1450,ER,2021.1.4,60.003869119784284,
5,,1,UNTERDRÜCKEN,,Stimuli/3181.jpg,,StimuliNegative.xlsx,25,"Unterdrücken Sie alle aufkommenden Emotionen. Wenn Sie also die Bilder ansehen, verhalten Sie sich so, dass eine außenstehende Person nicht sehen kann, welche Emotionen Sie gerade empfinden.",,,,,,,,,0,1,1,2,0,10,10,6,,,,,3.2,,,,,,,,881.1774611677381,6.004395177835249,None,,,,,,,,R27R01,2021_Oct_26_1450,ER,2021.1.4,60.003869119784284,
5,,1,UNTERDRÜCKEN,,Stimuli/3016.jpg,,StimuliNegative.xlsx,25,"Unterdrücken Sie alle aufkommenden Emotionen. Wenn Sie also die Bilder ansehen, verhalten Sie sich so, dass eine außenstehende Person nicht sehen kann, welche Emotionen Sie gerade empfinden.",,,,,,,,,0,1,1,2,0,11,11,4,,,,,3.8,,,,,,,,891.0131413270094,6.016236070382547,None,,,,,,,,R27R01,2021_Oct_26_1450,ER,2021.1.4,60.003869119784284,
5,,1,UNTERDRÜCKEN,,Stimuli/9373.jpg,,StimuliNegative.xlsx,25,"Unterdrücken Sie alle aufkommenden Emotionen. Wenn Sie also die Bilder ansehen, verhalten Sie sich so, dass eine außenstehende Person nicht sehen kann, welche Emotionen Sie gerade empfinden.",,,,,,,,,0,1,1,2,0,12,12,14,,,,,3.8,,,,,,,,900.8623067128749,6.001461444910547,None,,,,,,,,R27R01,2021_Oct_26_1450,ER,2021.1.4,60.003869119784284,
5,,1,UNTERDRÜCKEN,,Stimuli/9403.jpg,,StimuliNegative.xlsx,25,"Unterdrücken Sie alle aufkommenden Emotionen. Wenn Sie also die Bilder ansehen, verhalten Sie sich so, dass eine außenstehende Person nicht sehen kann, welche Emotionen Sie gerade empfinden.",,,,,,,,,0,1,1,2,0,13,13,17,,,,,3.3,,,,,,,,910.2182867320523,6.006883734030907,None,,,,,,,,R27R01,2021_Oct_26_1450,ER,2021.1.4,60.003869119784284,
5,,1,UNTERDRÜCKEN,,Stimuli/2981.jpg,,StimuliNegative.xlsx,25,"Unterdrücken Sie alle aufkommenden Emotionen. Wenn Sie also die Bilder ansehen, verhalten Sie sich so, dass eine außenstehende Person nicht sehen kann, welche Emotionen Sie gerade empfinden.",,,,,,,,,0,1,1,2,0,14,14,3,,,,,4.0,,,,,,,,920.2801854491338,6.0164921664995745,None,,,,,,,,R27R01,2021_Oct_26_1450,ER,2021.1.4,60.003869119784284,
5,,1,UNTERDRÜCKEN,,Stimuli/223.jpg,,StimuliNegative.xlsx,25,"Unterdrücken Sie alle aufkommenden Emotionen. Wenn Sie also die Bilder ansehen, verhalten Sie sich so, dass eine außenstehende Person nicht sehen kann, welche Emotionen Sie gerade empfinden.",,,,,,,,,0,1,1,2,0,15,15,0,,,,,4.7,,,,,,,,931.0321761048174,6.011744523671496,None,,,,,,,,R27R01,2021_Oct_26_1450,ER,2021.1.4,60.003869119784284,
5,,1,UNTERDRÜCKEN,,Stimuli/238.jpg,,StimuliNegative.xlsx,25,"Unterdrücken Sie alle aufkommenden Emotionen. Wenn Sie also die Bilder ansehen, verhalten Sie sich so, dass eine außenstehende Person nicht sehen kann, welche Emotionen Sie gerade empfinden.",,,,,,,,,0,1,1,2,0,16,16,1,,,,,3.1,,,,,,,,940.1752081763409,6.008633291083697,None,,,,,,,,R27R01,2021_Oct_26_1450,ER,2021.1.4,60.003869119784284,
5,,1,UNTERDRÜCKEN,,Stimuli/8231.jpg,,StimuliNegative.xlsx,25,"Unterdrücken Sie alle aufkommenden Emotionen. Wenn Sie also die Bilder ansehen, verhalten Sie sich so, dass eine außenstehende Person nicht sehen kann, welche Emotionen Sie gerade empfinden.",,,,,,,,,0,1,1,2,0,17,17,13,,,,,4.8,,,,,,,,951.039270958546,6.014438938414969,None,,,,,,,,R27R01,2021_Oct_26_1450,ER,2021.1.4,60.003869119784284,
5,,1,UNTERDRÜCKEN,,Stimuli/9405.jpg,,StimuliNegative.xlsx,25,"Unterdrücken Sie alle aufkommenden Emotionen. Wenn Sie also die Bilder ansehen, verhalten Sie sich so, dass eine außenstehende Person nicht sehen kann, welche Emotionen Sie gerade empfinden.",,,,,,,,,0,1,1,2,0,18,18,18,,,,,3.8,,,,,,,,960.8867896685122,6.003026091776974,None,,,,,,,,R27R01,2021_Oct_26_1450,ER,2021.1.4,60.003869119784284,
5,,1,UNTERDRÜCKEN,,Stimuli/9423.jpg,,StimuliNegative.xlsx,25,"Unterdrücken Sie alle aufkommenden Emotionen. Wenn Sie also die Bilder ansehen, verhalten Sie sich so, dass eine außenstehende Person nicht sehen kann, welche Emotionen Sie gerade empfinden.",,,,,,,,,0,1,1,2,0,19,19,19,,,,,3.4,,,,,,,,970.3294243627831,6.016574516334913,None,,,,,,,,R27R01,2021_Oct_26_1450,ER,2021.1.4,60.003869119784284,
5,,1,UNTERDRÜCKEN,,,,StimuliNegative.xlsx,25,"Unterdrücken Sie alle aufkommenden Emotionen. Wenn Sie also die Bilder ansehen, verhalten Sie sich so, dass eine außenstehende Person nicht sehen kann, welche Emotionen Sie gerade empfinden.",,,,,,,,,0,1,1,2,,,,,,,,,,,,,165.55555555555554,9.817678363423056,116.66666666666666,4.48184245485254,,,,,,,,,,,R27R01,2021_Oct_26_1450,ER,2021.1.4,60.003869119784284,
4,,1,DISTANZIEREN,,Stimuli/9040.jpg,,StimuliNegative.xlsx,24,Nehmen Sie die Position eines uninvolvierten Beobachters ein. Denken Sie über das Bild in einer neutralen Weise nach.,,,,,,,,,0,2,2,1,0,0,0,13,,,,,3.2,,,,,,,,1007.2838599135309,6.009270820601159,None,,,,,,,,R27R01,2021_Oct_26_1450,ER,2021.1.4,60.003869119784284,
4,,1,DISTANZIEREN,,Stimuli/222.jpg,,StimuliNegative.xlsx,24,Nehmen Sie die Position eines uninvolvierten Beobachters ein. Denken Sie über das Bild in einer neutralen Weise nach.,,,,,,,,,0,2,2,1,0,1,1,2,,,,,3.5,,,,,,,,1016.8251241743762,6.007274374444023,None,,,,,,,,R27R01,2021_Oct_26_1450,ER,2021.1.4,60.003869119784284,
4,,1,DISTANZIEREN,,Stimuli/3301.jpg,,StimuliNegative.xlsx,24,Nehmen Sie die Position eines uninvolvierten Beobachters ein. Denken Sie über das Bild in einer neutralen Weise nach.,,,,,,,,,0,2,2,1,0,2,2,10,,,,,4.1,,,,,,,,1026.9884219404082,5.997163437956715,None,,,,,,,,R27R01,2021_Oct_26_1450,ER,2021.1.4,60.003869119784284,
4,,1,DISTANZIEREN,,Stimuli/9160.jpg,,StimuliNegative.xlsx,24,Nehmen Sie die Position eines uninvolvierten Beobachters ein. Denken Sie über das Bild in einer neutralen Weise nach.,,,,,,,,,0,2,2,1,0,3,3,17,,,,,3.8,,,,,,,,1036.827579591741,6.003543769723819,None,,,,,,,,R27R01,2021_Oct_26_1450,ER,2021.1.4,60.003869119784284,
4,,1,DISTANZIEREN,,Stimuli/2703.jpg,,StimuliNegative.xlsx,24,Nehmen Sie die Position eines uninvolvierten Beobachters ein. Denken Sie über das Bild in einer neutralen Weise nach.,,,,,,,,,0,2,2,1,0,4,4,6,,,,,4.0,,,,,,,,1046.8786714568798,6.002353274055622,None,,,,,,,,R27R01,2021_Oct_26_1450,ER,2021.1.4,60.003869119784284,
4,,1,DISTANZIEREN,,Stimuli/3051.jpg,,StimuliNegative.xlsx,24,Nehmen Sie die Position eines uninvolvierten Beobachters ein. Denken Sie über das Bild in einer neutralen Weise nach.,,,,,,,,,0,2,2,1,0,5,5,7,,,,,4.6,,,,,,,,1057.5505245270658,6.0077647521534345,None,,,,,,,,R27R01,2021_Oct_26_1450,ER,2021.1.4,60.003869119784284,
4,,1,DISTANZIEREN,,Stimuli/9043.jpg,,StimuliNegative.xlsx,24,Nehmen Sie die Position eines uninvolvierten Beobachters ein. Denken Sie über das Bild in einer neutralen Weise nach.,,,,,,,,,0,2,2,1,0,6,6,15,,,,,3.4,,,,,,,,1066.9987337950954,6.012090123505459,None,,,,,,,,R27R01,2021_Oct_26_1450,ER,2021.1.4,60.003869119784284,
4,,1,DISTANZIEREN,,Stimuli/6562.jpg,,StimuliNegative.xlsx,24,Nehmen Sie die Position eines uninvolvierten Beobachters ein. Denken Sie über das Bild in einer neutralen Weise nach.,,,,,,,,,0,2,2,1,0,7,7,11,,,,,4.2,,,,,,,,1077.2448895463187,6.0032880906483115,None,,,,,,,,R27R01,2021_Oct_26_1450,ER,2021.1.4,60.003869119784284,
4,,1,DISTANZIEREN,,Stimuli/3185.jpg,,StimuliNegative.xlsx,24,Nehmen Sie die Position eines uninvolvierten Beobachters ein. Denken Sie über das Bild in einer neutralen Weise nach.,,,,,,,,,0,2,2,1,0,8,8,9,,,,,4.7,,,,,,,,1088.0122809364464,6.000863245700202,None,,,,,,,,R27R01,2021_Oct_26_1450,ER,2021.1.4,60.003869119784284,
4,,1,DISTANZIEREN,,Stimuli/228.jpg,,StimuliNegative.xlsx,24,Nehmen Sie die Position eines uninvolvierten Beobachters ein. Denken Sie über das Bild in einer neutralen Weise nach.,,,,,,,,,0,2,2,1,0,9,9,3,,,,,3.0,,,,,,,,1097.058552753779,6.00712969280994,None,,,,,,,,R27R01,2021_Oct_26_1450,ER,2021.1.4,60.003869119784284,
4,,1,DISTANZIEREN,,Stimuli/9042.jpg,,StimuliNegative.xlsx,24,Nehmen Sie die Position eines uninvolvierten Beobachters ein. Denken Sie über das Bild in einer neutralen Weise nach.,,,,,,,,,0,2,2,1,0,10,10,14,,,,,3.5,,,,,,,,1106.6189711307204,6.004898932980723,None,,,,,,,,R27R01,2021_Oct_26_1450,ER,2021.1.4,60.003869119784284,
4,,1,DISTANZIEREN,,Stimuli/3160.jpg,,StimuliNegative.xlsx,24,Nehmen Sie die Position eines uninvolvierten Beobachters ein. Denken Sie über das Bild in einer neutralen Weise nach.,,,,,,,,,0,2,2,1,0,11,11,8,,,,,4.0,,,,,,,,1116.6715649901241,5.998944850633507,None,,,,,,,,R27R01,2021_Oct_26_1450,ER,2021.1.4,60.003869119784284,
4,,1,DISTANZIEREN,,Stimuli/210.jpg,,StimuliNegative.xlsx,24,Nehmen Sie die Position eines uninvolvierten Beobachters ein. Denken Sie über das Bild in einer neutralen Weise nach.,,,,,,,,,0,2,2,1,0,12,12,0,,,,,3.4,,,,,,,,1126.1110016107461,6.003087268690251,None,,,,,,,,R27R01,2021_Oct_26_1450,ER,2021.1.4,60.003869119784284,
4,,1,DISTANZIEREN,,Stimuli/246.jpg,,StimuliNegative.xlsx,24,Nehmen Sie die Position eines uninvolvierten Beobachters ein. Denken Sie über das Bild in einer neutralen Weise nach.,,,,,,,,,0,2,2,1,0,13,13,4,,,,,4.2,,,,,,,,1136.3593134712075,6.006224389987892,None,,,,,,,,R27R01,2021_Oct_26_1450,ER,2021.1.4,60.003869119784284,
4,,1,DISTANZIEREN,,Stimuli/9031.jpg,,StimuliNegative.xlsx,24,Nehmen Sie die Position eines uninvolvierten Beobachters ein. Denken Sie über das Bild in einer neutralen Weise nach.,,,,,,,,,0,2,2,1,0,14,14,12,,,,,3.5,,,,,,,,1145.9373961604508,6.001713787646622,None,,,,,,,,R27R01,2021_Oct_26_1450,ER,2021.1.4,60.003869119784284,
4,,1,DISTANZIEREN,,Stimuli/9904.jpg,,StimuliNegative.xlsx,24,Nehmen Sie die Position eines uninvolvierten Beobachters ein. Denken Sie über das Bild in einer neutralen Weise nach.,,,,,,,,,0,2,2,1,0,15,15,19,,,,,4.0,,,,,,,,1155.9816822143282,6.011034589176688,None,,,,,,,,R27R01,2021_Oct_26_1450,ER,2021.1.4,60.003869119784284,
4,,1,DISTANZIEREN,,Stimuli/9184.jpg,,StimuliNegative.xlsx,24,Nehmen Sie die Position eines uninvolvierten Beobachters ein. Denken Sie über das Bild in einer neutralen Weise nach.,,,,,,,,,0,2,2,1,0,16,16,18,,,,,5.0,,,,,,,,1167.020381183175,6.001252699146789,None,,,,,,,,R27R01,2021_Oct_26_1450,ER,2021.1.4,60.003869119784284,
4,,1,DISTANZIEREN,,Stimuli/251.jpg,,StimuliNegative.xlsx,24,Nehmen Sie die Position eines uninvolvierten Beobachters ein. Denken Sie über das Bild in einer neutralen Weise nach.,,,,,,,,,0,2,2,1,0,17,17,5,,,,,3.7,,,,,,,,1176.765845766811,6.009834790254899,None,,,,,,,,R27R01,2021_Oct_26_1450,ER,2021.1.4,60.003869119784284,
4,,1,DISTANZIEREN,,Stimuli/218.jpg,,StimuliNegative.xlsx,24,Nehmen Sie die Position eines uninvolvierten Beobachters ein. Denken Sie über das Bild in einer neutralen Weise nach.,,,,,,,,,0,2,2,1,0,18,18,1,,,,,3.6,,,,,,,,1186.3977898035698,6.0141130037350194,None,,,,,,,,R27R01,2021_Oct_26_1450,ER,2021.1.4,60.003869119784284,
4,,1,DISTANZIEREN,,Stimuli/9145.jpg,,StimuliNegative.xlsx,24,Nehmen Sie die Position eines uninvolvierten Beobachters ein. Denken Sie über das Bild in einer neutralen Weise nach.,,,,,,,,,0,2,2,1,0,19,19,16,,,,,3.9,,,,,,,,1196.3655819393691,6.010279838662882,None,,,,,,,,R27R01,2021_Oct_26_1450,ER,2021.1.4,60.003869119784284,
4,,1,DISTANZIEREN,,,,StimuliNegative.xlsx,24,Nehmen Sie die Position eines uninvolvierten Beobachters ein. Denken Sie über das Bild in einer neutralen Weise nach.,,,,,,,,,0,2,2,1,,,,,,,,,,,,,145.92592592592592,7.337509211023189,102.96296296296296,4.7656321127783485,,,,,,,,,,,R27R01,2021_Oct_26_1450,ER,2021.1.4,60.003869119784284,
,,,,,,,,,,,,,,,,,,,,,,,,,,,,,,,,,,,,,,,,,1,29.556361837540408,,,,,,R27R01,2021_Oct_26_1450,ER,2021.1.4,60.003869119784284,
,,,,,,,,,,,,,,,,,,,,,,,,,,,,,,,,,,,,,,,,,,,space,1.0045152860479902,,,,R27R01,2021_Oct_26_1450,ER,2021.1.4,60.003869119784284,
,,,,,Stimuli/9120.jpg,,,,,,,,,,,,,,,,,,,,,0,0,0,8,4.2,,,,,,,,,,,,,,,1317.8098899360932,6.006077238178477,None,R27R01,2021_Oct_26_1450,ER,2021.1.4,60.003869119784284,
,,,,,Stimuli/6561.jpg,,,,,,,,,,,,,,,,,,,,,0,1,1,6,3.7,,,,,,,,,,,,,,,1327.5602621464402,6.004300862090986,None,R27R01,2021_Oct_26_1450,ER,2021.1.4,60.003869119784284,
,,,,,Stimuli/9230.jpg,,,,,,,,,,,,,,,,,,,,,0,2,2,11,3.0,,,,,,,,,,,,,,,1336.6171531466332,6.008388294710585,None,R27R01,2021_Oct_26_1450,ER,2021.1.4,60.003869119784284,
,,,,,Stimuli/9411.jpg,,,,,,,,,,,,,,,,,,,,,0,3,3,15,3.1,,,,,,,,,,,,,,,1345.7660469095715,6.0098354318583915,None,R27R01,2021_Oct_26_1450,ER,2021.1.4,60.003869119784284,
,,,,,Stimuli/252.jpg,,,,,,,,,,,,,,,,,,,,,0,4,4,1,4.7,,,,,,,,,,,,,,,1356.525575125538,6.007519242496983,None,R27R01,2021_Oct_26_1450,ER,2021.1.4,60.003869119784284,
,,,,,Stimuli/1051.jpg,,,,,,,,,,,,,,,,,,,,,0,5,5,2,3.4,,,,,,,,,,,,,,,1365.9837270053242,6.00760521739312,None,R27R01,2021_Oct_26_1450,ER,2021.1.4,60.003869119784284,
,,,,,Stimuli/9905.jpg,,,,,,,,,,,,,,,,,,,,,0,6,6,19,4.4,,,,,,,,,,,,,,,1376.433954758598,6.007772034355185,None,R27R01,2021_Oct_26_1450,ER,2021.1.4,60.003869119784284,
,,,,,Stimuli/9185.jpg,,,,,,,,,,,,,,,,,,,,,0,7,7,10,4.7,,,,,,,,,,,,,,,1387.1889869366275,6.013988211815104,None,R27R01,2021_Oct_26_1450,ER,2021.1.4,60.003869119784284,
,,,,,Stimuli/227.jpg,,,,,,,,,,,,,,,,,,,,,0,8,8,0,3.7,,,,,,,,,,,,,,,1396.9512913718097,6.006122471238996,None,R27R01,2021_Oct_26_1450,ER,2021.1.4,60.003869119784284,
,,,,,Stimuli/9599.jpg,,,,,,,,,,,,,,,,,,,,,0,9,9,18,4.1,,,,,,,,,,,,,,,1407.1071571213681,6.010410950378173,None,R27R01,2021_Oct_26_1450,ER,2021.1.4,60.003869119784284,
,,,,,Stimuli/9421.jpg,,,,,,,,,,,,,,,,,,,,,0,10,10,17,4.2,,,,,,,,,,,,,,,1417.3666274326004,6.008052415172642,None,R27R01,2021_Oct_26_1450,ER,2021.1.4,60.003869119784284,
,,,,,Stimuli/9181.jpg,,,,,,,,,,,,,,,,,,,,,0,11,11,9,4.5,,,,,,,,,,,,,,,1427.914156632787,6.015196447825019,None,R27R01,2021_Oct_26_1450,ER,2021.1.4,60.003869119784284,
,,,,,Stimuli/3061.jpg,,,,,,,,,,,,,,,,,,,,,0,12,12,4,3.8,,,,,,,,,,,,,,,1437.7594245969688,6.004098756925032,None,R27R01,2021_Oct_26_1450,ER,2021.1.4,60.003869119784284,
,,,,,Stimuli/6838.jpg,,,,,,,,,,,,,,,,,,,,,0,13,13,7,4.2,,,,,,,,,,,,,,,1448.01934370999,6.002797680859203,None,R27R01,2021_Oct_26_1450,ER,2021.1.4,60.003869119784284,
,,,,,Stimuli/9332.jpg,,,,,,,,,,,,,,,,,,,,,0,14,14,14,3.9,,,,,,,,,,,,,,,1457.975752833723,6.006450651532305,None,R27R01,2021_Oct_26_1450,ER,2021.1.4,60.003869119784284,
,,,,,Stimuli/9295.jpg,,,,,,,,,,,,,,,,,,,,,0,15,15,13,4.1,,,,,,,,,,,,,,,1468.136735051997,6.001884037189029,None,R27R01,2021_Oct_26_1450,ER,2021.1.4,60.003869119784284,
,,,,,Stimuli/2800.jpg,,,,,,,,,,,,,,,,,,,,,0,16,16,3,4.2,,,,,,,,,,,,,,,1478.3780511865018,6.00224035180463,None,R27R01,2021_Oct_26_1450,ER,2021.1.4,60.003869119784284,
,,,,,Stimuli/3230.jpg,,,,,,,,,,,,,,,,,,,,,0,17,17,5,3.6,,,,,,,,,,,,,,,1488.0281638360714,6.003069624588079,None,R27R01,2021_Oct_26_1450,ER,2021.1.4,60.003869119784284,
,,,,,Stimuli/9420.jpg,,,,,,,,,,,,,,,,,,,,,0,18,18,16,4.1,,,,,,,,,,,,,,,1498.1972847972963,6.013740649027113,None,R27R01,2021_Oct_26_1450,ER,2021.1.4,60.003869119784284,
,,,,,Stimuli/9254.jpg,,,,,,,,,,,,,,,,,,,,,0,19,19,12,3.6,,,,,,,,,,,,,,,1507.8593309549085,6.006449047522892,None,R27R01,2021_Oct_26_1450,ER,2021.1.4,60.003869119784284,
,,,,,,,,,,,,,,,,,,,,,,,,,,,,,,,,,,124.44444444444444,5.001539528081139,105.18518518518518,3.5140281837257135,,,,,,,,,,,R27R01,2021_Oct_26_1450,ER,2021.1.4,60.003869119784284,
