Block,conds_view_File,n_reps,instr_1,TriggerBlockView,ImageFile,Trigger,conds_reg_File,TriggerBlockReg,instr_2,blocks_view.thisRepN,blocks_view.thisTrialN,blocks_view.thisN,blocks_view.thisIndex,trials_view.thisRepN,trials_view.thisTrialN,trials_view.thisN,trials_view.thisIndex,blocks_reg.thisRepN,blocks_reg.thisTrialN,blocks_reg.thisN,blocks_reg.thisIndex,trials_reg.thisRepN,trials_reg.thisTrialN,trials_reg.thisN,trials_reg.thisIndex,trials_choice.thisRepN,trials_choice.thisTrialN,trials_choice.thisN,trials_choice.thisIndex,Fix_jitter,image_view.started,image_view.lasted,image_view.stopped,slider_arousal.response,slider_arousal.rt,slider_effort.response,slider_effort.rt,image_reg.started,image_reg.lasted,image_reg.stopped,resp_choice.keys,resp_choice.rt,key_resp.keys,key_resp.rt,image.started,image.lased,image.stopped,participant,date,expName,psychopyVersion,frameRate,
,,,,,,,,,,,,,,,,,,,,,,,,,,,,,,,,,,,,,,,,,,,,,,,,T07L11,2021_Nov_02_1155,ER,2021.1.4,60.04083378142729,
1,StimuliNeutral.xlsx,1,ANSCHAUEN,21,Stimuli/107.jpg,1,,,,0,0,0,0,0,0,0,1,,,,,,,,,,,,,3.4,74.85382306098472,6.0196255085757,None,,,,,,,,,,,,,,,T07L11,2021_Nov_02_1155,ER,2021.1.4,60.04083378142729,
1,StimuliNeutral.xlsx,1,ANSCHAUEN,21,Stimuli/7002.jpg,1,,,,0,0,0,0,0,1,1,6,,,,,,,,,,,,,3.4,84.31145250145346,6.010383268585429,None,,,,,,,,,,,,,,,T07L11,2021_Nov_02_1155,ER,2021.1.4,60.04083378142729,
1,StimuliNeutral.xlsx,1,ANSCHAUEN,21,Stimuli/7025.jpg,1,,,,0,0,0,0,0,2,2,11,,,,,,,,,,,,,4.7,95.07016933208797,6.007803700049408,None,,,,,,,,,,,,,,,T07L11,2021_Nov_02_1155,ER,2021.1.4,60.04083378142729,
1,StimuliNeutral.xlsx,1,ANSCHAUEN,21,Stimuli/140.jpg,1,,,,0,0,0,0,0,3,3,3,,,,,,,,,,,,,4.9,106.00833988841623,6.014518405660056,None,,,,,,,,,,,,,,,T07L11,2021_Nov_02_1155,ER,2021.1.4,60.04083378142729,
1,StimuliNeutral.xlsx,1,ANSCHAUEN,21,Stimuli/7224.jpg,1,,,,0,0,0,0,0,4,4,17,,,,,,,,,,,,,3.3,115.3464398040669,6.005446703755297,None,,,,,,,,,,,,,,,T07L11,2021_Nov_02_1155,ER,2021.1.4,60.04083378142729,
1,StimuliNeutral.xlsx,1,ANSCHAUEN,21,Stimuli/7235.jpg,1,,,,0,0,0,0,0,5,5,19,,,,,,,,,,,,,3.6,124.99489764496684,6.008077279780991,None,,,,,,,,,,,,,,,T07L11,2021_Nov_02_1155,ER,2021.1.4,60.04083378142729,
1,StimuliNeutral.xlsx,1,ANSCHAUEN,21,Stimuli/143.jpg,1,,,,0,0,0,0,0,6,6,4,,,,,,,,,,,,,3.7,134.72500888619106,6.0146360758226365,None,,,,,,,,,,,,,,,T07L11,2021_Nov_02_1155,ER,2021.1.4,60.04083378142729,
1,StimuliNeutral.xlsx,1,ANSCHAUEN,21,Stimuli/7211.jpg,1,,,,0,0,0,0,0,7,7,16,,,,,,,,,,,,,3.5,144.26466417813208,6.002464528777637,None,,,,,,,,,,,,,,,T07L11,2021_Nov_02_1155,ER,2021.1.4,60.04083378142729,
1,StimuliNeutral.xlsx,1,ANSCHAUEN,21,Stimuli/7009.jpg,1,,,,0,0,0,0,0,8,8,9,,,,,,,,,,,,,4.6,154.89803277829196,6.002471586572938,None,,,,,,,,,,,,,,,T07L11,2021_Nov_02_1155,ER,2021.1.4,60.04083378142729,
1,StimuliNeutral.xlsx,1,ANSCHAUEN,21,Stimuli/7000.jpg,1,,,,0,0,0,0,0,9,9,5,,,,,,,,,,,,,4.3,165.2509097943548,6.012711007380858,None,,,,,,,,,,,,,,,T07L11,2021_Nov_02_1155,ER,2021.1.4,60.04083378142729,
1,StimuliNeutral.xlsx,1,ANSCHAUEN,21,Stimuli/7185.jpg,1,,,,0,0,0,0,0,10,10,15,,,,,,,,,,,,,3.4,174.6778570942115,6.011320266756229,None,,,,,,,,,,,,,,,T07L11,2021_Nov_02_1155,ER,2021.1.4,60.04083378142729,
1,StimuliNeutral.xlsx,1,ANSCHAUEN,21,Stimuli/7100.jpg,1,,,,0,0,0,0,0,11,11,13,,,,,,,,,,,,,4.9,185.6272566813277,6.009977068984881,None,,,,,,,,,,,,,,,T07L11,2021_Nov_02_1155,ER,2021.1.4,60.04083378142729,
1,StimuliNeutral.xlsx,1,ANSCHAUEN,21,Stimuli/7041.jpg,1,,,,0,0,0,0,0,12,12,12,,,,,,,,,,,,,3.6,195.2637739526108,6.005293681286275,None,,,,,,,,,,,,,,,T07L11,2021_Nov_02_1155,ER,2021.1.4,60.04083378142729,
1,StimuliNeutral.xlsx,1,ANSCHAUEN,21,Stimuli/7004.jpg,1,,,,0,0,0,0,0,13,13,7,,,,,,,,,,,,,3.7,204.99345564015675,6.012070943485014,None,,,,,,,,,,,,,,,T07L11,2021_Nov_02_1155,ER,2021.1.4,60.04083378142729,
1,StimuliNeutral.xlsx,1,ANSCHAUEN,21,Stimuli/124.jpg,1,,,,0,0,0,0,0,14,14,2,,,,,,,,,,,,,4.5,215.52592753467616,6.013264005770907,None,,,,,,,,,,,,,,,T07L11,2021_Nov_02_1155,ER,2021.1.4,60.04083378142729,
1,StimuliNeutral.xlsx,1,ANSCHAUEN,21,Stimuli/7021.jpg,1,,,,0,0,0,0,0,15,15,10,,,,,,,,,,,,,3.7,225.28603087144438,6.009170957957394,None,,,,,,,,,,,,,,,T07L11,2021_Nov_02_1155,ER,2021.1.4,60.04083378142729,
1,StimuliNeutral.xlsx,1,ANSCHAUEN,21,Stimuli/7006.jpg,1,,,,0,0,0,0,0,16,16,8,,,,,,,,,,,,,4.7,236.0165383031126,6.01492101221811,None,,,,,,,,,,,,,,,T07L11,2021_Nov_02_1155,ER,2021.1.4,60.04083378142729,
1,StimuliNeutral.xlsx,1,ANSCHAUEN,21,Stimuli/083.jpg,1,,,,0,0,0,0,0,17,17,0,,,,,,,,,,,,,3.9,245.96429185534362,6.00315072434023,None,,,,,,,,,,,,,,,T07L11,2021_Nov_02_1155,ER,2021.1.4,60.04083378142729,
1,StimuliNeutral.xlsx,1,ANSCHAUEN,21,Stimuli/7150.jpg,1,,,,0,0,0,0,0,18,18,14,,,,,,,,,,,,,3.6,255.61406177619938,6.0022264937870204,None,,,,,,,,,,,,,,,T07L11,2021_Nov_02_1155,ER,2021.1.4,60.04083378142729,
1,StimuliNeutral.xlsx,1,ANSCHAUEN,21,Stimuli/7233.jpg,1,,,,0,0,0,0,0,19,19,18,,,,,,,,,,,,,4.8,266.45013839390595,6.016159949242137,None,,,,,,,,,,,,,,,T07L11,2021_Nov_02_1155,ER,2021.1.4,60.04083378142729,
1,StimuliNeutral.xlsx,1,ANSCHAUEN,21,,,,,,0,0,0,0,,,,,,,,,,,,,,,,,,,,,2.592592592592591,4.889829872408882,1.85185185185186,2.99732162442524,,,,,,,,,,,T07L11,2021_Nov_02_1155,ER,2021.1.4,60.04083378142729,
2,StimuliNegative.xlsx,1,ANSCHAUEN,22,Stimuli/3017.jpg,,,,,0,1,1,1,0,0,0,5,,,,,,,,,,,,,4.5,287.5180582627654,6.012088972493075,None,,,,,,,,,,,,,,,T07L11,2021_Nov_02_1155,ER,2021.1.4,60.04083378142729,
2,StimuliNegative.xlsx,1,ANSCHAUEN,22,Stimuli/3022.jpg,,,,,0,1,1,1,0,1,1,6,,,,,,,,,,,,,4.7,298.2489994186908,6.000598744605668,None,,,,,,,,,,,,,,,T07L11,2021_Nov_02_1155,ER,2021.1.4,60.04083378142729,
2,StimuliNegative.xlsx,1,ANSCHAUEN,22,Stimuli/9253.jpg,,,,,0,1,1,1,0,2,2,14,,,,,,,,,,,,,3.8,308.07843543600757,6.008110643248074,None,,,,,,,,,,,,,,,T07L11,2021_Nov_02_1155,ER,2021.1.4,60.04083378142729,
2,StimuliNegative.xlsx,1,ANSCHAUEN,22,Stimuli/1111.jpg,,,,,0,1,1,1,0,3,3,4,,,,,,,,,,,,,3.6,317.728291652631,6.0096716654952615,None,,,,,,,,,,,,,,,T07L11,2021_Nov_02_1155,ER,2021.1.4,60.04083378142729,
2,StimuliNegative.xlsx,1,ANSCHAUEN,22,Stimuli/327.jpg,,,,,0,1,1,1,0,4,4,3,,,,,,,,,,,,,4.1,327.864100272418,6.003609471139498,None,,,,,,,,,,,,,,,T07L11,2021_Nov_02_1155,ER,2021.1.4,60.04083378142729,
2,StimuliNegative.xlsx,1,ANSCHAUEN,22,Stimuli/9326.jpg,,,,,0,1,1,1,0,5,5,16,,,,,,,,,,,,,4.5,338.40524248138536,6.00547981064301,None,,,,,,,,,,,,,,,T07L11,2021_Nov_02_1155,ER,2021.1.4,60.04083378142729,
2,StimuliNegative.xlsx,1,ANSCHAUEN,22,Stimuli/9424.jpg,,,,,0,1,1,1,0,6,6,17,,,,,,,,,,,,,3.4,347.82724397757556,6.01216493838001,None,,,,,,,,,,,,,,,T07L11,2021_Nov_02_1155,ER,2021.1.4,60.04083378142729,
2,StimuliNegative.xlsx,1,ANSCHAUEN,22,Stimuli/6190.jpg,,,,,0,1,1,1,0,7,7,9,,,,,,,,,,,,,4.4,358.2634749652352,6.003582202829421,None,,,,,,,,,,,,,,,T07L11,2021_Nov_02_1155,ER,2021.1.4,60.04083378142729,
2,StimuliNegative.xlsx,1,ANSCHAUEN,22,Stimuli/9182.jpg,,,,,0,1,1,1,0,8,8,13,,,,,,,,,,,,,3.7,367.9980960403336,6.001813301001675,None,,,,,,,,,,,,,,,T07L11,2021_Nov_02_1155,ER,2021.1.4,60.04083378142729,
2,StimuliNegative.xlsx,1,ANSCHAUEN,22,Stimuli/9920.jpg,,,,,0,1,1,1,0,9,9,19,,,,,,,,,,,,,4.9,378.9358915791381,6.010356962797232,None,,,,,,,,,,,,,,,T07L11,2021_Nov_02_1155,ER,2021.1.4,60.04083378142729,
2,StimuliNegative.xlsx,1,ANSCHAUEN,22,Stimuli/9425.jpg,,,,,0,1,1,1,0,10,10,18,,,,,,,,,,,,,4.2,389.1872880300507,6.006740562268533,None,,,,,,,,,,,,,,,T07L11,2021_Nov_02_1155,ER,2021.1.4,60.04083378142729,
2,StimuliNegative.xlsx,1,ANSCHAUEN,22,Stimuli/230.jpg,,,,,0,1,1,1,0,11,11,1,,,,,,,,,,,,,3.1,398.3265754262684,6.0106417706701905,None,,,,,,,,,,,,,,,T07L11,2021_Nov_02_1155,ER,2021.1.4,60.04083378142729,
2,StimuliNegative.xlsx,1,ANSCHAUEN,22,Stimuli/9180.jpg,,,,,0,1,1,1,0,12,12,12,,,,,,,,,,,,,4.3,408.67045715556014,6.0071046724915504,None,,,,,,,,,,,,,,,T07L11,2021_Nov_02_1155,ER,2021.1.4,60.04083378142729,
2,StimuliNegative.xlsx,1,ANSCHAUEN,22,Stimuli/3280.jpg,,,,,0,1,1,1,0,13,13,8,,,,,,,,,,,,,4.7,419.3995126376394,6.0158182953018695,None,,,,,,,,,,,,,,,T07L11,2021_Nov_02_1155,ER,2021.1.4,60.04083378142729,
2,StimuliNegative.xlsx,1,ANSCHAUEN,22,Stimuli/225.jpg,,,,,0,1,1,1,0,14,14,0,,,,,,,,,,,,,4.5,429.9259601923404,6.012142482213676,None,,,,,,,,,,,,,,,T07L11,2021_Nov_02_1155,ER,2021.1.4,60.04083378142729,
2,StimuliNegative.xlsx,1,ANSCHAUEN,22,Stimuli/9300.jpg,,,,,0,1,1,1,0,15,15,15,,,,,,,,,,,,,4.0,439.96536942909006,6.016864751232788,None,,,,,,,,,,,,,,,T07L11,2021_Nov_02_1155,ER,2021.1.4,60.04083378142729,
2,StimuliNegative.xlsx,1,ANSCHAUEN,22,Stimuli/255.jpg,,,,,0,1,1,1,0,16,16,2,,,,,,,,,,,,,4.0,449.9936429884983,6.011361329467036,None,,,,,,,,,,,,,,,T07L11,2021_Nov_02_1155,ER,2021.1.4,60.04083378142729,
2,StimuliNegative.xlsx,1,ANSCHAUEN,22,Stimuli/6836.jpg,,,,,0,1,1,1,0,17,17,11,,,,,,,,,,,,,4.8,460.85045207408257,6.013811358250678,None,,,,,,,,,,,,,,,T07L11,2021_Nov_02_1155,ER,2021.1.4,60.04083378142729,
2,StimuliNegative.xlsx,1,ANSCHAUEN,22,Stimuli/3180.jpg,,,,,0,1,1,1,0,18,18,7,,,,,,,,,,,,,4.1,470.9839544487186,6.01410168397706,None,,,,,,,,,,,,,,,T07L11,2021_Nov_02_1155,ER,2021.1.4,60.04083378142729,
2,StimuliNegative.xlsx,1,ANSCHAUEN,22,Stimuli/6244.jpg,,,,,0,1,1,1,0,19,19,10,,,,,,,,,,,,,5.0,482.01370401785243,6.003817029995844,None,,,,,,,,,,,,,,,T07L11,2021_Nov_02_1155,ER,2021.1.4,60.04083378142729,
2,StimuliNegative.xlsx,1,ANSCHAUEN,22,,,,,,0,1,1,1,,,,,,,,,,,,,,,,,,,,,35.92592592592592,6.1376227549044415,63.70370370370371,5.0310141703812405,,,,,,,,,,,T07L11,2021_Nov_02_1155,ER,2021.1.4,60.04083378142729,
4,,1,DISTANZIEREN,,Stimuli/222.jpg,,StimuliNegative.xlsx,24,Nehmen Sie die Position eines uninvolvierten Beobachters ein. Denken Sie über das Bild in einer neutralen Weise nach.,,,,,,,,,0,0,0,1,0,0,0,2,,,,,4.9,,,,,,,,517.4944440309191,6.007663766038604,None,,,,,,,,T07L11,2021_Nov_02_1155,ER,2021.1.4,60.04083378142729,
4,,1,DISTANZIEREN,,Stimuli/3051.jpg,,StimuliNegative.xlsx,24,Nehmen Sie die Position eines uninvolvierten Beobachters ein. Denken Sie über das Bild in einer neutralen Weise nach.,,,,,,,,,0,0,0,1,0,1,1,7,,,,,4.5,,,,,,,,528.044162559323,6.009562336257659,None,,,,,,,,T07L11,2021_Nov_02_1155,ER,2021.1.4,60.04083378142729,
4,,1,DISTANZIEREN,,Stimuli/3185.jpg,,StimuliNegative.xlsx,24,Nehmen Sie die Position eines uninvolvierten Beobachters ein. Denken Sie über das Bild in einer neutralen Weise nach.,,,,,,,,,0,0,0,1,0,2,2,9,,,,,4.1,,,,,,,,538.183887850144,6.012780942372046,None,,,,,,,,T07L11,2021_Nov_02_1155,ER,2021.1.4,60.04083378142729,
4,,1,DISTANZIEREN,,Stimuli/9160.jpg,,StimuliNegative.xlsx,24,Nehmen Sie die Position eines uninvolvierten Beobachters ein. Denken Sie über das Bild in einer neutralen Weise nach.,,,,,,,,,0,0,0,1,0,3,3,17,,,,,4.3,,,,,,,,548.5323451777222,6.000726103084162,None,,,,,,,,T07L11,2021_Nov_02_1155,ER,2021.1.4,60.04083378142729,
4,,1,DISTANZIEREN,,Stimuli/228.jpg,,StimuliNegative.xlsx,24,Nehmen Sie die Position eines uninvolvierten Beobachters ein. Denken Sie über das Bild in einer neutralen Weise nach.,,,,,,,,,0,0,0,1,0,4,4,3,,,,,4.0,,,,,,,,558.5686041393783,6.010930877528153,None,,,,,,,,T07L11,2021_Nov_02_1155,ER,2021.1.4,60.04083378142729,
4,,1,DISTANZIEREN,,Stimuli/9043.jpg,,StimuliNegative.xlsx,24,Nehmen Sie die Position eines uninvolvierten Beobachters ein. Denken Sie über das Bild in einer neutralen Weise nach.,,,,,,,,,0,0,0,1,0,5,5,15,,,,,3.4,,,,,,,,568.0161847793497,6.0161253669066355,None,,,,,,,,T07L11,2021_Nov_02_1155,ER,2021.1.4,60.04083378142729,
4,,1,DISTANZIEREN,,Stimuli/3301.jpg,,StimuliNegative.xlsx,24,Nehmen Sie die Position eines uninvolvierten Beobachters ein. Denken Sie über das Bild in einer neutralen Weise nach.,,,,,,,,,0,0,0,1,0,6,6,10,,,,,4.8,,,,,,,,578.8476344705559,6.001912107923999,None,,,,,,,,T07L11,2021_Nov_02_1155,ER,2021.1.4,60.04083378142729,
4,,1,DISTANZIEREN,,Stimuli/246.jpg,,StimuliNegative.xlsx,24,Nehmen Sie die Position eines uninvolvierten Beobachters ein. Denken Sie über das Bild in einer neutralen Weise nach.,,,,,,,,,0,0,0,1,0,7,7,4,,,,,4.4,,,,,,,,589.2776957950555,6.008456467767246,None,,,,,,,,T07L11,2021_Nov_02_1155,ER,2021.1.4,60.04083378142729,
4,,1,DISTANZIEREN,,Stimuli/2703.jpg,,StimuliNegative.xlsx,24,Nehmen Sie die Position eines uninvolvierten Beobachters ein. Denken Sie über das Bild in einer neutralen Weise nach.,,,,,,,,,0,0,0,1,0,8,8,6,,,,,4.6,,,,,,,,599.9219854561379,6.006284382077865,None,,,,,,,,T07L11,2021_Nov_02_1155,ER,2021.1.4,60.04083378142729,
4,,1,DISTANZIEREN,,Stimuli/9904.jpg,,StimuliNegative.xlsx,24,Nehmen Sie die Position eines uninvolvierten Beobachters ein. Denken Sie über das Bild in einer neutralen Weise nach.,,,,,,,,,0,0,0,1,0,9,9,19,,,,,3.8,,,,,,,,609.7644357670797,6.002357060206123,None,,,,,,,,T07L11,2021_Nov_02_1155,ER,2021.1.4,60.04083378142729,
4,,1,DISTANZIEREN,,Stimuli/9145.jpg,,StimuliNegative.xlsx,24,Nehmen Sie die Position eines uninvolvierten Beobachters ein. Denken Sie über das Bild in einer neutralen Weise nach.,,,,,,,,,0,0,0,1,0,10,10,16,,,,,4.0,,,,,,,,619.7985921927029,6.001258634380065,None,,,,,,,,T07L11,2021_Nov_02_1155,ER,2021.1.4,60.04083378142729,
4,,1,DISTANZIEREN,,Stimuli/9184.jpg,,StimuliNegative.xlsx,24,Nehmen Sie die Position eines uninvolvierten Beobachters ein. Denken Sie über das Bild in einer neutralen Weise nach.,,,,,,,,,0,0,0,1,0,11,11,18,,,,,4.6,,,,,,,,630.4518611003878,6.01019174978137,None,,,,,,,,T07L11,2021_Nov_02_1155,ER,2021.1.4,60.04083378142729,
4,,1,DISTANZIEREN,,Stimuli/251.jpg,,StimuliNegative.xlsx,24,Nehmen Sie die Position eines uninvolvierten Beobachters ein. Denken Sie über das Bild in einer neutralen Weise nach.,,,,,,,,,0,0,0,1,0,12,12,5,,,,,3.2,,,,,,,,639.6818911788287,6.016524059465155,None,,,,,,,,T07L11,2021_Nov_02_1155,ER,2021.1.4,60.04083378142729,
4,,1,DISTANZIEREN,,Stimuli/9040.jpg,,StimuliNegative.xlsx,24,Nehmen Sie die Position eines uninvolvierten Beobachters ein. Denken Sie über das Bild in einer neutralen Weise nach.,,,,,,,,,0,0,0,1,0,13,13,13,,,,,3.4,,,,,,,,649.1332620938774,6.014607588760555,None,,,,,,,,T07L11,2021_Nov_02_1155,ER,2021.1.4,60.04083378142729,
4,,1,DISTANZIEREN,,Stimuli/9042.jpg,,StimuliNegative.xlsx,24,Nehmen Sie die Position eines uninvolvierten Beobachters ein. Denken Sie über das Bild in einer neutralen Weise nach.,,,,,,,,,0,0,0,1,0,14,14,14,,,,,4.4,,,,,,,,659.5655305358814,6.017022906569764,None,,,,,,,,T07L11,2021_Nov_02_1155,ER,2021.1.4,60.04083378142729,
4,,1,DISTANZIEREN,,Stimuli/3160.jpg,,StimuliNegative.xlsx,24,Nehmen Sie die Position eines uninvolvierten Beobachters ein. Denken Sie über das Bild in einer neutralen Weise nach.,,,,,,,,,0,0,0,1,0,15,15,8,,,,,3.6,,,,,,,,669.2021382732783,6.011706255842,None,,,,,,,,T07L11,2021_Nov_02_1155,ER,2021.1.4,60.04083378142729,
4,,1,DISTANZIEREN,,Stimuli/6562.jpg,,StimuliNegative.xlsx,24,Nehmen Sie die Position eines uninvolvierten Beobachters ein. Denken Sie über das Bild in einer neutralen Weise nach.,,,,,,,,,0,0,0,1,0,16,16,11,,,,,3.7,,,,,,,,678.926917144563,6.010725179105066,None,,,,,,,,T07L11,2021_Nov_02_1155,ER,2021.1.4,60.04083378142729,
4,,1,DISTANZIEREN,,Stimuli/218.jpg,,StimuliNegative.xlsx,24,Nehmen Sie die Position eines uninvolvierten Beobachters ein. Denken Sie über das Bild in einer neutralen Weise nach.,,,,,,,,,0,0,0,1,0,17,17,1,,,,,3.2,,,,,,,,688.1749140571337,6.01386518869549,None,,,,,,,,T07L11,2021_Nov_02_1155,ER,2021.1.4,60.04083378142729,
4,,1,DISTANZIEREN,,Stimuli/9031.jpg,,StimuliNegative.xlsx,24,Nehmen Sie die Position eines uninvolvierten Beobachters ein. Denken Sie über das Bild in einer neutralen Weise nach.,,,,,,,,,0,0,0,1,0,18,18,12,,,,,4.0,,,,,,,,698.2214993127855,6.005155479884706,None,,,,,,,,T07L11,2021_Nov_02_1155,ER,2021.1.4,60.04083378142729,
4,,1,DISTANZIEREN,,Stimuli/210.jpg,,StimuliNegative.xlsx,24,Nehmen Sie die Position eines uninvolvierten Beobachters ein. Denken Sie über das Bild in einer neutralen Weise nach.,,,,,,,,,0,0,0,1,0,19,19,0,,,,,4.9,,,,,,,,709.1622289062943,6.006372538278811,None,,,,,,,,T07L11,2021_Nov_02_1155,ER,2021.1.4,60.04083378142729,
4,,1,DISTANZIEREN,,,,StimuliNegative.xlsx,24,Nehmen Sie die Position eines uninvolvierten Beobachters ein. Denken Sie über das Bild in einer neutralen Weise nach.,,,,,,,,,0,0,0,1,,,,,,,,,,,,,68.88888888888889,5.7555841995636,169.25925925925927,5.014427426271141,,,,,,,,,,,T07L11,2021_Nov_02_1155,ER,2021.1.4,60.04083378142729,
5,,1,UNTERDRÜCKEN,,Stimuli/223.jpg,,StimuliNegative.xlsx,25,"Unterdrücken Sie alle aufkommenden Emotionen. Wenn Sie also die Bilder ansehen, verhalten Sie sich so, dass eine außenstehende Person nicht sehen kann, welche Emotionen Sie gerade empfinden.",,,,,,,,,0,1,1,2,0,0,0,0,,,,,4.8,,,,,,,,737.426013124641,6.013309880625457,None,,,,,,,,T07L11,2021_Nov_02_1155,ER,2021.1.4,60.04083378142729,
5,,1,UNTERDRÜCKEN,,Stimuli/3016.jpg,,StimuliNegative.xlsx,25,"Unterdrücken Sie alle aufkommenden Emotionen. Wenn Sie also die Bilder ansehen, verhalten Sie sich so, dass eine außenstehende Person nicht sehen kann, welche Emotionen Sie gerade empfinden.",,,,,,,,,0,1,1,2,0,1,1,4,,,,,4.9,,,,,,,,748.3693790686084,6.0100855643395334,None,,,,,,,,T07L11,2021_Nov_02_1155,ER,2021.1.4,60.04083378142729,
5,,1,UNTERDRÜCKEN,,Stimuli/3101.jpg,,StimuliNegative.xlsx,25,"Unterdrücken Sie alle aufkommenden Emotionen. Wenn Sie also die Bilder ansehen, verhalten Sie sich so, dass eine außenstehende Person nicht sehen kann, welche Emotionen Sie gerade empfinden.",,,,,,,,,0,1,1,2,0,2,2,5,,,,,3.8,,,,,,,,758.209095505299,6.012165580061264,None,,,,,,,,T07L11,2021_Nov_02_1155,ER,2021.1.4,60.04083378142729,
5,,1,UNTERDRÜCKEN,,Stimuli/9405.jpg,,StimuliNegative.xlsx,25,"Unterdrücken Sie alle aufkommenden Emotionen. Wenn Sie also die Bilder ansehen, verhalten Sie sich so, dass eine außenstehende Person nicht sehen kann, welche Emotionen Sie gerade empfinden.",,,,,,,,,0,1,1,2,0,3,3,18,,,,,4.2,,,,,,,,768.4501550756395,6.015561974490993,None,,,,,,,,T07L11,2021_Nov_02_1155,ER,2021.1.4,60.04083378142729,
5,,1,UNTERDRÜCKEN,,Stimuli/6571.jpg,,StimuliNegative.xlsx,25,"Unterdrücken Sie alle aufkommenden Emotionen. Wenn Sie also die Bilder ansehen, verhalten Sie sich so, dass eine außenstehende Person nicht sehen kann, welche Emotionen Sie gerade empfinden.",,,,,,,,,0,1,1,2,0,4,4,11,,,,,3.1,,,,,,,,777.5937620701734,6.011627915897407,None,,,,,,,,T07L11,2021_Nov_02_1155,ER,2021.1.4,60.04083378142729,
5,,1,UNTERDRÜCKEN,,Stimuli/6020.jpg,,StimuliNegative.xlsx,25,"Unterdrücken Sie alle aufkommenden Emotionen. Wenn Sie also die Bilder ansehen, verhalten Sie sich so, dass eine außenstehende Person nicht sehen kann, welche Emotionen Sie gerade empfinden.",,,,,,,,,0,1,1,2,0,5,5,10,,,,,4.5,,,,,,,,788.1445171096129,6.008271365077235,None,,,,,,,,T07L11,2021_Nov_02_1155,ER,2021.1.4,60.04083378142729,
5,,1,UNTERDRÜCKEN,,Stimuli/9373.jpg,,StimuliNegative.xlsx,25,"Unterdrücken Sie alle aufkommenden Emotionen. Wenn Sie also die Bilder ansehen, verhalten Sie sich so, dass eine außenstehende Person nicht sehen kann, welche Emotionen Sie gerade empfinden.",,,,,,,,,0,1,1,2,0,6,6,14,,,,,4.0,,,,,,,,798.1763409841806,6.012824828037992,None,,,,,,,,T07L11,2021_Nov_02_1155,ER,2021.1.4,60.04083378142729,
5,,1,UNTERDRÜCKEN,,Stimuli/245.jpg,,StimuliNegative.xlsx,25,"Unterdrücken Sie alle aufkommenden Emotionen. Wenn Sie also die Bilder ansehen, verhalten Sie sich so, dass eine außenstehende Person nicht sehen kann, welche Emotionen Sie gerade empfinden.",,,,,,,,,0,1,1,2,0,7,7,2,,,,,3.2,,,,,,,,807.4071101903683,6.000630824943073,None,,,,,,,,T07L11,2021_Nov_02_1155,ER,2021.1.4,60.04083378142729,
5,,1,UNTERDRÜCKEN,,Stimuli/6831.jpg,,StimuliNegative.xlsx,25,"Unterdrücken Sie alle aufkommenden Emotionen. Wenn Sie also die Bilder ansehen, verhalten Sie sich so, dass eine außenstehende Person nicht sehen kann, welche Emotionen Sie gerade empfinden.",,,,,,,,,0,1,1,2,0,8,8,12,,,,,3.2,,,,,,,,816.6305500342278,6.002880288171582,None,,,,,,,,T07L11,2021_Nov_02_1155,ER,2021.1.4,60.04083378142729,
5,,1,UNTERDRÜCKEN,,Stimuli/3220.jpg,,StimuliNegative.xlsx,25,"Unterdrücken Sie alle aufkommenden Emotionen. Wenn Sie also die Bilder ansehen, verhalten Sie sich so, dass eine außenstehende Person nicht sehen kann, welche Emotionen Sie gerade empfinden.",,,,,,,,,0,1,1,2,0,9,9,8,,,,,4.1,,,,,,,,826.780581408646,6.002271726843901,None,,,,,,,,T07L11,2021_Nov_02_1155,ER,2021.1.4,60.04083378142729,
5,,1,UNTERDRÜCKEN,,Stimuli/9400.jpg,,StimuliNegative.xlsx,25,"Unterdrücken Sie alle aufkommenden Emotionen. Wenn Sie also die Bilder ansehen, verhalten Sie sich so, dass eine außenstehende Person nicht sehen kann, welche Emotionen Sie gerade empfinden.",,,,,,,,,0,1,1,2,0,10,10,15,,,,,4.6,,,,,,,,837.414228464826,6.002279746928252,None,,,,,,,,T07L11,2021_Nov_02_1155,ER,2021.1.4,60.04083378142729,
5,,1,UNTERDRÜCKEN,,Stimuli/238.jpg,,StimuliNegative.xlsx,25,"Unterdrücken Sie alle aufkommenden Emotionen. Wenn Sie also die Bilder ansehen, verhalten Sie sich so, dass eine außenstehende Person nicht sehen kann, welche Emotionen Sie gerade empfinden.",,,,,,,,,0,1,1,2,0,11,11,1,,,,,4.5,,,,,,,,847.9434496732429,6.010826231678948,None,,,,,,,,T07L11,2021_Nov_02_1155,ER,2021.1.4,60.04083378142729,
5,,1,UNTERDRÜCKEN,,Stimuli/3225.jpg,,StimuliNegative.xlsx,25,"Unterdrücken Sie alle aufkommenden Emotionen. Wenn Sie also die Bilder ansehen, verhalten Sie sich so, dass eine außenstehende Person nicht sehen kann, welche Emotionen Sie gerade empfinden.",,,,,,,,,0,1,1,2,0,12,12,9,,,,,4.8,,,,,,,,858.7911653066985,5.998685545986518,None,,,,,,,,T07L11,2021_Nov_02_1155,ER,2021.1.4,60.04083378142729,
5,,1,UNTERDRÜCKEN,,Stimuli/3215.jpg,,StimuliNegative.xlsx,25,"Unterdrücken Sie alle aufkommenden Emotionen. Wenn Sie also die Bilder ansehen, verhalten Sie sich so, dass eine außenstehende Person nicht sehen kann, welche Emotionen Sie gerade empfinden.",,,,,,,,,0,1,1,2,0,13,13,7,,,,,3.6,,,,,,,,868.4245813855669,5.999013341381215,None,,,,,,,,T07L11,2021_Nov_02_1155,ER,2021.1.4,60.04083378142729,
5,,1,UNTERDRÜCKEN,,Stimuli/9423.jpg,,StimuliNegative.xlsx,25,"Unterdrücken Sie alle aufkommenden Emotionen. Wenn Sie also die Bilder ansehen, verhalten Sie sich so, dass eine außenstehende Person nicht sehen kann, welche Emotionen Sie gerade empfinden.",,,,,,,,,0,1,1,2,0,14,14,19,,,,,3.1,,,,,,,,877.5610210227314,6.009856447461061,None,,,,,,,,T07L11,2021_Nov_02_1155,ER,2021.1.4,60.04083378142729,
5,,1,UNTERDRÜCKEN,,Stimuli/8231.jpg,,StimuliNegative.xlsx,25,"Unterdrücken Sie alle aufkommenden Emotionen. Wenn Sie also die Bilder ansehen, verhalten Sie sich so, dass eine außenstehende Person nicht sehen kann, welche Emotionen Sie gerade empfinden.",,,,,,,,,0,1,1,2,0,15,15,13,,,,,4.3,,,,,,,,887.8976452494971,6.003477621474303,None,,,,,,,,T07L11,2021_Nov_02_1155,ER,2021.1.4,60.04083378142729,
5,,1,UNTERDRÜCKEN,,Stimuli/9402.jpg,,StimuliNegative.xlsx,25,"Unterdrücken Sie alle aufkommenden Emotionen. Wenn Sie also die Bilder ansehen, verhalten Sie sich so, dass eine außenstehende Person nicht sehen kann, welche Emotionen Sie gerade empfinden.",,,,,,,,,0,1,1,2,0,16,16,16,,,,,4.8,,,,,,,,898.727129066363,6.010777469840832,None,,,,,,,,T07L11,2021_Nov_02_1155,ER,2021.1.4,60.04083378142729,
5,,1,UNTERDRÜCKEN,,Stimuli/9403.jpg,,StimuliNegative.xlsx,25,"Unterdrücken Sie alle aufkommenden Emotionen. Wenn Sie also die Bilder ansehen, verhalten Sie sich so, dass eine außenstehende Person nicht sehen kann, welche Emotionen Sie gerade empfinden.",,,,,,,,,0,1,1,2,0,17,17,17,,,,,4.4,,,,,,,,909.1882972730091,6.004561675479636,None,,,,,,,,T07L11,2021_Nov_02_1155,ER,2021.1.4,60.04083378142729,
5,,1,UNTERDRÜCKEN,,Stimuli/2981.jpg,,StimuliNegative.xlsx,25,"Unterdrücken Sie alle aufkommenden Emotionen. Wenn Sie also die Bilder ansehen, verhalten Sie sich so, dass eine außenstehende Person nicht sehen kann, welche Emotionen Sie gerade empfinden.",,,,,,,,,0,1,1,2,0,18,18,3,,,,,3.3,,,,,,,,918.5116415821249,6.008330713259056,None,,,,,,,,T07L11,2021_Nov_02_1155,ER,2021.1.4,60.04083378142729,
5,,1,UNTERDRÜCKEN,,Stimuli/3181.jpg,,StimuliNegative.xlsx,25,"Unterdrücken Sie alle aufkommenden Emotionen. Wenn Sie also die Bilder ansehen, verhalten Sie sich so, dass eine außenstehende Person nicht sehen kann, welche Emotionen Sie gerade empfinden.",,,,,,,,,0,1,1,2,0,19,19,6,,,,,3.8,,,,,,,,928.3432821504539,6.01206677290611,None,,,,,,,,T07L11,2021_Nov_02_1155,ER,2021.1.4,60.04083378142729,
5,,1,UNTERDRÜCKEN,,,,StimuliNegative.xlsx,25,"Unterdrücken Sie alle aufkommenden Emotionen. Wenn Sie also die Bilder ansehen, verhalten Sie sich so, dass eine außenstehende Person nicht sehen kann, welche Emotionen Sie gerade empfinden.",,,,,,,,,0,1,1,2,,,,,,,,,,,,,129.25925925925927,9.321870544808917,183.33333333333331,4.48123821860645,,,,,,,,,,,T07L11,2021_Nov_02_1155,ER,2021.1.4,60.04083378142729,
3,,1,ABLENKEN,,Stimuli/6940.jpg,,StimuliNegative.xlsx,23,"Denken Sie während des Betrachtens der Bilder an etwas Neutrales, das mit dem Bild nichts zu tun hat. Das könnten geometrische Figuren, Alltagstätigkeiten oder bekannte Orte sein.",,,,,,,,,0,2,2,0,0,0,0,12,,,,,4.7,,,,,,,,972.9519948748639,6.012007168144919,None,,,,,,,,T07L11,2021_Nov_02_1155,ER,2021.1.4,60.04083378142729,
3,,1,ABLENKEN,,Stimuli/6555.jpg,,StimuliNegative.xlsx,23,"Denken Sie während des Betrachtens der Bilder an etwas Neutrales, das mit dem Bild nichts zu tun hat. Das könnten geometrische Figuren, Alltagstätigkeiten oder bekannte Orte sein.",,,,,,,,,0,2,2,0,0,1,1,10,,,,,3.7,,,,,,,,982.6754250946688,6.0117488582618535,None,,,,,,,,T07L11,2021_Nov_02_1155,ER,2021.1.4,60.04083378142729,
3,,1,ABLENKEN,,Stimuli/6242.jpg,,StimuliNegative.xlsx,23,"Denken Sie während des Betrachtens der Bilder an etwas Neutrales, das mit dem Bild nichts zu tun hat. Das könnten geometrische Figuren, Alltagstätigkeiten oder bekannte Orte sein.",,,,,,,,,0,2,2,0,0,2,2,8,,,,,4.2,,,,,,,,992.9131422294304,6.004537551081739,None,,,,,,,,T07L11,2021_Nov_02_1155,ER,2021.1.4,60.04083378142729,
3,,1,ABLENKEN,,Stimuli/9570.jpg,,StimuliNegative.xlsx,23,"Denken Sie während des Betrachtens der Bilder an etwas Neutrales, das mit dem Bild nichts zu tun hat. Das könnten geometrische Figuren, Alltagstätigkeiten oder bekannte Orte sein.",,,,,,,,,0,2,2,0,0,3,3,18,,,,,4.2,,,,,,,,1003.1677922537783,6.012494466267526,None,,,,,,,,T07L11,2021_Nov_02_1155,ER,2021.1.4,60.04083378142729,
3,,1,ABLENKEN,,Stimuli/253.jpg,,StimuliNegative.xlsx,23,"Denken Sie während des Betrachtens der Bilder an etwas Neutrales, das mit dem Bild nichts zu tun hat. Das könnten geometrische Figuren, Alltagstätigkeiten oder bekannte Orte sein.",,,,,,,,,0,2,2,0,0,4,4,3,,,,,3.8,,,,,,,,1012.9923212843714,6.013128627440892,None,,,,,,,,T07L11,2021_Nov_02_1155,ER,2021.1.4,60.04083378142729,
3,,1,ABLENKEN,,Stimuli/1301.jpg,,StimuliNegative.xlsx,23,"Denken Sie während des Betrachtens der Bilder an etwas Neutrales, das mit dem Bild nichts zu tun hat. Das könnten geometrische Figuren, Alltagstätigkeiten oder bekannte Orte sein.",,,,,,,,,0,2,2,0,0,5,5,6,,,,,3.2,,,,,,,,1022.2304570657434,6.003468959825113,None,,,,,,,,T07L11,2021_Nov_02_1155,ER,2021.1.4,60.04083378142729,
3,,1,ABLENKEN,,Stimuli/226.jpg,,StimuliNegative.xlsx,23,"Denken Sie während des Betrachtens der Bilder an etwas Neutrales, das mit dem Bild nichts zu tun hat. Das könnten geometrische Figuren, Alltagstätigkeiten oder bekannte Orte sein.",,,,,,,,,0,2,2,0,0,6,6,2,,,,,3.5,,,,,,,,1031.7736517656595,5.999737391364761,None,,,,,,,,T07L11,2021_Nov_02_1155,ER,2021.1.4,60.04083378142729,
3,,1,ABLENKEN,,Stimuli/9140.jpg,,StimuliNegative.xlsx,23,"Denken Sie während des Betrachtens der Bilder an etwas Neutrales, das mit dem Bild nichts zu tun hat. Das könnten geometrische Figuren, Alltagstätigkeiten oder bekannte Orte sein.",,,,,,,,,0,2,2,0,0,7,7,15,,,,,3.2,,,,,,,,1041.0173117566155,6.0136846414534375,None,,,,,,,,T07L11,2021_Nov_02_1155,ER,2021.1.4,60.04083378142729,
3,,1,ABLENKEN,,Stimuli/3350.jpg,,StimuliNegative.xlsx,23,"Denken Sie während des Betrachtens der Bilder an etwas Neutrales, das mit dem Bild nichts zu tun hat. Das könnten geometrische Figuren, Alltagstätigkeiten oder bekannte Orte sein.",,,,,,,,,0,2,2,0,0,8,8,7,,,,,3.3,,,,,,,,1050.3626220170408,6.006089590955526,None,,,,,,,,T07L11,2021_Nov_02_1155,ER,2021.1.4,60.04083378142729,
3,,1,ABLENKEN,,Stimuli/9340.jpg,,StimuliNegative.xlsx,23,"Denken Sie während des Betrachtens der Bilder an etwas Neutrales, das mit dem Bild nichts zu tun hat. Das könnten geometrische Figuren, Alltagstätigkeiten oder bekannte Orte sein.",,,,,,,,,0,2,2,0,0,9,9,16,,,,,4.1,,,,,,,,1060.5023925409187,6.009995739674196,None,,,,,,,,T07L11,2021_Nov_02_1155,ER,2021.1.4,60.04083378142729,
3,,1,ABLENKEN,,Stimuli/254.jpg,,StimuliNegative.xlsx,23,"Denken Sie während des Betrachtens der Bilder an etwas Neutrales, das mit dem Bild nichts zu tun hat. Das könnten geometrische Figuren, Alltagstätigkeiten oder bekannte Orte sein.",,,,,,,,,0,2,2,0,0,10,10,4,,,,,4.7,,,,,,,,1071.2277674621437,6.008766683284193,None,,,,,,,,T07L11,2021_Nov_02_1155,ER,2021.1.4,60.04083378142729,
3,,1,ABLENKEN,,Stimuli/9041.jpg,,StimuliNegative.xlsx,23,"Denken Sie während des Betrachtens der Bilder an etwas Neutrales, das mit dem Bild nichts zu tun hat. Das könnten geometrische Figuren, Alltagstätigkeiten oder bekannte Orte sein.",,,,,,,,,0,2,2,0,0,11,11,14,,,,,4.2,,,,,,,,1081.4850952203851,6.011924401158467,None,,,,,,,,T07L11,2021_Nov_02_1155,ER,2021.1.4,60.04083378142729,
3,,1,ABLENKEN,,Stimuli/6410.jpg,,StimuliNegative.xlsx,23,"Denken Sie während des Betrachtens der Bilder an etwas Neutrales, das mit dem Bild nichts zu tun hat. Das könnten geometrische Figuren, Alltagstätigkeiten oder bekannte Orte sein.",,,,,,,,,0,2,2,0,0,12,12,9,,,,,3.9,,,,,,,,1091.4256945683155,6.013544707559049,None,,,,,,,,T07L11,2021_Nov_02_1155,ER,2021.1.4,60.04083378142729,
3,,1,ABLENKEN,,Stimuli/219.jpg,,StimuliNegative.xlsx,23,"Denken Sie während des Betrachtens der Bilder an etwas Neutrales, das mit dem Bild nichts zu tun hat. Das könnten geometrische Figuren, Alltagstätigkeiten oder bekannte Orte sein.",,,,,,,,,0,2,2,0,0,13,13,1,,,,,4.3,,,,,,,,1101.761460649781,6.011494141421281,None,,,,,,,,T07L11,2021_Nov_02_1155,ER,2021.1.4,60.04083378142729,
3,,1,ABLENKEN,,Stimuli/9800.jpg,,StimuliNegative.xlsx,23,"Denken Sie während des Betrachtens der Bilder an etwas Neutrales, das mit dem Bild nichts zu tun hat. Das könnten geometrische Figuren, Alltagstätigkeiten oder bekannte Orte sein.",,,,,,,,,0,2,2,0,0,14,14,19,,,,,4.4,,,,,,,,1112.199609070667,6.014642876922153,None,,,,,,,,T07L11,2021_Nov_02_1155,ER,2021.1.4,60.04083378142729,
3,,1,ABLENKEN,,Stimuli/8230.jpg,,StimuliNegative.xlsx,23,"Denken Sie während des Betrachtens der Bilder an etwas Neutrales, das mit dem Bild nichts zu tun hat. Das könnten geometrische Figuren, Alltagstätigkeiten oder bekannte Orte sein.",,,,,,,,,0,2,2,0,0,15,15,13,,,,,4.8,,,,,,,,1123.0315094887046,6.0169103051302955,None,,,,,,,,T07L11,2021_Nov_02_1155,ER,2021.1.4,60.04083378142729,
3,,1,ABLENKEN,,Stimuli/9409.jpg,,StimuliNegative.xlsx,23,"Denken Sie während des Betrachtens der Bilder an etwas Neutrales, das mit dem Bild nichts zu tun hat. Das könnten geometrische Figuren, Alltagstätigkeiten oder bekannte Orte sein.",,,,,,,,,0,2,2,0,0,16,16,17,,,,,3.5,,,,,,,,1132.5782747142948,6.008956277277321,None,,,,,,,,T07L11,2021_Nov_02_1155,ER,2021.1.4,60.04083378142729,
3,,1,ABLENKEN,,Stimuli/208.jpg,,StimuliNegative.xlsx,23,"Denken Sie während des Betrachtens der Bilder an etwas Neutrales, das mit dem Bild nichts zu tun hat. Das könnten geometrische Figuren, Alltagstätigkeiten oder bekannte Orte sein.",,,,,,,,,0,2,2,0,0,17,17,0,,,,,4.3,,,,,,,,1142.9315790385008,6.001082193222828,None,,,,,,,,T07L11,2021_Nov_02_1155,ER,2021.1.4,60.04083378142729,
3,,1,ABLENKEN,,Stimuli/326.jpg,,StimuliNegative.xlsx,23,"Denken Sie während des Betrachtens der Bilder an etwas Neutrales, das mit dem Bild nichts zu tun hat. Das könnten geometrische Figuren, Alltagstätigkeiten oder bekannte Orte sein.",,,,,,,,,0,2,2,0,0,18,18,5,,,,,4.7,,,,,,,,1153.678584352252,6.006876838975586,None,,,,,,,,T07L11,2021_Nov_02_1155,ER,2021.1.4,60.04083378142729,
3,,1,ABLENKEN,,Stimuli/6825.jpg,,StimuliNegative.xlsx,23,"Denken Sie während des Betrachtens der Bilder an etwas Neutrales, das mit dem Bild nichts zu tun hat. Das könnten geometrische Figuren, Alltagstätigkeiten oder bekannte Orte sein.",,,,,,,,,0,2,2,0,0,19,19,11,,,,,4.8,,,,,,,,1164.5253988530021,6.013226215611212,None,,,,,,,,T07L11,2021_Nov_02_1155,ER,2021.1.4,60.04083378142729,
3,,1,ABLENKEN,,,,StimuliNegative.xlsx,23,"Denken Sie während des Betrachtens der Bilder an etwas Neutrales, das mit dem Bild nichts zu tun hat. Das könnten geometrische Figuren, Alltagstätigkeiten oder bekannte Orte sein.",,,,,,,,,0,2,2,0,,,,,,,,,,,,,131.4814814814815,4.187342887162231,227.77777777777777,4.231539772357792,,,,,,,,,,,T07L11,2021_Nov_02_1155,ER,2021.1.4,60.04083378142729,
,,,,,,,,,,,,,,,,,,,,,,,,,,,,,,,,,,,,,,,,,2,22.661408294923604,,,,,,T07L11,2021_Nov_02_1155,ER,2021.1.4,60.04083378142729,
,,,,,,,,,,,,,,,,,,,,,,,,,,,,,,,,,,,,,,,,,,,space,5.441634575719945,,,,T07L11,2021_Nov_02_1155,ER,2021.1.4,60.04083378142729,
,,,,,Stimuli/9411.jpg,,,,,,,,,,,,,,,,,,,,,0,0,0,15,4.6,,,,,,,,,,,,,,,1290.3074559506495,5.99942788190674,None,T07L11,2021_Nov_02_1155,ER,2021.1.4,60.04083378142729,
,,,,,Stimuli/9254.jpg,,,,,,,,,,,,,,,,,,,,,0,1,1,12,4.0,,,,,,,,,,,,,,,1300.3568039527163,6.000655590905808,None,T07L11,2021_Nov_02_1155,ER,2021.1.4,60.04083378142729,
,,,,,Stimuli/9120.jpg,,,,,,,,,,,,,,,,,,,,,0,2,2,8,4.6,,,,,,,,,,,,,,,1310.986222197651,6.009433694765903,None,T07L11,2021_Nov_02_1155,ER,2021.1.4,60.04083378142729,
,,,,,Stimuli/9181.jpg,,,,,,,,,,,,,,,,,,,,,0,3,3,9,3.9,,,,,,,,,,,,,,,1320.9114496783586,6.0086672345642,None,T07L11,2021_Nov_02_1155,ER,2021.1.4,60.04083378142729,
,,,,,Stimuli/9332.jpg,,,,,,,,,,,,,,,,,,,,,0,4,4,14,4.3,,,,,,,,,,,,,,,1331.2673021325609,6.0127177444519475,None,T07L11,2021_Nov_02_1155,ER,2021.1.4,60.04083378142729,
,,,,,Stimuli/9295.jpg,,,,,,,,,,,,,,,,,,,,,0,5,5,13,3.8,,,,,,,,,,,,,,,1341.1012601741822,6.0121800801716745,None,T07L11,2021_Nov_02_1155,ER,2021.1.4,60.04083378142729,
,,,,,Stimuli/6561.jpg,,,,,,,,,,,,,,,,,,,,,0,6,6,6,4.1,,,,,,,,,,,,,,,1351.2316190104466,6.000352689647116,None,T07L11,2021_Nov_02_1155,ER,2021.1.4,60.04083378142729,
,,,,,Stimuli/9420.jpg,,,,,,,,,,,,,,,,,,,,,0,7,7,16,3.9,,,,,,,,,,,,,,,1361.1611356132198,6.008272969047539,None,T07L11,2021_Nov_02_1155,ER,2021.1.4,60.04083378142729,
,,,,,Stimuli/6838.jpg,,,,,,,,,,,,,,,,,,,,,0,8,8,7,3.2,,,,,,,,,,,,,,,1370.3965721669374,6.005654583452269,None,T07L11,2021_Nov_02_1155,ER,2021.1.4,60.04083378142729,
,,,,,Stimuli/9185.jpg,,,,,,,,,,,,,,,,,,,,,0,9,9,10,4.1,,,,,,,,,,,,,,,1380.5370067509357,6.008407449349761,None,T07L11,2021_Nov_02_1155,ER,2021.1.4,60.04083378142729,
,,,,,Stimuli/252.jpg,,,,,,,,,,,,,,,,,,,,,0,10,10,1,3.8,,,,,,,,,,,,,,,1390.3655599212507,6.0161092625930905,None,T07L11,2021_Nov_02_1155,ER,2021.1.4,60.04083378142729,
,,,,,Stimuli/9905.jpg,,,,,,,,,,,,,,,,,,,,,0,11,11,19,3.3,,,,,,,,,,,,,,,1399.7034997568699,6.006864391965792,None,T07L11,2021_Nov_02_1155,ER,2021.1.4,60.04083378142729,
,,,,,Stimuli/3061.jpg,,,,,,,,,,,,,,,,,,,,,0,12,12,4,4.2,,,,,,,,,,,,,,,1409.954043836915,6.006518567563035,None,T07L11,2021_Nov_02_1155,ER,2021.1.4,60.04083378142729,
,,,,,Stimuli/227.jpg,,,,,,,,,,,,,,,,,,,,,0,13,13,0,3.0,,,,,,,,,,,,,,,1419.0035082901595,6.008169734966941,None,T07L11,2021_Nov_02_1155,ER,2021.1.4,60.04083378142729,
,,,,,Stimuli/9421.jpg,,,,,,,,,,,,,,,,,,,,,0,14,14,17,4.1,,,,,,,,,,,,,,,1429.1561060801614,6.0026131245540455,None,T07L11,2021_Nov_02_1155,ER,2021.1.4,60.04083378142729,
,,,,,Stimuli/1051.jpg,,,,,,,,,,,,,,,,,,,,,0,15,15,2,3.2,,,,,,,,,,,,,,,1438.393892508233,6.0090746531495824,None,T07L11,2021_Nov_02_1155,ER,2021.1.4,60.04083378142729,
,,,,,Stimuli/3230.jpg,,,,,,,,,,,,,,,,,,,,,0,16,16,5,4.6,,,,,,,,,,,,,,,1449.0324930674396,6.015271327923983,None,T07L11,2021_Nov_02_1155,ER,2021.1.4,60.04083378142729,
,,,,,Stimuli/9599.jpg,,,,,,,,,,,,,,,,,,,,,0,17,17,18,4.3,,,,,,,,,,,,,,,1459.3715704666683,6.004155540140346,None,T07L11,2021_Nov_02_1155,ER,2021.1.4,60.04083378142729,
,,,,,Stimuli/2800.jpg,,,,,,,,,,,,,,,,,,,,,0,18,18,3,3.3,,,,,,,,,,,,,,,1468.6925937735941,6.0127285873750225,None,T07L11,2021_Nov_02_1155,ER,2021.1.4,60.04083378142729,
,,,,,Stimuli/9230.jpg,,,,,,,,,,,,,,,,,,,,,0,19,19,11,3.3,,,,,,,,,,,,,,,1478.051294628298,6.012234295834787,None,T07L11,2021_Nov_02_1155,ER,2021.1.4,60.04083378142729,
,,,,,,,,,,,,,,,,,,,,,,,,,,,,,,,,,,151.4814814814815,4.936956320889294,188.51851851851853,4.698126965668052,,,,,,,,,,,T07L11,2021_Nov_02_1155,ER,2021.1.4,60.04083378142729,
