Letter,CorrAnswer,Stimulus,nback_run.thisRepN,nback_run.thisTrialN,nback_run.thisN,nback_run.thisIndex,fixcross.started,nback_trial.started,trial_resp.keys,trial_resp.corr,currentlevel,trial_resp.rt,Participant,date,expName,psychopyVersion,frameRate,
H,left,Distractor,0,0,0,0,24.61938259999988,26.60671899999943,left,1,1,0.29554230000030657,Jake,2021_Aug_17_1146,t1_Paradigm,2021.1.4,60.09886262926063,
Q,left,Pretarget,0,1,1,1,28.099562199999127,30.106733299999178,left,1,1,0.32045950000065204,Jake,2021_Aug_17_1146,t1_Paradigm,2021.1.4,60.09886262926063,
Q,right,Target,0,2,2,2,31.59902879999936,33.599270999999135,right,1,1,0.2971579999993992,Jake,2021_Aug_17_1146,t1_Paradigm,2021.1.4,60.09886262926063,
T,left,Distractor,0,3,3,3,35.09890239999913,37.10286329999872,left,1,1,0.32348629999978584,Jake,2021_Aug_17_1146,t1_Paradigm,2021.1.4,60.09886262926063,
Q,left,Lure,0,4,4,4,38.598915900000065,40.59863499999847,None,0,1,,Jake,2021_Aug_17_1146,t1_Paradigm,2021.1.4,60.09886262926063,
L,left,Distractor,0,5,5,5,42.09881659999883,44.102603199999066,left,1,1,0.4258566999997129,Jake,2021_Aug_17_1146,t1_Paradigm,2021.1.4,60.09886262926063,
V,left,Pretarget,0,6,6,6,45.59861479999927,47.60486609999862,left,1,1,0.5096441000005143,Jake,2021_Aug_17_1146,t1_Paradigm,2021.1.4,60.09886262926063,
V,right,Target,0,7,7,7,49.09813219999887,51.098131900000226,left,0,1,0.4300807999989047,Jake,2021_Aug_17_1146,t1_Paradigm,2021.1.4,60.09886262926063,
K,left,Distractor,0,8,8,8,52.59813049999866,54.60208489999968,left,1,1,0.5089511000005587,Jake,2021_Aug_17_1146,t1_Paradigm,2021.1.4,60.09886262926063,
G,left,Pretarget,0,9,9,9,56.0978443999993,58.104474499999924,left,1,1,0.3098614999998972,Jake,2021_Aug_17_1146,t1_Paradigm,2021.1.4,60.09886262926063,
G,right,Target,0,10,10,10,59.597530499999266,61.59757769999851,left,0,1,0.4979696000009426,Jake,2021_Aug_17_1146,t1_Paradigm,2021.1.4,60.09886262926063,
G,right,Target,0,11,11,11,63.09753569999884,65.09748020000006,right,1,1,0.2913789000012912,Jake,2021_Aug_17_1146,t1_Paradigm,2021.1.4,60.09886262926063,
P,left,Pretarget,0,12,12,12,66.59724639999877,68.60138459999871,left,1,1,0.6446632999995927,Jake,2021_Aug_17_1146,t1_Paradigm,2021.1.4,60.09886262926063,
P,right,Target,0,13,13,13,70.09709099999964,72.09706039999946,right,1,1,0.25599700000020675,Jake,2021_Aug_17_1146,t1_Paradigm,2021.1.4,60.09886262926063,
R,left,Distractor,0,0,0,0,74.26048269999956,76.25167559999863,left,1,1,0.31286790000012843,Jake,2021_Aug_17_1146,t1_Paradigm,2021.1.4,60.09886262926063,
V,left,Distractor,0,1,1,1,77.74676550000004,79.74658149999959,left,1,1,0.48331249999864667,Jake,2021_Aug_17_1146,t1_Paradigm,2021.1.4,60.09886262926063,
N,left,Pretarget,0,2,2,2,81.24649589999899,83.25204779999876,left,1,1,0.3837406999991799,Jake,2021_Aug_17_1146,t1_Paradigm,2021.1.4,60.09886262926063,
N,right,Target,0,3,3,3,84.74623539999993,86.74622499999896,right,1,1,0.3178966000014043,Jake,2021_Aug_17_1146,t1_Paradigm,2021.1.4,60.09886262926063,
S,left,Distractor,0,4,4,4,88.24612669999988,90.25061899999855,left,1,1,0.31117879999874276,Jake,2021_Aug_17_1146,t1_Paradigm,2021.1.4,60.09886262926063,
N,left,Lure,0,5,5,5,91.74585979999938,93.74624649999896,left,1,1,0.6694470000002184,Jake,2021_Aug_17_1146,t1_Paradigm,2021.1.4,60.09886262926063,
Z,left,Distractor,0,6,6,6,95.24584559999857,97.2501715999988,right,0,1,0.4542944000004354,Jake,2021_Aug_17_1146,t1_Paradigm,2021.1.4,60.09886262926063,
L,left,Pretarget,0,7,7,7,98.74567949999982,100.74555639999926,left,1,1,0.5619730999987951,Jake,2021_Aug_17_1146,t1_Paradigm,2021.1.4,60.09886262926063,
L,right,Target,0,8,8,8,102.24543559999984,104.24508789999891,right,1,1,0.5297425000007934,Jake,2021_Aug_17_1146,t1_Paradigm,2021.1.4,60.09886262926063,
H,left,Distractor,0,9,9,9,105.74518739999985,107.74703090000003,left,1,1,0.7159386000002996,Jake,2021_Aug_17_1146,t1_Paradigm,2021.1.4,60.09886262926063,
L,left,Lure,0,10,10,10,109.24488980000024,111.24491789999956,left,1,1,0.35264660000029835,Jake,2021_Aug_17_1146,t1_Paradigm,2021.1.4,60.09886262926063,
X,left,Pretarget,0,11,11,11,112.7448190999985,114.75284159999865,left,1,1,0.5508124999996653,Jake,2021_Aug_17_1146,t1_Paradigm,2021.1.4,60.09886262926063,
X,right,Target,0,12,12,12,116.24452409999867,118.24454019999939,left,0,1,0.5984958999997616,Jake,2021_Aug_17_1146,t1_Paradigm,2021.1.4,60.09886262926063,
X,right,Target,0,13,13,13,119.74479809999866,121.74501769999915,right,1,1,0.6188507000006211,Jake,2021_Aug_17_1146,t1_Paradigm,2021.1.4,60.09886262926063,
F,left,Distractor,0,0,0,0,126.59170069999891,128.58196849999877,left,1,2,0.47674780000124883,Jake,2021_Aug_17_1146,t1_Paradigm,2021.1.4,60.09886262926063,
N,left,Pretarget,0,1,1,1,130.07726679999905,132.07707049999954,right,0,2,1.2082280999984505,Jake,2021_Aug_17_1146,t1_Paradigm,2021.1.4,60.09886262926063,
V,left,Distractor,0,2,2,2,133.57710279999992,135.5779939999993,None,0,2,,Jake,2021_Aug_17_1146,t1_Paradigm,2021.1.4,60.09886262926063,
N,right,Target,0,3,3,3,137.07709459999933,139.0767519000001,left,0,2,0.819989200001146,Jake,2021_Aug_17_1146,t1_Paradigm,2021.1.4,60.09886262926063,
N,left,Lure,0,4,4,4,140.5765180999988,142.57656429999952,left,1,2,0.7169260000009672,Jake,2021_Aug_17_1146,t1_Paradigm,2021.1.4,60.09886262926063,
X,left,Distractor,0,5,5,5,144.0765018000002,146.0766509999994,left,1,2,0.8936620000004041,Jake,2021_Aug_17_1146,t1_Paradigm,2021.1.4,60.09886262926063,
G,left,Pretarget,0,6,6,6,147.57622999999876,149.57630079999944,right,0,2,0.9795133000006899,Jake,2021_Aug_17_1146,t1_Paradigm,2021.1.4,60.09886262926063,
H,left,Pretarget,0,7,7,7,151.0766918999998,153.0806240999991,left,1,2,0.4991608999989694,Jake,2021_Aug_17_1146,t1_Paradigm,2021.1.4,60.09886262926063,
G,right,Target,0,8,8,8,154.5760991999996,156.57588909999868,left,0,2,0.568953899999542,Jake,2021_Aug_17_1146,t1_Paradigm,2021.1.4,60.09886262926063,
H,right,Target,0,9,9,9,158.07588719999876,160.07564989999992,left,0,2,0.9288089000001492,Jake,2021_Aug_17_1146,t1_Paradigm,2021.1.4,60.09886262926063,
T,left,Pretarget,0,10,10,10,161.5755319,163.57556579999982,right,0,2,0.5194226999992679,Jake,2021_Aug_17_1146,t1_Paradigm,2021.1.4,60.09886262926063,
K,left,Distractor,0,11,11,11,165.07547189999968,167.07663429999957,left,1,2,0.4622092000008706,Jake,2021_Aug_17_1146,t1_Paradigm,2021.1.4,60.09886262926063,
T,right,Target,0,12,12,12,168.57530570000017,170.57514579999952,left,0,2,0.5211983000008331,Jake,2021_Aug_17_1146,t1_Paradigm,2021.1.4,60.09886262926063,
T,left,Lure,0,13,13,13,172.0751669000001,174.07517919999918,left,1,2,0.5151762999994389,Jake,2021_Aug_17_1146,t1_Paradigm,2021.1.4,60.09886262926063,
B,left,Pretarget,0,0,0,0,176.7725505999988,178.75969029999942,left,1,2,0.40785870000036084,Jake,2021_Aug_17_1146,t1_Paradigm,2021.1.4,60.09886262926063,
F,left,Distractor,0,1,1,1,180.25833109999985,182.25835219999863,left,1,2,0.6007054000001517,Jake,2021_Aug_17_1146,t1_Paradigm,2021.1.4,60.09886262926063,
B,right,Target,0,2,2,2,183.75777629999902,185.7577268999994,left,0,2,0.39432640000086394,Jake,2021_Aug_17_1146,t1_Paradigm,2021.1.4,60.09886262926063,
V,left,Distractor,0,3,3,3,187.25763599999846,189.25727910000023,left,1,2,0.680042300000423,Jake,2021_Aug_17_1146,t1_Paradigm,2021.1.4,60.09886262926063,
G,left,Pretarget,0,4,4,4,190.75754459999916,192.7573997999989,left,1,2,0.4882197000006272,Jake,2021_Aug_17_1146,t1_Paradigm,2021.1.4,60.09886262926063,
B,left,Lure,0,5,5,5,194.25717839999925,196.25700419999885,left,1,2,0.3808582000001479,Jake,2021_Aug_17_1146,t1_Paradigm,2021.1.4,60.09886262926063,
G,right,Target,0,6,6,6,197.7571036999998,199.7579380999996,right,1,2,0.5991953000011563,Jake,2021_Aug_17_1146,t1_Paradigm,2021.1.4,60.09886262926063,
Y,left,Pretarget,0,7,7,7,201.25662919999922,203.2597420000002,left,1,2,0.5606680000000779,Jake,2021_Aug_17_1146,t1_Paradigm,2021.1.4,60.09886262926063,
P,left,Distractor,0,8,8,8,204.7565813000001,206.75645429999895,left,1,2,0.631945099999939,Jake,2021_Aug_17_1146,t1_Paradigm,2021.1.4,60.09886262926063,
Y,right,Target,0,9,9,9,208.25636759999907,210.25638679999975,left,0,2,0.5066086999995605,Jake,2021_Aug_17_1146,t1_Paradigm,2021.1.4,60.09886262926063,
X,left,Distractor,0,10,10,10,211.7563140000002,213.75618779999968,right,0,2,0.6186959000006027,Jake,2021_Aug_17_1146,t1_Paradigm,2021.1.4,60.09886262926063,
Y,right,Target,0,11,11,11,215.2560111999992,217.25595639999847,left,0,2,0.4022807000001194,Jake,2021_Aug_17_1146,t1_Paradigm,2021.1.4,60.09886262926063,
N,left,Distractor,0,12,12,12,218.75599340000008,220.756245999999,None,0,2,,Jake,2021_Aug_17_1146,t1_Paradigm,2021.1.4,60.09886262926063,
Y,right,Target,0,13,13,13,222.255817199999,224.2558027999985,None,0,2,,Jake,2021_Aug_17_1146,t1_Paradigm,2021.1.4,60.09886262926063,
R,left,Distractor,0,0,0,0,231.43427429999974,233.4236497999991,left,1,3,0.30655360000127985,Jake,2021_Aug_17_1146,t1_Paradigm,2021.1.4,60.09886262926063,
P,left,Lure,0,1,1,1,234.92198479999934,236.92181939999864,left,1,3,0.3091103999995539,Jake,2021_Aug_17_1146,t1_Paradigm,2021.1.4,60.09886262926063,
V,left,Distractor,0,2,2,2,238.42124749999857,240.42155309999907,left,1,3,0.3795528999999078,Jake,2021_Aug_17_1146,t1_Paradigm,2021.1.4,60.09886262926063,
P,left,Pretarget,0,3,3,3,241.9216342999989,243.92203319999862,left,1,3,0.503723899999386,Jake,2021_Aug_17_1146,t1_Paradigm,2021.1.4,60.09886262926063,
Z,left,Distractor,0,4,4,4,245.42113019999852,247.42113599999902,left,1,3,0.7120723999996699,Jake,2021_Aug_17_1146,t1_Paradigm,2021.1.4,60.09886262926063,
L,left,Pretarget,0,5,5,5,248.92096579999998,250.92105479999918,left,1,3,0.42138300000078743,Jake,2021_Aug_17_1146,t1_Paradigm,2021.1.4,60.09886262926063,
P,right,Target,0,6,6,6,252.42103700000007,254.4207908999997,right,1,3,0.33958370000073046,Jake,2021_Aug_17_1146,t1_Paradigm,2021.1.4,60.09886262926063,
S,left,Distractor,0,7,7,7,255.92067639999914,257.92057209999984,left,1,3,0.5789946999993845,Jake,2021_Aug_17_1146,t1_Paradigm,2021.1.4,60.09886262926063,
L,right,Target,0,8,8,8,259.4206665999991,261.42027359999884,right,1,3,0.5270012999990286,Jake,2021_Aug_17_1146,t1_Paradigm,2021.1.4,60.09886262926063,
D,left,Distractor,0,9,9,9,262.9202733000002,264.92115899999953,left,1,3,0.6110177000009571,Jake,2021_Aug_17_1146,t1_Paradigm,2021.1.4,60.09886262926063,
G,left,Distractor,0,10,10,10,266.4199317999992,268.41984559999946,left,1,3,0.43612109999958193,Jake,2021_Aug_17_1146,t1_Paradigm,2021.1.4,60.09886262926063,
M,left,Pretarget,0,11,11,11,269.9197977999993,271.92360559999906,None,0,3,,Jake,2021_Aug_17_1146,t1_Paradigm,2021.1.4,60.09886262926063,
Y,left,Distractor,0,12,12,12,273.41987619999963,275.419716299999,left,1,3,0.3651028000003862,Jake,2021_Aug_17_1146,t1_Paradigm,2021.1.4,60.09886262926063,
V,left,Distractor,0,13,13,13,276.91948499999853,278.91983119999895,left,1,3,0.2556990000011865,Jake,2021_Aug_17_1146,t1_Paradigm,2021.1.4,60.09886262926063,
H,left,Lure,0,0,0,0,281.73781079999935,283.7205120999988,left,1,3,0.46436519999952,Jake,2021_Aug_17_1146,t1_Paradigm,2021.1.4,60.09886262926063,
B,left,Distractor,0,1,1,1,285.2194193999985,287.2189288999998,None,0,3,,Jake,2021_Aug_17_1146,t1_Paradigm,2021.1.4,60.09886262926063,
T,left,Distractor,0,2,2,2,288.719244599999,290.71884729999874,None,0,3,,Jake,2021_Aug_17_1146,t1_Paradigm,2021.1.4,60.09886262926063,
R,left,Distractor,0,3,3,3,292.21894149999935,294.21916969999984,left,1,3,0.42788129999826197,Jake,2021_Aug_17_1146,t1_Paradigm,2021.1.4,60.09886262926063,
H,left,Pretarget,0,4,4,4,295.71862129999863,297.71895499999846,left,1,3,0.43591660000129195,Jake,2021_Aug_17_1146,t1_Paradigm,2021.1.4,60.09886262926063,
K,left,Distractor,0,5,5,5,299.21871180000016,301.22085399999924,left,1,3,0.5216514000003372,Jake,2021_Aug_17_1146,t1_Paradigm,2021.1.4,60.09886262926063,
G,left,Distractor,0,6,6,6,302.71813779999866,304.7182757999999,left,1,3,0.4280109999999695,Jake,2021_Aug_17_1146,t1_Paradigm,2021.1.4,60.09886262926063,
H,right,Target,0,7,7,7,306.2183712999995,308.21933960000024,right,1,3,0.3816905999992741,Jake,2021_Aug_17_1146,t1_Paradigm,2021.1.4,60.09886262926063,
Y,left,Pretarget,0,8,8,8,309.71768429999975,311.7175933999988,left,1,3,0.23603519999960554,Jake,2021_Aug_17_1146,t1_Paradigm,2021.1.4,60.09886262926063,
S,left,Distractor,0,9,9,9,313.21780409999883,315.21916729999975,left,1,3,0.8247544000005291,Jake,2021_Aug_17_1146,t1_Paradigm,2021.1.4,60.09886262926063,
P,left,Distractor,0,10,10,10,316.71749929999896,318.7174634999992,left,1,3,0.37575119999928575,Jake,2021_Aug_17_1146,t1_Paradigm,2021.1.4,60.09886262926063,
Y,right,Target,0,11,11,11,320.2172690999996,322.2181392000002,right,1,3,0.3248970000004192,Jake,2021_Aug_17_1146,t1_Paradigm,2021.1.4,60.09886262926063,
H,left,Lure,0,12,12,12,323.717269499999,325.7167828999991,right,0,3,0.3667094000011275,Jake,2021_Aug_17_1146,t1_Paradigm,2021.1.4,60.09886262926063,
Q,left,Distractor,0,13,13,13,327.21681369999897,329.2169178999993,left,1,3,0.3136789000000135,Jake,2021_Aug_17_1146,t1_Paradigm,2021.1.4,60.09886262926063,
R,left,Distractor,0,0,0,0,333.0635549999988,335.050253899999,left,1,4,0.3030129999988276,Jake,2021_Aug_17_1146,t1_Paradigm,2021.1.4,60.09886262926063,
F,left,Distractor,0,1,1,1,336.5495826999995,338.5495957999992,left,1,4,0.3507094999986293,Jake,2021_Aug_17_1146,t1_Paradigm,2021.1.4,60.09886262926063,
P,left,Pretarget,0,2,2,2,340.0492723999996,342.0507937000002,left,1,4,0.42790380000042205,Jake,2021_Aug_17_1146,t1_Paradigm,2021.1.4,60.09886262926063,
H,left,Distractor,0,3,3,3,343.54945379999845,345.55105209999965,left,1,4,0.33130059999894,Jake,2021_Aug_17_1146,t1_Paradigm,2021.1.4,60.09886262926063,
Z,left,Distractor,0,4,4,4,347.04904109999916,349.04889099999855,left,1,4,0.3254973000002792,Jake,2021_Aug_17_1146,t1_Paradigm,2021.1.4,60.09886262926063,
T,left,Distractor,0,5,5,5,350.5492001999992,352.5499628999987,left,1,4,0.418238599999313,Jake,2021_Aug_17_1146,t1_Paradigm,2021.1.4,60.09886262926063,
P,right,Target,0,6,6,6,354.0492201999987,356.04939269999886,left,0,4,0.3578010000001086,Jake,2021_Aug_17_1146,t1_Paradigm,2021.1.4,60.09886262926063,
G,left,Distractor,0,7,7,7,357.54873289999887,359.54852159999973,left,1,4,0.3801718000013352,Jake,2021_Aug_17_1146,t1_Paradigm,2021.1.4,60.09886262926063,
L,left,Distractor,0,8,8,8,361.0484703000002,363.04841569999917,left,1,4,0.5145198000009259,Jake,2021_Aug_17_1146,t1_Paradigm,2021.1.4,60.09886262926063,
P,left,Lure,0,9,9,9,364.54851450000024,366.5486940999999,left,1,4,0.4503588999996282,Jake,2021_Aug_17_1146,t1_Paradigm,2021.1.4,60.09886262926063,
Q,left,Pretarget,0,10,10,10,368.0480974000002,370.04788240000016,left,1,4,0.3373680999993667,Jake,2021_Aug_17_1146,t1_Paradigm,2021.1.4,60.09886262926063,
D,left,Distractor,0,11,11,11,371.5478465999986,373.5478002999989,left,1,4,0.4219931000006909,Jake,2021_Aug_17_1146,t1_Paradigm,2021.1.4,60.09886262926063,
M,left,Pretarget,0,12,12,12,375.0477197,377.0480100999994,right,0,4,0.4960508000003756,Jake,2021_Aug_17_1146,t1_Paradigm,2021.1.4,60.09886262926063,
C,left,Distractor,0,13,13,13,378.547567399999,380.5556723999998,None,0,4,,Jake,2021_Aug_17_1146,t1_Paradigm,2021.1.4,60.09886262926063,
J,left,Pretarget,0,0,0,0,383.37728099999913,385.3700939999999,left,1,4,0.2744352000008803,Jake,2021_Aug_17_1146,t1_Paradigm,2021.1.4,60.09886262926063,
G,left,Pretarget,0,1,1,1,386.8640126999999,388.86376669999845,left,1,4,0.310814800001026,Jake,2021_Aug_17_1146,t1_Paradigm,2021.1.4,60.09886262926063,
Z,left,Distractor,0,2,2,2,390.3636628999993,392.36360349999995,left,1,4,0.3411108999989665,Jake,2021_Aug_17_1146,t1_Paradigm,2021.1.4,60.09886262926063,
F,left,Distractor,0,3,3,3,393.8635056999992,395.8634164999985,left,1,4,0.3362271999994846,Jake,2021_Aug_17_1146,t1_Paradigm,2021.1.4,60.09886262926063,
J,right,Target,0,4,4,4,397.36353569999847,399.3632622999994,right,1,4,0.48270919999959006,Jake,2021_Aug_17_1146,t1_Paradigm,2021.1.4,60.09886262926063,
G,right,Target,0,5,5,5,400.86315599999944,402.86297039999954,None,0,4,,Jake,2021_Aug_17_1146,t1_Paradigm,2021.1.4,60.09886262926063,
H,left,Distractor,0,6,6,6,404.36323139999877,406.362930199999,left,1,4,0.46400010000070324,Jake,2021_Aug_17_1146,t1_Paradigm,2021.1.4,60.09886262926063,
P,left,Distractor,0,7,7,7,407.8626796999997,409.86264440000014,None,0,4,,Jake,2021_Aug_17_1146,t1_Paradigm,2021.1.4,60.09886262926063,
G,left,Lure,0,8,8,8,411.3625867999999,413.3624082999995,right,0,4,0.7873773999999685,Jake,2021_Aug_17_1146,t1_Paradigm,2021.1.4,60.09886262926063,
S,left,Distractor,0,9,9,9,414.8622985000002,416.86214180000024,right,0,4,0.3574984000006225,Jake,2021_Aug_17_1146,t1_Paradigm,2021.1.4,60.09886262926063,
R,left,Pretarget,0,10,10,10,418.3624220999991,420.36211769999863,right,0,4,0.1482689999993454,Jake,2021_Aug_17_1146,t1_Paradigm,2021.1.4,60.09886262926063,
T,left,Pretarget,0,11,11,11,421.86191169999984,423.86172949999855,right,0,4,0.5478106000009575,Jake,2021_Aug_17_1146,t1_Paradigm,2021.1.4,60.09886262926063,
X,left,Distractor,0,12,12,12,425.36180160000004,427.36198089999925,right,0,4,0.3022983999999269,Jake,2021_Aug_17_1146,t1_Paradigm,2021.1.4,60.09886262926063,
F,left,Pretarget,0,13,13,13,428.861506199999,430.8615856999986,right,0,4,0.4082015000003594,Jake,2021_Aug_17_1146,t1_Paradigm,2021.1.4,60.09886262926063,
