Letter,CorrAnswer,Stimulus,nback_run.thisRepN,nback_run.thisTrialN,nback_run.thisN,nback_run.thisIndex,fixcross.started,nback_trial.started,trial_resp.keys,trial_resp.corr,currentlevel,trial_resp.rt,Participant,date,expName,psychopyVersion,frameRate,
H,left,Distractor,0,0,0,0,25.401777900000525,27.39455430000089,left,1,1,0.36893809999855876,Danny,2021_Aug_17_1155,t1_Paradigm,2021.1.4,60.12112000851584,
Q,left,Pretarget,0,1,1,1,28.887945800001035,30.892383399999744,left,1,1,0.3767747000001691,Danny,2021_Aug_17_1155,t1_Paradigm,2021.1.4,60.12112000851584,
Q,right,Target,0,2,2,2,32.38776770000004,34.38762520000091,left,0,1,0.4253343999989738,Danny,2021_Aug_17_1155,t1_Paradigm,2021.1.4,60.12112000851584,
T,left,Distractor,0,3,3,3,35.887324200000876,37.88934549999976,right,0,1,0.5056131000001187,Danny,2021_Aug_17_1155,t1_Paradigm,2021.1.4,60.12112000851584,
Q,left,Lure,0,4,4,4,39.387408500000674,41.38729500000045,left,1,1,0.5980940999997983,Danny,2021_Aug_17_1155,t1_Paradigm,2021.1.4,60.12112000851584,
L,left,Distractor,0,5,5,5,42.88680250000107,44.88868580000053,left,1,1,0.4358799000001454,Danny,2021_Aug_17_1155,t1_Paradigm,2021.1.4,60.12112000851584,
V,left,Pretarget,0,6,6,6,46.38676570000098,48.38930810000056,left,1,1,0.5551761000006081,Danny,2021_Aug_17_1155,t1_Paradigm,2021.1.4,60.12112000851584,
V,right,Target,0,7,7,7,49.88691140000083,51.8868180999998,right,1,1,0.5852264000004652,Danny,2021_Aug_17_1155,t1_Paradigm,2021.1.4,60.12112000851584,
K,left,Distractor,0,8,8,8,53.38670180000008,55.38878850000037,left,1,1,0.28055610000046727,Danny,2021_Aug_17_1155,t1_Paradigm,2021.1.4,60.12112000851584,
G,left,Pretarget,0,9,9,9,56.886499600001116,58.88987960000122,None,0,1,,Danny,2021_Aug_17_1155,t1_Paradigm,2021.1.4,60.12112000851584,
G,right,Target,0,10,10,10,60.385842600000615,62.385946800000966,right,1,1,0.44041680000009364,Danny,2021_Aug_17_1155,t1_Paradigm,2021.1.4,60.12112000851584,
G,right,Target,0,11,11,11,63.886124000000564,65.88603800000055,None,0,1,,Danny,2021_Aug_17_1155,t1_Paradigm,2021.1.4,60.12112000851584,
P,left,Pretarget,0,12,12,12,67.38597370000025,69.38903849999951,left,1,1,0.48525449999942794,Danny,2021_Aug_17_1155,t1_Paradigm,2021.1.4,60.12112000851584,
P,right,Target,0,13,13,13,70.88577420000001,72.88566549999996,right,1,1,0.26373249999960535,Danny,2021_Aug_17_1155,t1_Paradigm,2021.1.4,60.12112000851584,
R,left,Distractor,0,0,0,0,75.07648010000048,77.07044440000027,left,1,1,0.41406819999974687,Danny,2021_Aug_17_1155,t1_Paradigm,2021.1.4,60.12112000851584,
V,left,Distractor,0,1,1,1,78.56869030000053,80.56851450000067,left,1,1,0.3652652000000671,Danny,2021_Aug_17_1155,t1_Paradigm,2021.1.4,60.12112000851584,
N,left,Pretarget,0,2,2,2,82.06821289999971,84.07078000000001,left,1,1,0.42697840000073484,Danny,2021_Aug_17_1155,t1_Paradigm,2021.1.4,60.12112000851584,
N,right,Target,0,3,3,3,85.56801930000074,87.56825850000132,left,0,1,0.36609370000041963,Danny,2021_Aug_17_1155,t1_Paradigm,2021.1.4,60.12112000851584,
S,left,Distractor,0,4,4,4,89.06806730000062,91.0693893000007,left,1,1,0.572529899998699,Danny,2021_Aug_17_1155,t1_Paradigm,2021.1.4,60.12112000851584,
N,left,Lure,0,5,5,5,92.56796430000031,94.56749000000127,right,0,1,0.31844660000024305,Danny,2021_Aug_17_1155,t1_Paradigm,2021.1.4,60.12112000851584,
Z,left,Distractor,0,6,6,6,96.06768600000032,98.06945120000091,right,0,1,0.5538419999993494,Danny,2021_Aug_17_1155,t1_Paradigm,2021.1.4,60.12112000851584,
L,left,Pretarget,0,7,7,7,99.56758460000128,101.56715240000085,left,1,1,1.3250482999992528,Danny,2021_Aug_17_1155,t1_Paradigm,2021.1.4,60.12112000851584,
L,right,Target,0,8,8,8,103.06735450000087,105.06725420000112,right,1,1,0.869272899999487,Danny,2021_Aug_17_1155,t1_Paradigm,2021.1.4,60.12112000851584,
H,left,Distractor,0,9,9,9,106.56716810000034,108.56788469999992,None,0,1,,Danny,2021_Aug_17_1155,t1_Paradigm,2021.1.4,60.12112000851584,
L,left,Lure,0,10,10,10,110.06700350000028,112.0665914000001,left,1,1,0.3793516000005184,Danny,2021_Aug_17_1155,t1_Paradigm,2021.1.4,60.12112000851584,
X,left,Pretarget,0,11,11,11,113.56689080000069,115.5687410999999,left,1,1,0.16387219999887748,Danny,2021_Aug_17_1155,t1_Paradigm,2021.1.4,60.12112000851584,
X,right,Target,0,12,12,12,117.06671180000012,119.06663930000104,right,1,1,0.35167619999992894,Danny,2021_Aug_17_1155,t1_Paradigm,2021.1.4,60.12112000851584,
X,right,Target,0,13,13,13,120.56646130000081,122.56632200000058,right,1,1,0.3350545000012062,Danny,2021_Aug_17_1155,t1_Paradigm,2021.1.4,60.12112000851584,
F,left,Distractor,0,0,0,0,126.10916480000014,128.10055490000013,left,1,2,0.26749610000115354,Danny,2021_Aug_17_1155,t1_Paradigm,2021.1.4,60.12112000851584,
N,left,Pretarget,0,1,1,1,129.59929550000015,131.59889230000044,left,1,2,0.48664690000077826,Danny,2021_Aug_17_1155,t1_Paradigm,2021.1.4,60.12112000851584,
V,left,Distractor,0,2,2,2,133.0988969000009,135.0987554000003,left,1,2,0.40749419999883685,Danny,2021_Aug_17_1155,t1_Paradigm,2021.1.4,60.12112000851584,
N,right,Target,0,3,3,3,136.5990013999999,138.5984666000004,right,1,2,0.34731860000101733,Danny,2021_Aug_17_1155,t1_Paradigm,2021.1.4,60.12112000851584,
N,left,Lure,0,4,4,4,140.09880340000018,142.09869890000118,right,0,2,0.5562845999993442,Danny,2021_Aug_17_1155,t1_Paradigm,2021.1.4,60.12112000851584,
X,left,Distractor,0,5,5,5,143.59858180000083,145.5981556000006,left,1,2,0.31616099999882863,Danny,2021_Aug_17_1155,t1_Paradigm,2021.1.4,60.12112000851584,
G,left,Pretarget,0,6,6,6,147.0984507000012,149.09800890000042,left,1,2,0.4664935000000696,Danny,2021_Aug_17_1155,t1_Paradigm,2021.1.4,60.12112000851584,
H,left,Pretarget,0,7,7,7,150.59825749999982,152.60024259999955,left,1,2,0.48530899999968824,Danny,2021_Aug_17_1155,t1_Paradigm,2021.1.4,60.12112000851584,
G,right,Target,0,8,8,8,154.09781920000023,156.09765960000004,right,1,2,0.6000800000001618,Danny,2021_Aug_17_1155,t1_Paradigm,2021.1.4,60.12112000851584,
H,right,Target,0,9,9,9,157.59782760000053,159.59742840000035,right,1,2,0.2501066999993782,Danny,2021_Aug_17_1155,t1_Paradigm,2021.1.4,60.12112000851584,
T,left,Pretarget,0,10,10,10,161.09732880000047,163.09722970000075,right,0,2,0.266426500000307,Danny,2021_Aug_17_1155,t1_Paradigm,2021.1.4,60.12112000851584,
K,left,Distractor,0,11,11,11,164.5975612000002,166.59706790000018,left,1,2,0.44185099999958766,Danny,2021_Aug_17_1155,t1_Paradigm,2021.1.4,60.12112000851584,
T,right,Target,0,12,12,12,168.09737020000102,170.09689919999983,None,0,2,,Danny,2021_Aug_17_1155,t1_Paradigm,2021.1.4,60.12112000851584,
T,left,Lure,0,13,13,13,171.59717269999965,173.59700220000013,left,1,2,0.32684949999929813,Danny,2021_Aug_17_1155,t1_Paradigm,2021.1.4,60.12112000851584,
B,left,Pretarget,0,0,0,0,176.34144639999977,178.33168900000055,left,1,2,0.541090599999734,Danny,2021_Aug_17_1155,t1_Paradigm,2021.1.4,60.12112000851584,
F,left,Distractor,0,1,1,1,179.8299629000012,181.82959850000043,left,1,2,0.3036188000005495,Danny,2021_Aug_17_1155,t1_Paradigm,2021.1.4,60.12112000851584,
B,right,Target,0,2,2,2,183.32983179999974,185.32940940000117,left,0,2,0.5666654000015114,Danny,2021_Aug_17_1155,t1_Paradigm,2021.1.4,60.12112000851584,
V,left,Distractor,0,3,3,3,186.8297244000005,188.82927569999993,right,0,2,0.38223959999959334,Danny,2021_Aug_17_1155,t1_Paradigm,2021.1.4,60.12112000851584,
G,left,Pretarget,0,4,4,4,190.32951560000038,192.32905120000032,right,0,2,0.38307109999914246,Danny,2021_Aug_17_1155,t1_Paradigm,2021.1.4,60.12112000851584,
B,left,Lure,0,5,5,5,193.829353000001,195.82892410000022,right,0,2,0.6254756999987876,Danny,2021_Aug_17_1155,t1_Paradigm,2021.1.4,60.12112000851584,
G,right,Target,0,6,6,6,197.32918240000072,199.32879030000004,right,1,2,0.36595370000031835,Danny,2021_Aug_17_1155,t1_Paradigm,2021.1.4,60.12112000851584,
Y,left,Pretarget,0,7,7,7,200.82869700000083,202.8315244000005,left,1,2,0.7686006000003545,Danny,2021_Aug_17_1155,t1_Paradigm,2021.1.4,60.12112000851584,
P,left,Distractor,0,8,8,8,204.32883240000046,206.32864289999998,right,0,2,0.38237350000053993,Danny,2021_Aug_17_1155,t1_Paradigm,2021.1.4,60.12112000851584,
Y,right,Target,0,9,9,9,207.8285888999999,209.82834150000053,right,1,2,0.3646093000006658,Danny,2021_Aug_17_1155,t1_Paradigm,2021.1.4,60.12112000851584,
X,left,Distractor,0,10,10,10,211.32850640000106,213.328076400001,right,0,2,0.2963262000012037,Danny,2021_Aug_17_1155,t1_Paradigm,2021.1.4,60.12112000851584,
Y,right,Target,0,11,11,11,214.828238600001,216.82772420000038,right,1,2,0.5450008000007074,Danny,2021_Aug_17_1155,t1_Paradigm,2021.1.4,60.12112000851584,
N,left,Distractor,0,12,12,12,218.32798840000032,220.32790360000035,left,1,2,0.53219960000024,Danny,2021_Aug_17_1155,t1_Paradigm,2021.1.4,60.12112000851584,
Y,right,Target,0,13,13,13,221.8275508000006,223.82742619999954,right,1,2,0.3069790000008652,Danny,2021_Aug_17_1155,t1_Paradigm,2021.1.4,60.12112000851584,
R,left,Distractor,0,0,0,0,227.32344469999953,229.3104359000008,left,1,3,0.326252700000623,Danny,2021_Aug_17_1155,t1_Paradigm,2021.1.4,60.12112000851584,
P,left,Lure,0,1,1,1,230.81074660000013,232.8104887999998,left,1,3,0.5522321999997075,Danny,2021_Aug_17_1155,t1_Paradigm,2021.1.4,60.12112000851584,
V,left,Distractor,0,2,2,2,234.31036510000013,236.31070530000034,left,1,3,0.5720891000000847,Danny,2021_Aug_17_1155,t1_Paradigm,2021.1.4,60.12112000851584,
P,left,Pretarget,0,3,3,3,237.81037000000106,239.809901300001,left,1,3,0.396098000001075,Danny,2021_Aug_17_1155,t1_Paradigm,2021.1.4,60.12112000851584,
Z,left,Distractor,0,4,4,4,241.3101870999999,243.3095575999996,left,1,3,0.5794810999996116,Danny,2021_Aug_17_1155,t1_Paradigm,2021.1.4,60.12112000851584,
L,left,Pretarget,0,5,5,5,244.81000500000118,246.80947390000074,right,0,3,0.325757299999168,Danny,2021_Aug_17_1155,t1_Paradigm,2021.1.4,60.12112000851584,
P,right,Target,0,6,6,6,248.3097916000006,250.30932050000047,right,1,3,0.3540822000013577,Danny,2021_Aug_17_1155,t1_Paradigm,2021.1.4,60.12112000851584,
S,left,Distractor,0,7,7,7,251.80955180000092,253.80916660000003,left,1,3,0.28887589999976626,Danny,2021_Aug_17_1155,t1_Paradigm,2021.1.4,60.12112000851584,
L,right,Target,0,8,8,8,255.3094531000006,257.30905520000124,left,0,3,0.29180539999833854,Danny,2021_Aug_17_1155,t1_Paradigm,2021.1.4,60.12112000851584,
D,left,Distractor,0,9,9,9,258.8092854000006,260.811549,left,1,3,0.2936573999995744,Danny,2021_Aug_17_1155,t1_Paradigm,2021.1.4,60.12112000851584,
G,left,Distractor,0,10,10,10,262.3091002000001,264.3086433999997,right,0,3,0.3017543999994814,Danny,2021_Aug_17_1155,t1_Paradigm,2021.1.4,60.12112000851584,
M,left,Pretarget,0,11,11,11,265.8088862000004,267.81267579999985,right,0,3,0.9202710999998089,Danny,2021_Aug_17_1155,t1_Paradigm,2021.1.4,60.12112000851584,
Y,left,Distractor,0,12,12,12,269.3087685999999,271.3086127000006,left,1,3,0.14659279999978025,Danny,2021_Aug_17_1155,t1_Paradigm,2021.1.4,60.12112000851584,
V,left,Distractor,0,13,13,13,272.80854100000033,274.80810500000007,left,1,3,0.4110342000003584,Danny,2021_Aug_17_1155,t1_Paradigm,2021.1.4,60.12112000851584,
H,left,Lure,0,0,0,0,277.4345035999995,279.4245241000008,left,1,3,0.316559299999426,Danny,2021_Aug_17_1155,t1_Paradigm,2021.1.4,60.12112000851584,
B,left,Distractor,0,1,1,1,280.9244782000005,282.9243454000007,left,1,3,0.37054669999997714,Danny,2021_Aug_17_1155,t1_Paradigm,2021.1.4,60.12112000851584,
T,left,Distractor,0,2,2,2,284.42453899999964,286.4241471000005,left,1,3,0.49144220000016503,Danny,2021_Aug_17_1155,t1_Paradigm,2021.1.4,60.12112000851584,
R,left,Distractor,0,3,3,3,287.9242938999996,289.92393730000003,left,1,3,0.5317763999992167,Danny,2021_Aug_17_1155,t1_Paradigm,2021.1.4,60.12112000851584,
H,left,Pretarget,0,4,4,4,291.4241301000002,293.42377900000065,left,1,3,0.4971053999997821,Danny,2021_Aug_17_1155,t1_Paradigm,2021.1.4,60.12112000851584,
K,left,Distractor,0,5,5,5,294.9235485999998,296.9235996999996,right,0,3,0.316371099999742,Danny,2021_Aug_17_1155,t1_Paradigm,2021.1.4,60.12112000851584,
G,left,Distractor,0,6,6,6,298.4238409999998,300.42366260000017,None,0,3,,Danny,2021_Aug_17_1155,t1_Paradigm,2021.1.4,60.12112000851584,
H,right,Target,0,7,7,7,301.92367750000085,303.92340610000065,None,0,3,,Danny,2021_Aug_17_1155,t1_Paradigm,2021.1.4,60.12112000851584,
Y,left,Pretarget,0,8,8,8,305.4234653000003,307.4229713000004,left,1,3,0.22337739999966288,Danny,2021_Aug_17_1155,t1_Paradigm,2021.1.4,60.12112000851584,
S,left,Distractor,0,9,9,9,308.92330870000114,310.92294890000085,left,1,3,0.40642359999947075,Danny,2021_Aug_17_1155,t1_Paradigm,2021.1.4,60.12112000851584,
P,left,Distractor,0,10,10,10,312.42305300000044,314.4230198000005,left,1,3,0.4541429999990214,Danny,2021_Aug_17_1155,t1_Paradigm,2021.1.4,60.12112000851584,
Y,right,Target,0,11,11,11,315.92294760000004,317.92248070000096,left,0,3,0.5564462000002095,Danny,2021_Aug_17_1155,t1_Paradigm,2021.1.4,60.12112000851584,
H,left,Lure,0,12,12,12,319.4223347999996,321.422288400001,left,1,3,0.34836299999915354,Danny,2021_Aug_17_1155,t1_Paradigm,2021.1.4,60.12112000851584,
Q,left,Distractor,0,13,13,13,322.92252720000033,324.92215770000075,left,1,3,0.3438400000013644,Danny,2021_Aug_17_1155,t1_Paradigm,2021.1.4,60.12112000851584,
R,left,Distractor,0,0,0,0,328.9326326999999,330.92181960000016,left,1,4,0.5475894999999582,Danny,2021_Aug_17_1155,t1_Paradigm,2021.1.4,60.12112000851584,
F,left,Distractor,0,1,1,1,332.42174499999965,334.42188239999996,left,1,4,0.4197703999998339,Danny,2021_Aug_17_1155,t1_Paradigm,2021.1.4,60.12112000851584,
P,left,Pretarget,0,2,2,2,335.9218474999998,337.9214437999999,left,1,4,0.29803200000060315,Danny,2021_Aug_17_1155,t1_Paradigm,2021.1.4,60.12112000851584,
H,left,Distractor,0,3,3,3,339.42167750000044,341.42129039999963,left,1,4,0.6742806999991444,Danny,2021_Aug_17_1155,t1_Paradigm,2021.1.4,60.12112000851584,
Z,left,Distractor,0,4,4,4,342.9214834000013,344.9213111000008,right,0,4,0.45703709999907005,Danny,2021_Aug_17_1155,t1_Paradigm,2021.1.4,60.12112000851584,
T,left,Distractor,0,5,5,5,346.42135039999994,348.4207832000011,left,1,4,0.501783699999578,Danny,2021_Aug_17_1155,t1_Paradigm,2021.1.4,60.12112000851584,
P,right,Target,0,6,6,6,349.9211296000012,351.92073060000075,None,0,4,,Danny,2021_Aug_17_1155,t1_Paradigm,2021.1.4,60.12112000851584,
G,left,Distractor,0,7,7,7,353.4207232000008,355.42056799999955,left,1,4,0.35654059999978926,Danny,2021_Aug_17_1155,t1_Paradigm,2021.1.4,60.12112000851584,
L,left,Distractor,0,8,8,8,356.9207490000008,358.92022610000095,right,0,4,0.37239339999905496,Danny,2021_Aug_17_1155,t1_Paradigm,2021.1.4,60.12112000851584,
P,left,Lure,0,9,9,9,360.4206105000012,362.420201500001,right,0,4,0.33522960000118474,Danny,2021_Aug_17_1155,t1_Paradigm,2021.1.4,60.12112000851584,
Q,left,Pretarget,0,10,10,10,363.9201200000007,365.9200058000006,right,0,4,0.42669430000023567,Danny,2021_Aug_17_1155,t1_Paradigm,2021.1.4,60.12112000851584,
D,left,Distractor,0,11,11,11,367.42022870000073,369.4198281000008,right,0,4,0.48300340000059805,Danny,2021_Aug_17_1155,t1_Paradigm,2021.1.4,60.12112000851584,
M,left,Pretarget,0,12,12,12,370.9200799000009,372.9196267999996,right,0,4,1.0935427999993408,Danny,2021_Aug_17_1155,t1_Paradigm,2021.1.4,60.12112000851584,
C,left,Distractor,0,13,13,13,374.41961319999973,376.4215393000013,left,1,4,0.47942930000135675,Danny,2021_Aug_17_1155,t1_Paradigm,2021.1.4,60.12112000851584,
J,left,Pretarget,0,0,0,0,379.22826820000046,381.22239790000094,left,1,4,0.34448800000063784,Danny,2021_Aug_17_1155,t1_Paradigm,2021.1.4,60.12112000851584,
G,left,Pretarget,0,1,1,1,382.7193875000012,384.7189580000013,left,1,4,0.2792621999997209,Danny,2021_Aug_17_1155,t1_Paradigm,2021.1.4,60.12112000851584,
Z,left,Distractor,0,2,2,2,386.2192691,388.21905049999987,left,1,4,0.3751627000001463,Danny,2021_Aug_17_1155,t1_Paradigm,2021.1.4,60.12112000851584,
F,left,Distractor,0,3,3,3,389.71910840000055,391.71870599999966,left,1,4,0.31921479999982694,Danny,2021_Aug_17_1155,t1_Paradigm,2021.1.4,60.12112000851584,
J,right,Target,0,4,4,4,393.218889400001,395.2186631000004,left,0,4,0.5349932000008266,Danny,2021_Aug_17_1155,t1_Paradigm,2021.1.4,60.12112000851584,
G,right,Target,0,5,5,5,396.7186851000006,398.7197339000013,left,0,4,0.42541130000063276,Danny,2021_Aug_17_1155,t1_Paradigm,2021.1.4,60.12112000851584,
H,left,Distractor,0,6,6,6,400.2185317000003,402.21831440000096,left,1,4,0.49976949999836506,Danny,2021_Aug_17_1155,t1_Paradigm,2021.1.4,60.12112000851584,
P,left,Distractor,0,7,7,7,403.7184113000003,405.7181407999997,left,1,4,0.2629758999992191,Danny,2021_Aug_17_1155,t1_Paradigm,2021.1.4,60.12112000851584,
G,left,Lure,0,8,8,8,407.2181579999997,409.2177092000002,left,1,4,0.46357069999976375,Danny,2021_Aug_17_1155,t1_Paradigm,2021.1.4,60.12112000851584,
S,left,Distractor,0,9,9,9,410.71799660000033,412.7177188000005,right,0,4,0.31010910000077274,Danny,2021_Aug_17_1155,t1_Paradigm,2021.1.4,60.12112000851584,
R,left,Pretarget,0,10,10,10,414.2177812000009,416.21733549999954,None,0,4,,Danny,2021_Aug_17_1155,t1_Paradigm,2021.1.4,60.12112000851584,
T,left,Pretarget,0,11,11,11,417.7176650000001,419.7171827000002,right,0,4,0.3189450999998371,Danny,2021_Aug_17_1155,t1_Paradigm,2021.1.4,60.12112000851584,
X,left,Distractor,0,12,12,12,421.217492400001,423.2172346999996,right,0,4,0.32213489999958256,Danny,2021_Aug_17_1155,t1_Paradigm,2021.1.4,60.12112000851584,
F,left,Pretarget,0,13,13,13,424.7173321999999,426.71680190000006,left,1,4,0.6019545999988622,Danny,2021_Aug_17_1155,t1_Paradigm,2021.1.4,60.12112000851584,
