Block,conds_view_File,n_reps,instr_1,TriggerBlockView,ImageFile,Trigger,conds_reg_File,TriggerBlockReg,instr_2,blocks_view.thisRepN,blocks_view.thisTrialN,blocks_view.thisN,blocks_view.thisIndex,trials_view.thisRepN,trials_view.thisTrialN,trials_view.thisN,trials_view.thisIndex,blocks_reg.thisRepN,blocks_reg.thisTrialN,blocks_reg.thisN,blocks_reg.thisIndex,trials_reg.thisRepN,trials_reg.thisTrialN,trials_reg.thisN,trials_reg.thisIndex,trials_choice.thisRepN,trials_choice.thisTrialN,trials_choice.thisN,trials_choice.thisIndex,Fix_jitter,image_view.started,image_view.lasted,image_view.stopped,slider_arousal.response,slider_arousal.rt,slider_effort.response,slider_effort.rt,image_reg.started,image_reg.lasted,image_reg.stopped,slider_utility.response,slider_utility.rt,resp_choice.keys,resp_choice.rt,key_resp.keys,key_resp.rt,image.started,image.lased,image.stopped,participant,date,expName,psychopyVersion,frameRate,
,,,,,,,,,,,,,,,,,,,,,,,,,,,,,,,,,,,,,,,,,,,,,,,,,,B01J08,2022-11-21_15h24.51.062,t2_paradigm,2021.1.4,60.02435872993331,
1,Trials/StimuliNeutral.xlsx,1,ANSCHAUEN,21,Stimuli/7185.jpg,1,,,,0,0,0,0,0,0,0,15,,,,,,,,,,,,,4.1,24.70494525359527,6.017631450880344,None,,,,,,,,,,,,,,,,,B01J08,2022-11-21_15h24.51.062,t2_paradigm,2021.1.4,60.02435872993331,
1,Trials/StimuliNeutral.xlsx,1,ANSCHAUEN,21,Stimuli/143.jpg,1,,,,0,0,0,0,0,1,1,4,,,,,,,,,,,,,3.3,34.046371556956274,6.004107127218504,None,,,,,,,,,,,,,,,,,B01J08,2022-11-21_15h24.51.062,t2_paradigm,2021.1.4,60.02435872993331,
1,Trials/StimuliNeutral.xlsx,1,ANSCHAUEN,21,Stimuli/7041.jpg,1,,,,0,0,0,0,0,2,2,12,,,,,,,,,,,,,3.1,43.186850918022174,6.008364485846414,None,,,,,,,,,,,,,,,,,B01J08,2022-11-21_15h24.51.062,t2_paradigm,2021.1.4,60.02435872993331,
1,Trials/StimuliNeutral.xlsx,1,ANSCHAUEN,21,Stimuli/7224.jpg,1,,,,0,0,0,0,0,3,3,17,,,,,,,,,,,,,4.1,53.32662194905606,6.009189266875637,None,,,,,,,,,,,,,,,,,B01J08,2022-11-21_15h24.51.062,t2_paradigm,2021.1.4,60.02435872993331,
1,Trials/StimuliNeutral.xlsx,1,ANSCHAUEN,21,Stimuli/7004.jpg,1,,,,0,0,0,0,0,4,4,7,,,,,,,,,,,,,3.9,63.26758482236119,6.013713853274112,None,,,,,,,,,,,,,,,,,B01J08,2022-11-21_15h24.51.062,t2_paradigm,2021.1.4,60.02435872993331,
1,Trials/StimuliNeutral.xlsx,1,ANSCHAUEN,21,Stimuli/083.jpg,1,,,,0,0,0,0,0,5,5,0,,,,,,,,,,,,,4.8,74.10635151968563,6.001571511017573,None,,,,,,,,,,,,,,,,,B01J08,2022-11-21_15h24.51.062,t2_paradigm,2021.1.4,60.02435872993331,
1,Trials/StimuliNeutral.xlsx,1,ANSCHAUEN,21,Stimuli/124.jpg,1,,,,0,0,0,0,0,6,6,2,,,,,,,,,,,,,4.2,84.32821408761947,6.008729269396554,None,,,,,,,,,,,,,,,,,B01J08,2022-11-21_15h24.51.062,t2_paradigm,2021.1.4,60.02435872993331,
1,Trials/StimuliNeutral.xlsx,1,ANSCHAUEN,21,Stimuli/7100.jpg,1,,,,0,0,0,0,0,7,7,13,,,,,,,,,,,,,4.4,94.7901427920201,6.0013116296045155,None,,,,,,,,,,,,,,,,,B01J08,2022-11-21_15h24.51.062,t2_paradigm,2021.1.4,60.02435872993331,
1,Trials/StimuliNeutral.xlsx,1,ANSCHAUEN,21,Stimuli/140.jpg,1,,,,0,0,0,0,0,8,8,3,,,,,,,,,,,,,4.5,105.32572145883933,6.012618636458683,None,,,,,,,,,,,,,,,,,B01J08,2022-11-21_15h24.51.062,t2_paradigm,2021.1.4,60.02435872993331,
1,Trials/StimuliNeutral.xlsx,1,ANSCHAUEN,21,Stimuli/7006.jpg,1,,,,0,0,0,0,0,9,9,8,,,,,,,,,,,,,5.0,116.39327105717939,6.010540130521349,None,,,,,,,,,,,,,,,,,B01J08,2022-11-21_15h24.51.062,t2_paradigm,2021.1.4,60.02435872993331,
1,Trials/StimuliNeutral.xlsx,1,ANSCHAUEN,21,Stimuli/7009.jpg,1,,,,0,0,0,0,0,10,10,9,,,,,,,,,,,,,3.9,126.33504042581944,6.010410558737021,None,,,,,,,,,,,,,,,,,B01J08,2022-11-21_15h24.51.062,t2_paradigm,2021.1.4,60.02435872993331,
1,Trials/StimuliNeutral.xlsx,1,ANSCHAUEN,21,Stimuli/7150.jpg,1,,,,0,0,0,0,0,11,11,14,,,,,,,,,,,,,3.4,135.771510953291,6.003550215562882,None,,,,,,,,,,,,,,,,,B01J08,2022-11-21_15h24.51.062,t2_paradigm,2021.1.4,60.02435872993331,
1,Trials/StimuliNeutral.xlsx,1,ANSCHAUEN,21,Stimuli/7233.jpg,1,,,,0,0,0,0,0,12,12,18,,,,,,,,,,,,,4.2,146.0196022637051,6.008901154918476,None,,,,,,,,,,,,,,,,,B01J08,2022-11-21_15h24.51.062,t2_paradigm,2021.1.4,60.02435872993331,
1,Trials/StimuliNeutral.xlsx,1,ANSCHAUEN,21,Stimuli/7002.jpg,1,,,,0,0,0,0,0,13,13,6,,,,,,,,,,,,,4.6,156.6575128055997,5.998933238291102,None,,,,,,,,,,,,,,,,,B01J08,2022-11-21_15h24.51.062,t2_paradigm,2021.1.4,60.02435872993331,
1,Trials/StimuliNeutral.xlsx,1,ANSCHAUEN,21,Stimuli/7000.jpg,1,,,,0,0,0,0,0,14,14,5,,,,,,,,,,,,,3.5,166.18378533750456,6.013998404333051,None,,,,,,,,,,,,,,,,,B01J08,2022-11-21_15h24.51.062,t2_paradigm,2021.1.4,60.02435872993331,
1,Trials/StimuliNeutral.xlsx,1,ANSCHAUEN,21,Stimuli/107.jpg,1,,,,0,0,0,0,0,15,15,1,,,,,,,,,,,,,3.5,175.7255689497374,6.012610616417533,None,,,,,,,,,,,,,,,,,B01J08,2022-11-21_15h24.51.062,t2_paradigm,2021.1.4,60.02435872993331,
1,Trials/StimuliNeutral.xlsx,1,ANSCHAUEN,21,Stimuli/7021.jpg,1,,,,0,0,0,0,0,16,16,10,,,,,,,,,,,,,3.4,185.17071812410632,6.005933450982411,None,,,,,,,,,,,,,,,,,B01J08,2022-11-21_15h24.51.062,t2_paradigm,2021.1.4,60.02435872993331,
1,Trials/StimuliNeutral.xlsx,1,ANSCHAUEN,21,Stimuli/7025.jpg,1,,,,0,0,0,0,0,17,17,11,,,,,,,,,,,,,4.5,195.71540274561312,6.015680014474128,None,,,,,,,,,,,,,,,,,B01J08,2022-11-21_15h24.51.062,t2_paradigm,2021.1.4,60.02435872993331,
1,Trials/StimuliNeutral.xlsx,1,ANSCHAUEN,21,Stimuli/7211.jpg,1,,,,0,0,0,0,0,18,18,16,,,,,,,,,,,,,4.5,206.25745903924417,5.999345147602526,None,,,,,,,,,,,,,,,,,B01J08,2022-11-21_15h24.51.062,t2_paradigm,2021.1.4,60.02435872993331,
1,Trials/StimuliNeutral.xlsx,1,ANSCHAUEN,21,Stimuli/7235.jpg,1,,,,0,0,0,0,0,19,19,19,,,,,,,,,,,,,4.4,216.69830016832475,6.016614188863969,None,,,,,,,,,,,,,,,,,B01J08,2022-11-21_15h24.51.062,t2_paradigm,2021.1.4,60.02435872993331,
1,Trials/StimuliNeutral.xlsx,1,ANSCHAUEN,21,,,,,,0,0,0,0,,,,,,,,,,,,,,,,,,,,,1.4814814814814836,4.601351665650327,0.7407407407407307,3.703287992298101,,,,,,,,,,,,,B01J08,2022-11-21_15h24.51.062,t2_paradigm,2021.1.4,60.02435872993331,
2,Trials/StimuliNegative.xlsx,1,ANSCHAUEN,22,Stimuli/1051.jpg,,,,,0,1,1,1,0,0,0,2,,,,,,,,,,,,,4.9,242.3711280444477,6.00398201457665,None,,,,,,,,,,,,,,,,,B01J08,2022-11-21_15h24.51.062,t2_paradigm,2021.1.4,60.02435872993331,
2,Trials/StimuliNegative.xlsx,1,ANSCHAUEN,22,Stimuli/6838.jpg,,,,,0,1,1,1,0,1,1,7,,,,,,,,,,,,,4.9,253.31461562669756,6.001185586638712,None,,,,,,,,,,,,,,,,,B01J08,2022-11-21_15h24.51.062,t2_paradigm,2021.1.4,60.02435872993331,
2,Trials/StimuliNegative.xlsx,1,ANSCHAUEN,22,Stimuli/9230.jpg,,,,,0,1,1,1,0,2,2,11,,,,,,,,,,,,,4.2,263.5631775531242,6.0044786155226575,None,,,,,,,,,,,,,,,,,B01J08,2022-11-21_15h24.51.062,t2_paradigm,2021.1.4,60.02435872993331,
2,Trials/StimuliNegative.xlsx,1,ANSCHAUEN,22,Stimuli/9411.jpg,,,,,0,1,1,1,0,3,3,15,,,,,,,,,,,,,4.4,274.0160840320664,6.013823535356096,None,,,,,,,,,,,,,,,,,B01J08,2022-11-21_15h24.51.062,t2_paradigm,2021.1.4,60.02435872993331,
2,Trials/StimuliNegative.xlsx,1,ANSCHAUEN,22,Stimuli/9421.jpg,,,,,0,1,1,1,0,4,4,17,,,,,,,,,,,,,3.9,283.9523991311412,6.009495632446487,None,,,,,,,,,,,,,,,,,B01J08,2022-11-21_15h24.51.062,t2_paradigm,2021.1.4,60.02435872993331,
2,Trials/StimuliNegative.xlsx,1,ANSCHAUEN,22,Stimuli/252.jpg,,,,,0,1,1,1,0,5,5,1,,,,,,,,,,,,,4.9,294.9002326132727,6.012727035334137,None,,,,,,,,,,,,,,,,,B01J08,2022-11-21_15h24.51.062,t2_paradigm,2021.1.4,60.02435872993331,
2,Trials/StimuliNegative.xlsx,1,ANSCHAUEN,22,Stimuli/3230.jpg,,,,,0,1,1,1,0,6,6,5,,,,,,,,,,,,,3.1,304.047717640658,6.001505425879259,None,,,,,,,,,,,,,,,,,B01J08,2022-11-21_15h24.51.062,t2_paradigm,2021.1.4,60.02435872993331,
2,Trials/StimuliNegative.xlsx,1,ANSCHAUEN,22,Stimuli/9185.jpg,,,,,0,1,1,1,0,7,7,10,,,,,,,,,,,,,4.7,314.7960400886568,6.006037069913873,None,,,,,,,,,,,,,,,,,B01J08,2022-11-21_15h24.51.062,t2_paradigm,2021.1.4,60.02435872993331,
2,Trials/StimuliNegative.xlsx,1,ANSCHAUEN,22,Stimuli/9599.jpg,,,,,0,1,1,1,0,8,8,18,,,,,,,,,,,,,3.3,324.1390986307865,6.002595189066142,None,,,,,,,,,,,,,,,,,B01J08,2022-11-21_15h24.51.062,t2_paradigm,2021.1.4,60.02435872993331,
2,Trials/StimuliNegative.xlsx,1,ANSCHAUEN,22,Stimuli/9295.jpg,,,,,0,1,1,1,0,9,9,13,,,,,,,,,,,,,4.6,334.7899750127599,6.001032852975641,None,,,,,,,,,,,,,,,,,B01J08,2022-11-21_15h24.51.062,t2_paradigm,2021.1.4,60.02435872993331,
2,Trials/StimuliNegative.xlsx,1,ANSCHAUEN,22,Stimuli/227.jpg,,,,,0,1,1,1,0,10,10,0,,,,,,,,,,,,,4.9,345.72846354297826,6.006319054559299,None,,,,,,,,,,,,,,,,,B01J08,2022-11-21_15h24.51.062,t2_paradigm,2021.1.4,60.02435872993331,
2,Trials/StimuliNegative.xlsx,1,ANSCHAUEN,22,Stimuli/9181.jpg,,,,,0,1,1,1,0,11,11,9,,,,,,,,,,,,,3.3,355.08382129936854,6.012977260616935,None,,,,,,,,,,,,,,,,,B01J08,2022-11-21_15h24.51.062,t2_paradigm,2021.1.4,60.02435872993331,
2,Trials/StimuliNegative.xlsx,1,ANSCHAUEN,22,Stimuli/3061.jpg,,,,,0,1,1,1,0,12,12,4,,,,,,,,,,,,,3.6,364.72617366083796,6.0103614760855635,None,,,,,,,,,,,,,,,,,B01J08,2022-11-21_15h24.51.062,t2_paradigm,2021.1.4,60.02435872993331,
2,Trials/StimuliNegative.xlsx,1,ANSCHAUEN,22,Stimuli/2800.jpg,,,,,0,1,1,1,0,13,13,3,,,,,,,,,,,,,3.1,373.8754080195922,6.013182605749989,None,,,,,,,,,,,,,,,,,B01J08,2022-11-21_15h24.51.062,t2_paradigm,2021.1.4,60.02435872993331,
2,Trials/StimuliNegative.xlsx,1,ANSCHAUEN,22,Stimuli/9420.jpg,,,,,0,1,1,1,0,14,14,16,,,,,,,,,,,,,3.6,383.53426177606707,6.01150766828232,None,,,,,,,,,,,,,,,,,B01J08,2022-11-21_15h24.51.062,t2_paradigm,2021.1.4,60.02435872993331,
2,Trials/StimuliNegative.xlsx,1,ANSCHAUEN,22,Stimuli/6561.jpg,,,,,0,1,1,1,0,15,15,6,,,,,,,,,,,,,4.9,394.48075751534,6.001546167687593,None,,,,,,,,,,,,,,,,,B01J08,2022-11-21_15h24.51.062,t2_paradigm,2021.1.4,60.02435872993331,
2,Trials/StimuliNegative.xlsx,1,ANSCHAUEN,22,Stimuli/9332.jpg,,,,,0,1,1,1,0,16,16,14,,,,,,,,,,,,,4.7,405.2265754648979,6.010602398120682,None,,,,,,,,,,,,,,,,,B01J08,2022-11-21_15h24.51.062,t2_paradigm,2021.1.4,60.02435872993331,
2,Trials/StimuliNegative.xlsx,1,ANSCHAUEN,22,Stimuli/9905.jpg,,,,,0,1,1,1,0,17,17,19,,,,,,,,,,,,,3.3,414.5725664548627,6.002659349394889,None,,,,,,,,,,,,,,,,,B01J08,2022-11-21_15h24.51.062,t2_paradigm,2021.1.4,60.02435872993331,
2,Trials/StimuliNegative.xlsx,1,ANSCHAUEN,22,Stimuli/9120.jpg,,,,,0,1,1,1,0,18,18,8,,,,,,,,,,,,,3.7,424.3119212136826,6.005347346377221,None,,,,,,,,,,,,,,,,,B01J08,2022-11-21_15h24.51.062,t2_paradigm,2021.1.4,60.02435872993331,
2,Trials/StimuliNegative.xlsx,1,ANSCHAUEN,22,Stimuli/9254.jpg,,,,,0,1,1,1,0,19,19,12,,,,,,,,,,,,,4.7,435.07270873039215,6.001779679204446,None,,,,,,,,,,,,,,,,,B01J08,2022-11-21_15h24.51.062,t2_paradigm,2021.1.4,60.02435872993331,
2,Trials/StimuliNegative.xlsx,1,ANSCHAUEN,22,,,,,,0,1,1,1,,,,,,,,,,,,,,,,,,,,,48.88888888888889,3.6677325835985357,2.592592592592591,2.620242391306874,,,,,,,,,,,,,B01J08,2022-11-21_15h24.51.062,t2_paradigm,2021.1.4,60.02435872993331,
3,,1,ABLENKEN,,Stimuli/6555.jpg,,Trials/StimuliNegative.xlsx,23,"Denken Sie während des Betrachtens der Bilder an etwas Neutrales, das mit dem Bild nichts zu tun hat. Das könnten geometrische Figuren, Alltagstätigkeiten oder bekannte Orte sein.",,,,,,,,,0,0,0,0,0,0,0,10,,,,,3.5,,,,,,,,464.7242543045968,5.997305779466387,None,,,,,,,,,,B01J08,2022-11-21_15h24.51.062,t2_paradigm,2021.1.4,60.02435872993331,
3,,1,ABLENKEN,,Stimuli/3350.jpg,,Trials/StimuliNegative.xlsx,23,"Denken Sie während des Betrachtens der Bilder an etwas Neutrales, das mit dem Bild nichts zu tun hat. Das könnten geometrische Figuren, Alltagstätigkeiten oder bekannte Orte sein.",,,,,,,,,0,0,0,0,0,1,1,7,,,,,3.8,,,,,,,,474.5762823003147,6.010681604046567,None,,,,,,,,,,B01J08,2022-11-21_15h24.51.062,t2_paradigm,2021.1.4,60.02435872993331,
3,,1,ABLENKEN,,Stimuli/6940.jpg,,Trials/StimuliNegative.xlsx,23,"Denken Sie während des Betrachtens der Bilder an etwas Neutrales, das mit dem Bild nichts zu tun hat. Das könnten geometrische Figuren, Alltagstätigkeiten oder bekannte Orte sein.",,,,,,,,,0,0,0,0,0,2,2,12,,,,,4.4,,,,,,,,485.0372335221041,6.0060129777098155,None,,,,,,,,,,B01J08,2022-11-21_15h24.51.062,t2_paradigm,2021.1.4,60.02435872993331,
3,,1,ABLENKEN,,Stimuli/1301.jpg,,Trials/StimuliNegative.xlsx,23,"Denken Sie während des Betrachtens der Bilder an etwas Neutrales, das mit dem Bild nichts zu tun hat. Das könnten geometrische Figuren, Alltagstätigkeiten oder bekannte Orte sein.",,,,,,,,,0,0,0,0,0,3,3,6,,,,,3.7,,,,,,,,494.7755100665954,6.011778136148678,None,,,,,,,,,,B01J08,2022-11-21_15h24.51.062,t2_paradigm,2021.1.4,60.02435872993331,
3,,1,ABLENKEN,,Stimuli/6825.jpg,,Trials/StimuliNegative.xlsx,23,"Denken Sie während des Betrachtens der Bilder an etwas Neutrales, das mit dem Bild nichts zu tun hat. Das könnten geometrische Figuren, Alltagstätigkeiten oder bekannte Orte sein.",,,,,,,,,0,0,0,0,0,4,4,11,,,,,5.0,,,,,,,,505.8283897265201,6.006250082205497,None,,,,,,,,,,B01J08,2022-11-21_15h24.51.062,t2_paradigm,2021.1.4,60.02435872993331,
3,,1,ABLENKEN,,Stimuli/9140.jpg,,Trials/StimuliNegative.xlsx,23,"Denken Sie während des Betrachtens der Bilder an etwas Neutrales, das mit dem Bild nichts zu tun hat. Das könnten geometrische Figuren, Alltagstätigkeiten oder bekannte Orte sein.",,,,,,,,,0,0,0,0,0,5,5,15,,,,,4.7,,,,,,,,516.5837139912187,6.013149851902199,None,,,,,,,,,,B01J08,2022-11-21_15h24.51.062,t2_paradigm,2021.1.4,60.02435872993331,
3,,1,ABLENKEN,,Stimuli/9041.jpg,,Trials/StimuliNegative.xlsx,23,"Denken Sie während des Betrachtens der Bilder an etwas Neutrales, das mit dem Bild nichts zu tun hat. Das könnten geometrische Figuren, Alltagstätigkeiten oder bekannte Orte sein.",,,,,,,,,0,0,0,0,0,6,6,14,,,,,3.4,,,,,,,,526.0264924414323,6.0105221977096335,None,,,,,,,,,,B01J08,2022-11-21_15h24.51.062,t2_paradigm,2021.1.4,60.02435872993331,
3,,1,ABLENKEN,,Stimuli/8230.jpg,,Trials/StimuliNegative.xlsx,23,"Denken Sie während des Betrachtens der Bilder an etwas Neutrales, das mit dem Bild nichts zu tun hat. Das könnten geometrische Figuren, Alltagstätigkeiten oder bekannte Orte sein.",,,,,,,,,0,0,0,0,0,7,7,13,,,,,3.9,,,,,,,,535.975883094748,6.011429745562964,None,,,,,,,,,,B01J08,2022-11-21_15h24.51.062,t2_paradigm,2021.1.4,60.02435872993331,
3,,1,ABLENKEN,,Stimuli/208.jpg,,Trials/StimuliNegative.xlsx,23,"Denken Sie während des Betrachtens der Bilder an etwas Neutrales, das mit dem Bild nichts zu tun hat. Das könnten geometrische Figuren, Alltagstätigkeiten oder bekannte Orte sein.",,,,,,,,,0,0,0,0,0,8,8,0,,,,,3.7,,,,,,,,545.733918454147,6.011558354941826,None,,,,,,,,,,B01J08,2022-11-21_15h24.51.062,t2_paradigm,2021.1.4,60.02435872993331,
3,,1,ABLENKEN,,Stimuli/6242.jpg,,Trials/StimuliNegative.xlsx,23,"Denken Sie während des Betrachtens der Bilder an etwas Neutrales, das mit dem Bild nichts zu tun hat. Das könnten geometrische Figuren, Alltagstätigkeiten oder bekannte Orte sein.",,,,,,,,,0,0,0,0,0,9,9,8,,,,,3.3,,,,,,,,555.0826811703232,6.014062211780129,None,,,,,,,,,,B01J08,2022-11-21_15h24.51.062,t2_paradigm,2021.1.4,60.02435872993331,
3,,1,ABLENKEN,,Stimuli/253.jpg,,Trials/StimuliNegative.xlsx,23,"Denken Sie während des Betrachtens der Bilder an etwas Neutrales, das mit dem Bild nichts zu tun hat. Das könnten geometrische Figuren, Alltagstätigkeiten oder bekannte Orte sein.",,,,,,,,,0,0,0,0,0,10,10,3,,,,,3.6,,,,,,,,564.7206651757947,6.004572289602947,None,,,,,,,,,,B01J08,2022-11-21_15h24.51.062,t2_paradigm,2021.1.4,60.02435872993331,
3,,1,ABLENKEN,,Stimuli/326.jpg,,Trials/StimuliNegative.xlsx,23,"Denken Sie während des Betrachtens der Bilder an etwas Neutrales, das mit dem Bild nichts zu tun hat. Das könnten geometrische Figuren, Alltagstätigkeiten oder bekannte Orte sein.",,,,,,,,,0,0,0,0,0,11,11,5,,,,,3.7,,,,,,,,574.458337650789,5.995778474915824,None,,,,,,,,,,B01J08,2022-11-21_15h24.51.062,t2_paradigm,2021.1.4,60.02435872993331,
3,,1,ABLENKEN,,Stimuli/254.jpg,,Trials/StimuliNegative.xlsx,23,"Denken Sie während des Betrachtens der Bilder an etwas Neutrales, das mit dem Bild nichts zu tun hat. Das könnten geometrische Figuren, Alltagstätigkeiten oder bekannte Orte sein.",,,,,,,,,0,0,0,0,0,12,12,4,,,,,4.8,,,,,,,,585.2927327840998,6.0107948791073795,None,,,,,,,,,,B01J08,2022-11-21_15h24.51.062,t2_paradigm,2021.1.4,60.02435872993331,
3,,1,ABLENKEN,,Stimuli/9340.jpg,,Trials/StimuliNegative.xlsx,23,"Denken Sie während des Betrachtens der Bilder an etwas Neutrales, das mit dem Bild nichts zu tun hat. Das könnten geometrische Figuren, Alltagstätigkeiten oder bekannte Orte sein.",,,,,,,,,0,0,0,0,0,13,13,16,,,,,4.5,,,,,,,,595.8567501959296,6.000527590385445,None,,,,,,,,,,B01J08,2022-11-21_15h24.51.062,t2_paradigm,2021.1.4,60.02435872993331,
3,,1,ABLENKEN,,Stimuli/9409.jpg,,Trials/StimuliNegative.xlsx,23,"Denken Sie während des Betrachtens der Bilder an etwas Neutrales, das mit dem Bild nichts zu tun hat. Das könnten geometrische Figuren, Alltagstätigkeiten oder bekannte Orte sein.",,,,,,,,,0,0,0,0,0,14,14,17,,,,,3.2,,,,,,,,605.0946708109964,6.007551253676866,None,,,,,,,,,,B01J08,2022-11-21_15h24.51.062,t2_paradigm,2021.1.4,60.02435872993331,
3,,1,ABLENKEN,,Stimuli/9800.jpg,,Trials/StimuliNegative.xlsx,23,"Denken Sie während des Betrachtens der Bilder an etwas Neutrales, das mit dem Bild nichts zu tun hat. Das könnten geometrische Figuren, Alltagstätigkeiten oder bekannte Orte sein.",,,,,,,,,0,0,0,0,0,15,15,19,,,,,3.9,,,,,,,,615.0477147534434,6.00052120643204,None,,,,,,,,,,B01J08,2022-11-21_15h24.51.062,t2_paradigm,2021.1.4,60.02435872993331,
3,,1,ABLENKEN,,Stimuli/226.jpg,,Trials/StimuliNegative.xlsx,23,"Denken Sie während des Betrachtens der Bilder an etwas Neutrales, das mit dem Bild nichts zu tun hat. Das könnten geometrische Figuren, Alltagstätigkeiten oder bekannte Orte sein.",,,,,,,,,0,0,0,0,0,16,16,2,,,,,4.0,,,,,,,,625.0878964426629,6.003194125737082,None,,,,,,,,,,B01J08,2022-11-21_15h24.51.062,t2_paradigm,2021.1.4,60.02435872993331,
3,,1,ABLENKEN,,Stimuli/9570.jpg,,Trials/StimuliNegative.xlsx,23,"Denken Sie während des Betrachtens der Bilder an etwas Neutrales, das mit dem Bild nichts zu tun hat. Das könnten geometrische Figuren, Alltagstätigkeiten oder bekannte Orte sein.",,,,,,,,,0,0,0,0,0,17,17,18,,,,,4.3,,,,,,,,635.4420912930905,6.012671536650032,None,,,,,,,,,,B01J08,2022-11-21_15h24.51.062,t2_paradigm,2021.1.4,60.02435872993331,
3,,1,ABLENKEN,,Stimuli/6410.jpg,,Trials/StimuliNegative.xlsx,23,"Denken Sie während des Betrachtens der Bilder an etwas Neutrales, das mit dem Bild nichts zu tun hat. Das könnten geometrische Figuren, Alltagstätigkeiten oder bekannte Orte sein.",,,,,,,,,0,0,0,0,0,18,18,9,,,,,4.1,,,,,,,,645.5897081699518,6.000165758210642,None,,,,,,,,,,B01J08,2022-11-21_15h24.51.062,t2_paradigm,2021.1.4,60.02435872993331,
3,,1,ABLENKEN,,Stimuli/219.jpg,,Trials/StimuliNegative.xlsx,23,"Denken Sie während des Betrachtens der Bilder an etwas Neutrales, das mit dem Bild nichts zu tun hat. Das könnten geometrische Figuren, Alltagstätigkeiten oder bekannte Orte sein.",,,,,,,,,0,0,0,0,0,19,19,1,,,,,4.6,,,,,,,,656.2324836687903,6.013913039015279,None,,,,,,,,,,B01J08,2022-11-21_15h24.51.062,t2_paradigm,2021.1.4,60.02435872993331,
3,,1,ABLENKEN,,,,Trials/StimuliNegative.xlsx,23,"Denken Sie während des Betrachtens der Bilder an etwas Neutrales, das mit dem Bild nichts zu tun hat. Das könnten geometrische Figuren, Alltagstätigkeiten oder bekannte Orte sein.",,,,,,,,,0,0,0,0,,,,,,,,,,,,,4.074074074074074,5.400755359552932,78.14814814814814,3.5851531073972183,,,,311.11111111111114,8.668918587279222,,,,,,,,B01J08,2022-11-21_15h24.51.062,t2_paradigm,2021.1.4,60.02435872993331,
5,,1,UNTERDRÜCKEN,,Stimuli/3280.jpg,,Trials/StimuliNegative.xlsx,25,"Unterdrücken Sie alle aufkommenden Emotionen. Wenn Sie also die Bilder ansehen, verhalten Sie sich so, dass eine außenstehende Person nicht sehen kann, welche Emotionen Sie gerade empfinden.",,,,,,,,,0,1,1,2,0,0,0,8,,,,,5.0,,,,,,,,702.9552764010932,6.002276280151364,None,,,,,,,,,,B01J08,2022-11-21_15h24.51.062,t2_paradigm,2021.1.4,60.02435872993331,
5,,1,UNTERDRÜCKEN,,Stimuli/9182.jpg,,Trials/StimuliNegative.xlsx,25,"Unterdrücken Sie alle aufkommenden Emotionen. Wenn Sie also die Bilder ansehen, verhalten Sie sich so, dass eine außenstehende Person nicht sehen kann, welche Emotionen Sie gerade empfinden.",,,,,,,,,0,1,1,2,0,1,1,13,,,,,3.6,,,,,,,,712.5977298150806,6.000989256032881,None,,,,,,,,,,B01J08,2022-11-21_15h24.51.062,t2_paradigm,2021.1.4,60.02435872993331,
5,,1,UNTERDRÜCKEN,,Stimuli/3022.jpg,,Trials/StimuliNegative.xlsx,25,"Unterdrücken Sie alle aufkommenden Emotionen. Wenn Sie also die Bilder ansehen, verhalten Sie sich so, dass eine außenstehende Person nicht sehen kann, welche Emotionen Sie gerade empfinden.",,,,,,,,,0,1,1,2,0,2,2,6,,,,,4.4,,,,,,,,723.0519326534691,6.009053214897904,None,,,,,,,,,,B01J08,2022-11-21_15h24.51.062,t2_paradigm,2021.1.4,60.02435872993331,
5,,1,UNTERDRÜCKEN,,Stimuli/6244.jpg,,Trials/StimuliNegative.xlsx,25,"Unterdrücken Sie alle aufkommenden Emotionen. Wenn Sie also die Bilder ansehen, verhalten Sie sich so, dass eine außenstehende Person nicht sehen kann, welche Emotionen Sie gerade empfinden.",,,,,,,,,0,1,1,2,0,3,3,10,,,,,4.0,,,,,,,,733.0934078149207,6.008263754130439,None,,,,,,,,,,B01J08,2022-11-21_15h24.51.062,t2_paradigm,2021.1.4,60.02435872993331,
5,,1,UNTERDRÜCKEN,,Stimuli/9180.jpg,,Trials/StimuliNegative.xlsx,25,"Unterdrücken Sie alle aufkommenden Emotionen. Wenn Sie also die Bilder ansehen, verhalten Sie sich so, dass eine außenstehende Person nicht sehen kann, welche Emotionen Sie gerade empfinden.",,,,,,,,,0,1,1,2,0,4,4,12,,,,,3.1,,,,,,,,742.2409034287602,5.997153109964074,None,,,,,,,,,,B01J08,2022-11-21_15h24.51.062,t2_paradigm,2021.1.4,60.02435872993331,
5,,1,UNTERDRÜCKEN,,Stimuli/3180.jpg,,Trials/StimuliNegative.xlsx,25,"Unterdrücken Sie alle aufkommenden Emotionen. Wenn Sie also die Bilder ansehen, verhalten Sie sich so, dass eine außenstehende Person nicht sehen kann, welche Emotionen Sie gerade empfinden.",,,,,,,,,0,1,1,2,0,5,5,7,,,,,3.0,,,,,,,,751.2760032991241,6.01051610247805,None,,,,,,,,,,B01J08,2022-11-21_15h24.51.062,t2_paradigm,2021.1.4,60.02435872993331,
5,,1,UNTERDRÜCKEN,,Stimuli/6190.jpg,,Trials/StimuliNegative.xlsx,25,"Unterdrücken Sie alle aufkommenden Emotionen. Wenn Sie also die Bilder ansehen, verhalten Sie sich so, dass eine außenstehende Person nicht sehen kann, welche Emotionen Sie gerade empfinden.",,,,,,,,,0,1,1,2,0,6,6,9,,,,,4.2,,,,,,,,761.5318108515007,6.014984195706802,None,,,,,,,,,,B01J08,2022-11-21_15h24.51.062,t2_paradigm,2021.1.4,60.02435872993331,
5,,1,UNTERDRÜCKEN,,Stimuli/255.jpg,,Trials/StimuliNegative.xlsx,25,"Unterdrücken Sie alle aufkommenden Emotionen. Wenn Sie also die Bilder ansehen, verhalten Sie sich so, dass eine außenstehende Person nicht sehen kann, welche Emotionen Sie gerade empfinden.",,,,,,,,,0,1,1,2,0,7,7,2,,,,,3.4,,,,,,,,770.9633339760062,6.00187790866903,None,,,,,,,,,,B01J08,2022-11-21_15h24.51.062,t2_paradigm,2021.1.4,60.02435872993331,
5,,1,UNTERDRÜCKEN,,Stimuli/327.jpg,,Trials/StimuliNegative.xlsx,25,"Unterdrücken Sie alle aufkommenden Emotionen. Wenn Sie also die Bilder ansehen, verhalten Sie sich so, dass eine außenstehende Person nicht sehen kann, welche Emotionen Sie gerade empfinden.",,,,,,,,,0,1,1,2,0,8,8,3,,,,,3.1,,,,,,,,780.0960441628376,6.003024453746548,None,,,,,,,,,,B01J08,2022-11-21_15h24.51.062,t2_paradigm,2021.1.4,60.02435872993331,
5,,1,UNTERDRÜCKEN,,Stimuli/6836.jpg,,Trials/StimuliNegative.xlsx,25,"Unterdrücken Sie alle aufkommenden Emotionen. Wenn Sie also die Bilder ansehen, verhalten Sie sich so, dass eine außenstehende Person nicht sehen kann, welche Emotionen Sie gerade empfinden.",,,,,,,,,0,1,1,2,0,9,9,11,,,,,4.1,,,,,,,,790.2553901894366,6.001867258054062,None,,,,,,,,,,B01J08,2022-11-21_15h24.51.062,t2_paradigm,2021.1.4,60.02435872993331,
5,,1,UNTERDRÜCKEN,,Stimuli/9425.jpg,,Trials/StimuliNegative.xlsx,25,"Unterdrücken Sie alle aufkommenden Emotionen. Wenn Sie also die Bilder ansehen, verhalten Sie sich so, dass eine außenstehende Person nicht sehen kann, welche Emotionen Sie gerade empfinden.",,,,,,,,,0,1,1,2,0,10,10,18,,,,,4.0,,,,,,,,800.2896075344761,6.00038133691578,None,,,,,,,,,,B01J08,2022-11-21_15h24.51.062,t2_paradigm,2021.1.4,60.02435872993331,
5,,1,UNTERDRÜCKEN,,Stimuli/1111.jpg,,Trials/StimuliNegative.xlsx,25,"Unterdrücken Sie alle aufkommenden Emotionen. Wenn Sie also die Bilder ansehen, verhalten Sie sich so, dass eine außenstehende Person nicht sehen kann, welche Emotionen Sie gerade empfinden.",,,,,,,,,0,1,1,2,0,11,11,4,,,,,3.1,,,,,,,,809.4184132444884,6.009352554912766,None,,,,,,,,,,B01J08,2022-11-21_15h24.51.062,t2_paradigm,2021.1.4,60.02435872993331,
5,,1,UNTERDRÜCKEN,,Stimuli/9253.jpg,,Trials/StimuliNegative.xlsx,25,"Unterdrücken Sie alle aufkommenden Emotionen. Wenn Sie also die Bilder ansehen, verhalten Sie sich so, dass eine außenstehende Person nicht sehen kann, welche Emotionen Sie gerade empfinden.",,,,,,,,,0,1,1,2,0,12,12,14,,,,,5.0,,,,,,,,820.4630171843819,6.003971428121986,None,,,,,,,,,,B01J08,2022-11-21_15h24.51.062,t2_paradigm,2021.1.4,60.02435872993331,
5,,1,UNTERDRÜCKEN,,Stimuli/230.jpg,,Trials/StimuliNegative.xlsx,25,"Unterdrücken Sie alle aufkommenden Emotionen. Wenn Sie also die Bilder ansehen, verhalten Sie sich so, dass eine außenstehende Person nicht sehen kann, welche Emotionen Sie gerade empfinden.",,,,,,,,,0,1,1,2,0,13,13,1,,,,,4.1,,,,,,,,830.6152635497792,6.014317249087526,None,,,,,,,,,,B01J08,2022-11-21_15h24.51.062,t2_paradigm,2021.1.4,60.02435872993331,
5,,1,UNTERDRÜCKEN,,Stimuli/225.jpg,,Trials/StimuliNegative.xlsx,25,"Unterdrücken Sie alle aufkommenden Emotionen. Wenn Sie also die Bilder ansehen, verhalten Sie sich so, dass eine außenstehende Person nicht sehen kann, welche Emotionen Sie gerade empfinden.",,,,,,,,,0,1,1,2,0,14,14,0,,,,,3.9,,,,,,,,840.551995370191,6.0078220102655,None,,,,,,,,,,B01J08,2022-11-21_15h24.51.062,t2_paradigm,2021.1.4,60.02435872993331,
5,,1,UNTERDRÜCKEN,,Stimuli/3017.jpg,,Trials/StimuliNegative.xlsx,25,"Unterdrücken Sie alle aufkommenden Emotionen. Wenn Sie also die Bilder ansehen, verhalten Sie sich so, dass eine außenstehende Person nicht sehen kann, welche Emotionen Sie gerade empfinden.",,,,,,,,,0,1,1,2,0,15,15,5,,,,,4.2,,,,,,,,850.8161726374806,6.012109460087686,None,,,,,,,,,,B01J08,2022-11-21_15h24.51.062,t2_paradigm,2021.1.4,60.02435872993331,
5,,1,UNTERDRÜCKEN,,Stimuli/9424.jpg,,Trials/StimuliNegative.xlsx,25,"Unterdrücken Sie alle aufkommenden Emotionen. Wenn Sie also die Bilder ansehen, verhalten Sie sich so, dass eine außenstehende Person nicht sehen kann, welche Emotionen Sie gerade empfinden.",,,,,,,,,0,1,1,2,0,16,16,17,,,,,4.2,,,,,,,,861.0653675055523,6.0147416696636355,None,,,,,,,,,,B01J08,2022-11-21_15h24.51.062,t2_paradigm,2021.1.4,60.02435872993331,
5,,1,UNTERDRÜCKEN,,Stimuli/9920.jpg,,Trials/StimuliNegative.xlsx,25,"Unterdrücken Sie alle aufkommenden Emotionen. Wenn Sie also die Bilder ansehen, verhalten Sie sich so, dass eine außenstehende Person nicht sehen kann, welche Emotionen Sie gerade empfinden.",,,,,,,,,0,1,1,2,0,17,17,19,,,,,4.9,,,,,,,,872.0182224958307,6.009560081496602,None,,,,,,,,,,B01J08,2022-11-21_15h24.51.062,t2_paradigm,2021.1.4,60.02435872993331,
5,,1,UNTERDRÜCKEN,,Stimuli/9326.jpg,,Trials/StimuliNegative.xlsx,25,"Unterdrücken Sie alle aufkommenden Emotionen. Wenn Sie also die Bilder ansehen, verhalten Sie sich so, dass eine außenstehende Person nicht sehen kann, welche Emotionen Sie gerade empfinden.",,,,,,,,,0,1,1,2,0,18,18,16,,,,,3.3,,,,,,,,881.3624805153104,6.003743017351553,None,,,,,,,,,,B01J08,2022-11-21_15h24.51.062,t2_paradigm,2021.1.4,60.02435872993331,
5,,1,UNTERDRÜCKEN,,Stimuli/9300.jpg,,Trials/StimuliNegative.xlsx,25,"Unterdrücken Sie alle aufkommenden Emotionen. Wenn Sie also die Bilder ansehen, verhalten Sie sich so, dass eine außenstehende Person nicht sehen kann, welche Emotionen Sie gerade empfinden.",,,,,,,,,0,1,1,2,0,19,19,15,,,,,3.5,,,,,,,,890.9149943009588,6.015123102819416,None,,,,,,,,,,B01J08,2022-11-21_15h24.51.062,t2_paradigm,2021.1.4,60.02435872993331,
5,,1,UNTERDRÜCKEN,,,,Trials/StimuliNegative.xlsx,25,"Unterdrücken Sie alle aufkommenden Emotionen. Wenn Sie also die Bilder ansehen, verhalten Sie sich so, dass eine außenstehende Person nicht sehen kann, welche Emotionen Sie gerade empfinden.",,,,,,,,,0,1,1,2,,,,,,,,,,,,,19.62962962962962,7.635439727626817,7.777777777777772,4.069742277582463,,,,357.40740740740745,1.5974154294685832,,,,,,,,B01J08,2022-11-21_15h24.51.062,t2_paradigm,2021.1.4,60.02435872993331,
4,,1,DISTANZIEREN,,Stimuli/8231.jpg,,Trials/StimuliNegative.xlsx,24,Nehmen Sie die Position eines uninvolvierten Beobachters ein. Denken Sie über das Bild in einer neutralen Weise nach.,,,,,,,,,0,2,2,1,0,0,0,13,,,,,5.0,,,,,,,,926.7983893191017,6.015349267979218,None,,,,,,,,,,B01J08,2022-11-21_15h24.51.062,t2_paradigm,2021.1.4,60.02435872993331,
4,,1,DISTANZIEREN,,Stimuli/3101.jpg,,Trials/StimuliNegative.xlsx,24,Nehmen Sie die Position eines uninvolvierten Beobachters ein. Denken Sie über das Bild in einer neutralen Weise nach.,,,,,,,,,0,2,2,1,0,1,1,5,,,,,3.4,,,,,,,,936.2427307149292,6.009788203546577,None,,,,,,,,,,B01J08,2022-11-21_15h24.51.062,t2_paradigm,2021.1.4,60.02435872993331,
4,,1,DISTANZIEREN,,Stimuli/223.jpg,,Trials/StimuliNegative.xlsx,24,Nehmen Sie die Position eines uninvolvierten Beobachters ein. Denken Sie über das Bild in einer neutralen Weise nach.,,,,,,,,,0,2,2,1,0,2,2,0,,,,,4.3,,,,,,,,946.5916349046306,6.011430387166456,None,,,,,,,,,,B01J08,2022-11-21_15h24.51.062,t2_paradigm,2021.1.4,60.02435872993331,
4,,1,DISTANZIEREN,,Stimuli/9373.jpg,,Trials/StimuliNegative.xlsx,24,Nehmen Sie die Position eines uninvolvierten Beobachters ein. Denken Sie über das Bild in einer neutralen Weise nach.,,,,,,,,,0,2,2,1,0,3,3,14,,,,,3.7,,,,,,,,956.3489404402876,6.0147102311025264,None,,,,,,,,,,B01J08,2022-11-21_15h24.51.062,t2_paradigm,2021.1.4,60.02435872993331,
4,,1,DISTANZIEREN,,Stimuli/9405.jpg,,Trials/StimuliNegative.xlsx,24,Nehmen Sie die Position eines uninvolvierten Beobachters ein. Denken Sie über das Bild in einer neutralen Weise nach.,,,,,,,,,0,2,2,1,0,4,4,18,,,,,4.9,,,,,,,,967.3032380755626,6.005983463958728,None,,,,,,,,,,B01J08,2022-11-21_15h24.51.062,t2_paradigm,2021.1.4,60.02435872993331,
4,,1,DISTANZIEREN,,Stimuli/9423.jpg,,Trials/StimuliNegative.xlsx,24,Nehmen Sie die Position eines uninvolvierten Beobachters ein. Denken Sie über das Bild in einer neutralen Weise nach.,,,,,,,,,0,2,2,1,0,5,5,19,,,,,3.7,,,,,,,,977.044814706574,6.0066905428639075,None,,,,,,,,,,B01J08,2022-11-21_15h24.51.062,t2_paradigm,2021.1.4,60.02435872993331,
4,,1,DISTANZIEREN,,Stimuli/6020.jpg,,Trials/StimuliNegative.xlsx,24,Nehmen Sie die Position eines uninvolvierten Beobachters ein. Denken Sie über das Bild in einer neutralen Weise nach.,,,,,,,,,0,2,2,1,0,6,6,10,,,,,3.8,,,,,,,,986.8918988281439,6.011740281554921,None,,,,,,,,,,B01J08,2022-11-21_15h24.51.062,t2_paradigm,2021.1.4,60.02435872993331,
4,,1,DISTANZIEREN,,Stimuli/9400.jpg,,Trials/StimuliNegative.xlsx,24,Nehmen Sie die Position eines uninvolvierten Beobachters ein. Denken Sie über das Bild in einer neutralen Weise nach.,,,,,,,,,0,2,2,1,0,7,7,15,,,,,3.3,,,,,,,,996.2497261155959,6.01277836359759,None,,,,,,,,,,B01J08,2022-11-21_15h24.51.062,t2_paradigm,2021.1.4,60.02435872993331,
4,,1,DISTANZIEREN,,Stimuli/3225.jpg,,Trials/StimuliNegative.xlsx,24,Nehmen Sie die Position eines uninvolvierten Beobachters ein. Denken Sie über das Bild in einer neutralen Weise nach.,,,,,,,,,0,2,2,1,0,8,8,9,,,,,4.5,,,,,,,,1006.7911793021349,6.0124832581641385,None,,,,,,,,,,B01J08,2022-11-21_15h24.51.062,t2_paradigm,2021.1.4,60.02435872993331,
4,,1,DISTANZIEREN,,Stimuli/245.jpg,,Trials/StimuliNegative.xlsx,24,Nehmen Sie die Position eines uninvolvierten Beobachters ein. Denken Sie über das Bild in einer neutralen Weise nach.,,,,,,,,,0,2,2,1,0,9,9,2,,,,,4.2,,,,,,,,1017.0457376529062,6.003081524359459,None,,,,,,,,,,B01J08,2022-11-21_15h24.51.062,t2_paradigm,2021.1.4,60.02435872993331,
4,,1,DISTANZIEREN,,Stimuli/238.jpg,,Trials/StimuliNegative.xlsx,24,Nehmen Sie die Position eines uninvolvierten Beobachters ein. Denken Sie über das Bild in einer neutralen Weise nach.,,,,,,,,,0,2,2,1,0,10,10,1,,,,,4.7,,,,,,,,1027.7919209955376,6.010990568111083,None,,,,,,,,,,B01J08,2022-11-21_15h24.51.062,t2_paradigm,2021.1.4,60.02435872993331,
4,,1,DISTANZIEREN,,Stimuli/3016.jpg,,Trials/StimuliNegative.xlsx,24,Nehmen Sie die Position eines uninvolvierten Beobachters ein. Denken Sie über das Bild in einer neutralen Weise nach.,,,,,,,,,0,2,2,1,0,11,11,4,,,,,4.2,,,,,,,,1038.0553212812433,6.000999489604055,None,,,,,,,,,,B01J08,2022-11-21_15h24.51.062,t2_paradigm,2021.1.4,60.02435872993331,
4,,1,DISTANZIEREN,,Stimuli/9403.jpg,,Trials/StimuliNegative.xlsx,24,Nehmen Sie die Position eines uninvolvierten Beobachters ein. Denken Sie über das Bild in einer neutralen Weise nach.,,,,,,,,,0,2,2,1,0,12,12,17,,,,,3.1,,,,,,,,1047.1915092787067,6.012688571216586,None,,,,,,,,,,B01J08,2022-11-21_15h24.51.062,t2_paradigm,2021.1.4,60.02435872993331,
4,,1,DISTANZIEREN,,Stimuli/2981.jpg,,Trials/StimuliNegative.xlsx,24,Nehmen Sie die Position eines uninvolvierten Beobachters ein. Denken Sie über das Bild in einer neutralen Weise nach.,,,,,,,,,0,2,2,1,0,13,13,3,,,,,4.8,,,,,,,,1058.0393357352823,6.000082349782133,None,,,,,,,,,,B01J08,2022-11-21_15h24.51.062,t2_paradigm,2021.1.4,60.02435872993331,
4,,1,DISTANZIEREN,,Stimuli/6571.jpg,,Trials/StimuliNegative.xlsx,24,Nehmen Sie die Position eines uninvolvierten Beobachters ein. Denken Sie über das Bild in einer neutralen Weise nach.,,,,,,,,,0,2,2,1,0,14,14,11,,,,,4.3,,,,,,,,1068.3809442539778,6.016320334557349,None,,,,,,,,,,B01J08,2022-11-21_15h24.51.062,t2_paradigm,2021.1.4,60.02435872993331,
4,,1,DISTANZIEREN,,Stimuli/3215.jpg,,Trials/StimuliNegative.xlsx,24,Nehmen Sie die Position eines uninvolvierten Beobachters ein. Denken Sie über das Bild in einer neutralen Weise nach.,,,,,,,,,0,2,2,1,0,15,15,7,,,,,4.2,,,,,,,,1078.632522999072,6.012343356567271,None,,,,,,,,,,B01J08,2022-11-21_15h24.51.062,t2_paradigm,2021.1.4,60.02435872993331,
4,,1,DISTANZIEREN,,Stimuli/9402.jpg,,Trials/StimuliNegative.xlsx,24,Nehmen Sie die Position eines uninvolvierten Beobachters ein. Denken Sie über das Bild in einer neutralen Weise nach.,,,,,,,,,0,2,2,1,0,16,16,16,,,,,3.9,,,,,,,,1088.58131728213,6.016146139264038,None,,,,,,,,,,B01J08,2022-11-21_15h24.51.062,t2_paradigm,2021.1.4,60.02435872993331,
4,,1,DISTANZIEREN,,Stimuli/3181.jpg,,Trials/StimuliNegative.xlsx,24,Nehmen Sie die Position eines uninvolvierten Beobachters ein. Denken Sie über das Bild in einer neutralen Weise nach.,,,,,,,,,0,2,2,1,0,17,17,6,,,,,4.3,,,,,,,,1098.928681303135,6.004223899016324,None,,,,,,,,,,B01J08,2022-11-21_15h24.51.062,t2_paradigm,2021.1.4,60.02435872993331,
4,,1,DISTANZIEREN,,Stimuli/6831.jpg,,Trials/StimuliNegative.xlsx,24,Nehmen Sie die Position eines uninvolvierten Beobachters ein. Denken Sie über das Bild in einer neutralen Weise nach.,,,,,,,,,0,2,2,1,0,18,18,12,,,,,3.4,,,,,,,,1108.375307769078,6.010006669466293,None,,,,,,,,,,B01J08,2022-11-21_15h24.51.062,t2_paradigm,2021.1.4,60.02435872993331,
4,,1,DISTANZIEREN,,Stimuli/3220.jpg,,Trials/StimuliNegative.xlsx,24,Nehmen Sie die Position eines uninvolvierten Beobachters ein. Denken Sie über das Bild in einer neutralen Weise nach.,,,,,,,,,0,2,2,1,0,19,19,8,,,,,4.5,,,,,,,,1118.9316628336219,6.01408402629113,None,,,,,,,,,,B01J08,2022-11-21_15h24.51.062,t2_paradigm,2021.1.4,60.02435872993331,
4,,1,DISTANZIEREN,,,,Trials/StimuliNegative.xlsx,24,Nehmen Sie die Position eines uninvolvierten Beobachters ein. Denken Sie über das Bild in einer neutralen Weise nach.,,,,,,,,,0,2,2,1,,,,,,,,,,,,,17.777777777777782,4.452103833226829,297.037037037037,4.802787830453781,,,,156.66666666666666,2.786981933413699,,,,,,,,B01J08,2022-11-21_15h24.51.062,t2_paradigm,2021.1.4,60.02435872993331,
,,,,,,,,,,,,,,,,,,,,,,,,,,,,,,,,,,,,,,,,,,,3,13.825401779999993,,,,,,B01J08,2022-11-21_15h24.51.062,t2_paradigm,2021.1.4,60.02435872993331,
,,,,,,,,,,,,,,,,,,,,,,,,,,,,,,,,,,,,,,,,,,,,,space,9.647092526572578,,,,B01J08,2022-11-21_15h24.51.062,t2_paradigm,2021.1.4,60.02435872993331,
,,,,,Stimuli/9160.jpg,,,,,,,,,,,,,,,,,,,,,0,0,0,17,4.2,,,,,,,,,,,,,,,,,1257.0899790869407,5.998938339036158,None,B01J08,2022-11-21_15h24.51.062,t2_paradigm,2021.1.4,60.02435872993331,
,,,,,Stimuli/9031.jpg,,,,,,,,,,,,,,,,,,,,,0,1,1,12,3.5,,,,,,,,,,,,,,,,,1266.635103527503,6.008555972348404,None,B01J08,2022-11-21_15h24.51.062,t2_paradigm,2021.1.4,60.02435872993331,
,,,,,Stimuli/222.jpg,,,,,,,,,,,,,,,,,,,,,0,2,2,2,4.0,,,,,,,,,,,,,,,,,1276.6715360078997,6.001272203082863,None,B01J08,2022-11-21_15h24.51.062,t2_paradigm,2021.1.4,60.02435872993331,
,,,,,Stimuli/251.jpg,,,,,,,,,,,,,,,,,,,,,0,3,3,5,3.7,,,,,,,,,,,,,,,,,1286.4072098886468,5.996116599849302,None,B01J08,2022-11-21_15h24.51.062,t2_paradigm,2021.1.4,60.02435872993331,
,,,,,Stimuli/228.jpg,,,,,,,,,,,,,,,,,,,,,0,4,4,3,3.5,,,,,,,,,,,,,,,,,1295.9390127201063,5.9997098990725135,None,B01J08,2022-11-21_15h24.51.062,t2_paradigm,2021.1.4,60.02435872993331,
,,,,,Stimuli/6562.jpg,,,,,,,,,,,,,,,,,,,,,0,5,5,11,4.9,,,,,,,,,,,,,,,,,1306.8903179176382,5.9969660505244065,None,B01J08,2022-11-21_15h24.51.062,t2_paradigm,2021.1.4,60.02435872993331,
,,,,,Stimuli/9040.jpg,,,,,,,,,,,,,,,,,,,,,0,6,6,13,3.1,,,,,,,,,,,,,,,,,1316.027418595781,6.007427103440023,None,B01J08,2022-11-21_15h24.51.062,t2_paradigm,2021.1.4,60.02435872993331,
,,,,,Stimuli/3185.jpg,,,,,,,,,,,,,,,,,,,,,0,7,7,9,3.9,,,,,,,,,,,,,,,,,1325.9643226866756,6.014823506162884,None,B01J08,2022-11-21_15h24.51.062,t2_paradigm,2021.1.4,60.02435872993331,
,,,,,Stimuli/210.jpg,,,,,,,,,,,,,,,,,,,,,0,8,8,0,3.4,,,,,,,,,,,,,,,,,1335.4118852518186,6.003140551862998,None,B01J08,2022-11-21_15h24.51.062,t2_paradigm,2021.1.4,60.02435872993331,
,,,,,Stimuli/9042.jpg,,,,,,,,,,,,,,,,,,,,,0,9,9,14,3.6,,,,,,,,,,,,,,,,,1345.0544438887446,6.002184883761402,None,B01J08,2022-11-21_15h24.51.062,t2_paradigm,2021.1.4,60.02435872993331,
,,,,,Stimuli/9145.jpg,,,,,,,,,,,,,,,,,,,,,0,10,10,16,3.5,,,,,,,,,,,,,,,,,1354.6010007086506,6.0092017460592615,None,B01J08,2022-11-21_15h24.51.062,t2_paradigm,2021.1.4,60.02435872993331,
,,,,,Stimuli/9043.jpg,,,,,,,,,,,,,,,,,,,,,0,11,11,15,3.0,,,,,,,,,,,,,,,,,1363.6538457219976,6.0041234560212615,None,B01J08,2022-11-21_15h24.51.062,t2_paradigm,2021.1.4,60.02435872993331,
,,,,,Stimuli/218.jpg,,,,,,,,,,,,,,,,,,,,,0,12,12,1,3.7,,,,,,,,,,,,,,,,,1373.3941638481574,6.005696699368855,None,B01J08,2022-11-21_15h24.51.062,t2_paradigm,2021.1.4,60.02435872993331,
,,,,,Stimuli/2703.jpg,,,,,,,,,,,,,,,,,,,,,0,13,13,6,3.1,,,,,,,,,,,,,,,,,1382.5405741900322,5.996925019993796,None,B01J08,2022-11-21_15h24.51.062,t2_paradigm,2021.1.4,60.02435872993331,
,,,,,Stimuli/3051.jpg,,,,,,,,,,,,,,,,,,,,,0,14,14,7,4.8,,,,,,,,,,,,,,,,,1393.3794011980663,6.002367419898292,None,B01J08,2022-11-21_15h24.51.062,t2_paradigm,2021.1.4,60.02435872993331,
,,,,,Stimuli/246.jpg,,,,,,,,,,,,,,,,,,,,,0,15,15,4,3.5,,,,,,,,,,,,,,,,,1402.9227134301364,5.9982707828939965,None,B01J08,2022-11-21_15h24.51.062,t2_paradigm,2021.1.4,60.02435872993331,
,,,,,Stimuli/3301.jpg,,,,,,,,,,,,,,,,,,,,,0,16,16,10,4.4,,,,,,,,,,,,,,,,,1413.3626765251156,6.000631241397059,None,B01J08,2022-11-21_15h24.51.062,t2_paradigm,2021.1.4,60.02435872993331,
,,,,,Stimuli/3160.jpg,,,,,,,,,,,,,,,,,,,,,0,17,17,8,4.6,,,,,,,,,,,,,,,,,1424.0154520528258,6.013366713812502,None,B01J08,2022-11-21_15h24.51.062,t2_paradigm,2021.1.4,60.02435872993331,
,,,,,Stimuli/9904.jpg,,,,,,,,,,,,,,,,,,,,,0,18,18,19,3.7,,,,,,,,,,,,,,,,,1433.7644366354198,6.015520576056588,None,B01J08,2022-11-21_15h24.51.062,t2_paradigm,2021.1.4,60.02435872993331,
,,,,,Stimuli/9184.jpg,,,,,,,,,,,,,,,,,,,,,0,19,19,18,3.8,,,,,,,,,,,,,,,,,1443.604914809519,6.001743139896462,None,B01J08,2022-11-21_15h24.51.062,t2_paradigm,2021.1.4,60.02435872993331,
,,,,,,,,,,,,,,,,,,,,,,,,,,,,,,,,,,11.481481481481492,3.9681848176769563,62.962962962962955,2.4693953626838265,,,,326.2962962962963,2.5340083427672653,,,,,,,,B01J08,2022-11-21_15h24.51.062,t2_paradigm,2021.1.4,60.02435872993331,
