Block,conds_view_File,n_reps,instr_1,TriggerBlockView,ImageFile,Trigger,conds_reg_File,TriggerBlockReg,instr_2,blocks_view.thisRepN,blocks_view.thisTrialN,blocks_view.thisN,blocks_view.thisIndex,trials_view.thisRepN,trials_view.thisTrialN,trials_view.thisN,trials_view.thisIndex,blocks_reg.thisRepN,blocks_reg.thisTrialN,blocks_reg.thisN,blocks_reg.thisIndex,trials_reg.thisRepN,trials_reg.thisTrialN,trials_reg.thisN,trials_reg.thisIndex,trials_choice.thisRepN,trials_choice.thisTrialN,trials_choice.thisN,trials_choice.thisIndex,Fix_jitter,image_view.started,image_view.lasted,image_view.stopped,slider_arousal.response,slider_arousal.rt,slider_effort.response,slider_effort.rt,image_reg.started,image_reg.lasted,image_reg.stopped,slider_utility.response,slider_utility.rt,resp_choice.keys,resp_choice.rt,key_resp.keys,key_resp.rt,image.started,image.lased,image.stopped,participant,date,expName,psychopyVersion,frameRate,
,,,,,,,,,,,,,,,,,,,,,,,,,,,,,,,,,,,,,,,,,,,,,,,,,,B02L10,2022-11-24_09h41.34.839,t2_paradigm,2021.1.4,59.6856786171122,
1,Trials/StimuliNeutral.xlsx,1,ANSCHAUEN,21,Stimuli/7100.jpg,1,,,,0,0,0,0,0,0,0,13,,,,,,,,,,,,,4.1,110.31353667018266,6.043389563427354,None,,,,,,,,,,,,,,,,,B02L10,2022-11-24_09h41.34.839,t2_paradigm,2021.1.4,59.6856786171122,
1,Trials/StimuliNeutral.xlsx,1,ANSCHAUEN,21,Stimuli/7233.jpg,1,,,,0,0,0,0,0,1,1,18,,,,,,,,,,,,,3.7,120.05466843235854,6.011490052585486,None,,,,,,,,,,,,,,,,,B02L10,2022-11-24_09h41.34.839,t2_paradigm,2021.1.4,59.6856786171122,
1,Trials/StimuliNeutral.xlsx,1,ANSCHAUEN,21,Stimuli/107.jpg,1,,,,0,0,0,0,0,2,2,1,,,,,,,,,,,,,3.7,129.79060641757087,5.999737488098162,None,,,,,,,,,,,,,,,,,B02L10,2022-11-24_09h41.34.839,t2_paradigm,2021.1.4,59.6856786171122,
1,Trials/StimuliNeutral.xlsx,1,ANSCHAUEN,21,Stimuli/7009.jpg,1,,,,0,0,0,0,0,3,3,9,,,,,,,,,,,,,3.5,139.32147811235245,6.002616040333578,None,,,,,,,,,,,,,,,,,B02L10,2022-11-24_09h41.34.839,t2_paradigm,2021.1.4,59.6856786171122,
1,Trials/StimuliNeutral.xlsx,1,ANSCHAUEN,21,Stimuli/083.jpg,1,,,,0,0,0,0,0,4,4,0,,,,,,,,,,,,,3.4,148.7579934120199,6.009524180736662,None,,,,,,,,,,,,,,,,,B02L10,2022-11-24_09h41.34.839,t2_paradigm,2021.1.4,59.6856786171122,
1,Trials/StimuliNeutral.xlsx,1,ANSCHAUEN,21,Stimuli/143.jpg,1,,,,0,0,0,0,0,5,5,4,,,,,,,,,,,,,4.3,159.1088957625966,6.003933893067824,None,,,,,,,,,,,,,,,,,B02L10,2022-11-24_09h41.34.839,t2_paradigm,2021.1.4,59.6856786171122,
1,Trials/StimuliNeutral.xlsx,1,ANSCHAUEN,21,Stimuli/7211.jpg,1,,,,0,0,0,0,0,6,6,16,,,,,,,,,,,,,3.3,168.48245664687965,6.004841729351483,None,,,,,,,,,,,,,,,,,B02L10,2022-11-24_09h41.34.839,t2_paradigm,2021.1.4,59.6856786171122,
1,Trials/StimuliNeutral.xlsx,1,ANSCHAUEN,21,Stimuli/7025.jpg,1,,,,0,0,0,0,0,7,7,11,,,,,,,,,,,,,4.5,179.01379510790503,6.003368640750978,None,,,,,,,,,,,,,,,,,B02L10,2022-11-24_09h41.34.839,t2_paradigm,2021.1.4,59.6856786171122,
1,Trials/StimuliNeutral.xlsx,1,ANSCHAUEN,21,Stimuli/7002.jpg,1,,,,0,0,0,0,0,8,8,6,,,,,,,,,,,,,4.4,189.44377054733877,6.008085065020168,None,,,,,,,,,,,,,,,,,B02L10,2022-11-24_09h41.34.839,t2_paradigm,2021.1.4,59.6856786171122,
1,Trials/StimuliNeutral.xlsx,1,ANSCHAUEN,21,Stimuli/7041.jpg,1,,,,0,0,0,0,0,9,9,12,,,,,,,,,,,,,3.9,199.39364113599686,6.005352445406061,None,,,,,,,,,,,,,,,,,B02L10,2022-11-24_09h41.34.839,t2_paradigm,2021.1.4,59.6856786171122,
1,Trials/StimuliNeutral.xlsx,1,ANSCHAUEN,21,Stimuli/7006.jpg,1,,,,0,0,0,0,0,10,10,8,,,,,,,,,,,,,4.4,209.8507509322494,6.004239616936957,None,,,,,,,,,,,,,,,,,B02L10,2022-11-24_09h41.34.839,t2_paradigm,2021.1.4,59.6856786171122,
1,Trials/StimuliNeutral.xlsx,1,ANSCHAUEN,21,Stimuli/7185.jpg,1,,,,0,0,0,0,0,11,11,15,,,,,,,,,,,,,3.1,219.00033106719138,6.001751159376454,None,,,,,,,,,,,,,,,,,B02L10,2022-11-24_09h41.34.839,t2_paradigm,2021.1.4,59.6856786171122,
1,Trials/StimuliNeutral.xlsx,1,ANSCHAUEN,21,Stimuli/7004.jpg,1,,,,0,0,0,0,0,12,12,7,,,,,,,,,,,,,3.7,228.74957654196487,6.000288304345759,None,,,,,,,,,,,,,,,,,B02L10,2022-11-24_09h41.34.839,t2_paradigm,2021.1.4,59.6856786171122,
1,Trials/StimuliNeutral.xlsx,1,ANSCHAUEN,21,Stimuli/7000.jpg,1,,,,0,0,0,0,0,13,13,5,,,,,,,,,,,,,4.2,238.9858359703221,6.006959372409256,None,,,,,,,,,,,,,,,,,B02L10,2022-11-24_09h41.34.839,t2_paradigm,2021.1.4,59.6856786171122,
1,Trials/StimuliNeutral.xlsx,1,ANSCHAUEN,21,Stimuli/124.jpg,1,,,,0,0,0,0,0,14,14,2,,,,,,,,,,,,,4.7,249.73146569091705,6.011103486727734,None,,,,,,,,,,,,,,,,,B02L10,2022-11-24_09h41.34.839,t2_paradigm,2021.1.4,59.6856786171122,
1,Trials/StimuliNeutral.xlsx,1,ANSCHAUEN,21,Stimuli/7150.jpg,1,,,,0,0,0,0,0,15,15,14,,,,,,,,,,,,,3.6,259.3836436767451,6.003978452401498,None,,,,,,,,,,,,,,,,,B02L10,2022-11-24_09h41.34.839,t2_paradigm,2021.1.4,59.6856786171122,
1,Trials/StimuliNeutral.xlsx,1,ANSCHAUEN,21,Stimuli/7224.jpg,1,,,,0,0,0,0,0,16,16,17,,,,,,,,,,,,,4.7,270.14467379616053,6.0113655495079,None,,,,,,,,,,,,,,,,,B02L10,2022-11-24_09h41.34.839,t2_paradigm,2021.1.4,59.6856786171122,
1,Trials/StimuliNeutral.xlsx,1,ANSCHAUEN,21,Stimuli/7235.jpg,1,,,,0,0,0,0,0,17,17,19,,,,,,,,,,,,,4.1,280.2802589638368,6.003537382362083,None,,,,,,,,,,,,,,,,,B02L10,2022-11-24_09h41.34.839,t2_paradigm,2021.1.4,59.6856786171122,
1,Trials/StimuliNeutral.xlsx,1,ANSCHAUEN,21,Stimuli/7021.jpg,1,,,,0,0,0,0,0,18,18,10,,,,,,,,,,,,,4.1,290.4133126865463,6.002113665118941,None,,,,,,,,,,,,,,,,,B02L10,2022-11-24_09h41.34.839,t2_paradigm,2021.1.4,59.6856786171122,
1,Trials/StimuliNeutral.xlsx,1,ANSCHAUEN,21,Stimuli/140.jpg,1,,,,0,0,0,0,0,19,19,3,,,,,,,,,,,,,3.6,300.0633217331497,6.014274257087436,None,,,,,,,,,,,,,,,,,B02L10,2022-11-24_09h41.34.839,t2_paradigm,2021.1.4,59.6856786171122,
1,Trials/StimuliNeutral.xlsx,1,ANSCHAUEN,21,,,,,,0,0,0,0,,,,,,,,,,,,,,,,,,,,,0.33333333333334103,6.484819350235739,14.333333333333332,5.587763923428611,,,,,,,,,,,,,B02L10,2022-11-24_09h41.34.839,t2_paradigm,2021.1.4,59.6856786171122,
2,Trials/StimuliNegative.xlsx,1,ANSCHAUEN,22,Stimuli/3017.jpg,,,,,0,1,1,1,0,0,0,5,,,,,,,,,,,,,4.0,336.30764065864423,6.012532946318061,None,,,,,,,,,,,,,,,,,B02L10,2022-11-24_09h41.34.839,t2_paradigm,2021.1.4,59.6856786171122,
2,Trials/StimuliNegative.xlsx,1,ANSCHAUEN,22,Stimuli/1111.jpg,,,,,0,1,1,1,0,1,1,4,,,,,,,,,,,,,3.6,345.9511172234502,6.008288132395592,None,,,,,,,,,,,,,,,,,B02L10,2022-11-24_09h41.34.839,t2_paradigm,2021.1.4,59.6856786171122,
2,Trials/StimuliNegative.xlsx,1,ANSCHAUEN,22,Stimuli/6244.jpg,,,,,0,1,1,1,0,2,2,10,,,,,,,,,,,,,4.0,355.9811140924271,6.0097019047912,None,,,,,,,,,,,,,,,,,B02L10,2022-11-24_09h41.34.839,t2_paradigm,2021.1.4,59.6856786171122,
2,Trials/StimuliNegative.xlsx,1,ANSCHAUEN,22,Stimuli/327.jpg,,,,,0,1,1,1,0,3,3,3,,,,,,,,,,,,,4.8,366.8276336523386,6.012492525323978,None,,,,,,,,,,,,,,,,,B02L10,2022-11-24_09h41.34.839,t2_paradigm,2021.1.4,59.6856786171122,
2,Trials/StimuliNegative.xlsx,1,ANSCHAUEN,22,Stimuli/255.jpg,,,,,0,1,1,1,0,4,4,2,,,,,,,,,,,,,4.3,377.1867238206696,6.007655190953756,None,,,,,,,,,,,,,,,,,B02L10,2022-11-24_09h41.34.839,t2_paradigm,2021.1.4,59.6856786171122,
2,Trials/StimuliNegative.xlsx,1,ANSCHAUEN,22,Stimuli/9920.jpg,,,,,0,1,1,1,0,5,5,19,,,,,,,,,,,,,4.6,387.8461499965356,6.002906654450271,None,,,,,,,,,,,,,,,,,B02L10,2022-11-24_09h41.34.839,t2_paradigm,2021.1.4,59.6856786171122,
2,Trials/StimuliNegative.xlsx,1,ANSCHAUEN,22,Stimuli/9253.jpg,,,,,0,1,1,1,0,6,6,14,,,,,,,,,,,,,4.2,398.112293371727,6.001054025546182,None,,,,,,,,,,,,,,,,,B02L10,2022-11-24_09h41.34.839,t2_paradigm,2021.1.4,59.6856786171122,
2,Trials/StimuliNegative.xlsx,1,ANSCHAUEN,22,Stimuli/9326.jpg,,,,,0,1,1,1,0,7,7,16,,,,,,,,,,,,,4.1,408.250009944848,6.004261110640982,None,,,,,,,,,,,,,,,,,B02L10,2022-11-24_09h41.34.839,t2_paradigm,2021.1.4,59.6856786171122,
2,Trials/StimuliNegative.xlsx,1,ANSCHAUEN,22,Stimuli/9425.jpg,,,,,0,1,1,1,0,8,8,18,,,,,,,,,,,,,4.9,419.21418507425915,6.005953017972388,None,,,,,,,,,,,,,,,,,B02L10,2022-11-24_09h41.34.839,t2_paradigm,2021.1.4,59.6856786171122,
2,Trials/StimuliNegative.xlsx,1,ANSCHAUEN,22,Stimuli/9300.jpg,,,,,0,1,1,1,0,9,9,15,,,,,,,,,,,,,3.7,428.96369168148794,6.003183859063029,None,,,,,,,,,,,,,,,,,B02L10,2022-11-24_09h41.34.839,t2_paradigm,2021.1.4,59.6856786171122,
2,Trials/StimuliNegative.xlsx,1,ANSCHAUEN,22,Stimuli/9424.jpg,,,,,0,1,1,1,0,10,10,17,,,,,,,,,,,,,4.4,439.41475757669104,6.015192711902273,None,,,,,,,,,,,,,,,,,B02L10,2022-11-24_09h41.34.839,t2_paradigm,2021.1.4,59.6856786171122,
2,Trials/StimuliNegative.xlsx,1,ANSCHAUEN,22,Stimuli/9180.jpg,,,,,0,1,1,1,0,11,11,12,,,,,,,,,,,,,4.6,450.0753508285661,6.0054099009621495,None,,,,,,,,,,,,,,,,,B02L10,2022-11-24_09h41.34.839,t2_paradigm,2021.1.4,59.6856786171122,
2,Trials/StimuliNegative.xlsx,1,ANSCHAUEN,22,Stimuli/3022.jpg,,,,,0,1,1,1,0,12,12,6,,,,,,,,,,,,,3.6,459.7179945925691,6.001640482845687,None,,,,,,,,,,,,,,,,,B02L10,2022-11-24_09h41.34.839,t2_paradigm,2021.1.4,59.6856786171122,
2,Trials/StimuliNegative.xlsx,1,ANSCHAUEN,22,Stimuli/230.jpg,,,,,0,1,1,1,0,13,13,1,,,,,,,,,,,,,4.9,470.66439667495615,6.003636477958935,None,,,,,,,,,,,,,,,,,B02L10,2022-11-24_09h41.34.839,t2_paradigm,2021.1.4,59.6856786171122,
2,Trials/StimuliNegative.xlsx,1,ANSCHAUEN,22,Stimuli/6836.jpg,,,,,0,1,1,1,0,14,14,11,,,,,,,,,,,,,4.4,481.1100801618895,6.009308890822467,None,,,,,,,,,,,,,,,,,B02L10,2022-11-24_09h41.34.839,t2_paradigm,2021.1.4,59.6856786171122,
2,Trials/StimuliNegative.xlsx,1,ANSCHAUEN,22,Stimuli/9182.jpg,,,,,0,1,1,1,0,15,15,13,,,,,,,,,,,,,3.5,490.65678245035906,6.014266237049924,None,,,,,,,,,,,,,,,,,B02L10,2022-11-24_09h41.34.839,t2_paradigm,2021.1.4,59.6856786171122,
2,Trials/StimuliNegative.xlsx,1,ANSCHAUEN,22,Stimuli/6190.jpg,,,,,0,1,1,1,0,16,16,9,,,,,,,,,,,,,3.2,499.9152140772849,6.008438267516794,None,,,,,,,,,,,,,,,,,B02L10,2022-11-24_09h41.34.839,t2_paradigm,2021.1.4,59.6856786171122,
2,Trials/StimuliNegative.xlsx,1,ANSCHAUEN,22,Stimuli/225.jpg,,,,,0,1,1,1,0,17,17,0,,,,,,,,,,,,,4.7,510.65984321787073,5.999265268228555,None,,,,,,,,,,,,,,,,,B02L10,2022-11-24_09h41.34.839,t2_paradigm,2021.1.4,59.6856786171122,
2,Trials/StimuliNegative.xlsx,1,ANSCHAUEN,22,Stimuli/3180.jpg,,,,,0,1,1,1,0,18,18,7,,,,,,,,,,,,,3.4,520.1020421584553,6.012058160036759,None,,,,,,,,,,,,,,,,,B02L10,2022-11-24_09h41.34.839,t2_paradigm,2021.1.4,59.6856786171122,
2,Trials/StimuliNegative.xlsx,1,ANSCHAUEN,22,Stimuli/3280.jpg,,,,,0,1,1,1,0,19,19,8,,,,,,,,,,,,,4.4,530.5584651186073,6.012241048995747,None,,,,,,,,,,,,,,,,,B02L10,2022-11-24_09h41.34.839,t2_paradigm,2021.1.4,59.6856786171122,
2,Trials/StimuliNegative.xlsx,1,ANSCHAUEN,22,,,,,,0,1,1,1,,,,,,,,,,,,,,,,,,,,,119.66666666666667,9.85146631968837,73.0,6.4367581464348405,,,,,,,,,,,,,B02L10,2022-11-24_09h41.34.839,t2_paradigm,2021.1.4,59.6856786171122,
3,,1,ABLENKEN,,Stimuli/245.jpg,,Trials/StimuliNegative.xlsx,23,"Denken Sie während des Betrachtens der Bilder an etwas Neutrales, das mit dem Bild nichts zu tun hat. Das könnten geometrische Figuren, Alltagstätigkeiten oder bekannte Orte sein.",,,,,,,,,0,0,0,0,0,0,0,2,,,,,5.0,,,,,,,,562.8433067324695,6.014394557666492,None,,,,,,,,,,B02L10,2022-11-24_09h41.34.839,t2_paradigm,2021.1.4,59.6856786171122,
3,,1,ABLENKEN,,Stimuli/9423.jpg,,Trials/StimuliNegative.xlsx,23,"Denken Sie während des Betrachtens der Bilder an etwas Neutrales, das mit dem Bild nichts zu tun hat. Das könnten geometrische Figuren, Alltagstätigkeiten oder bekannte Orte sein.",,,,,,,,,0,0,0,0,0,1,1,19,,,,,4.5,,,,,,,,573.3961780345899,6.007334357331274,None,,,,,,,,,,B02L10,2022-11-24_09h41.34.839,t2_paradigm,2021.1.4,59.6856786171122,
3,,1,ABLENKEN,,Stimuli/3101.jpg,,Trials/StimuliNegative.xlsx,23,"Denken Sie während des Betrachtens der Bilder an etwas Neutrales, das mit dem Bild nichts zu tun hat. Das könnten geometrische Figuren, Alltagstätigkeiten oder bekannte Orte sein.",,,,,,,,,0,0,0,0,0,2,2,5,,,,,4.2,,,,,,,,583.6317743661602,6.013748816242696,None,,,,,,,,,,B02L10,2022-11-24_09h41.34.839,t2_paradigm,2021.1.4,59.6856786171122,
3,,1,ABLENKEN,,Stimuli/3016.jpg,,Trials/StimuliNegative.xlsx,23,"Denken Sie während des Betrachtens der Bilder an etwas Neutrales, das mit dem Bild nichts zu tun hat. Das könnten geometrische Figuren, Alltagstätigkeiten oder bekannte Orte sein.",,,,,,,,,0,0,0,0,0,3,3,4,,,,,4.7,,,,,,,,594.3952210835905,6.0001708909812805,None,,,,,,,,,,B02L10,2022-11-24_09h41.34.839,t2_paradigm,2021.1.4,59.6856786171122,
3,,1,ABLENKEN,,Stimuli/223.jpg,,Trials/StimuliNegative.xlsx,23,"Denken Sie während des Betrachtens der Bilder an etwas Neutrales, das mit dem Bild nichts zu tun hat. Das könnten geometrische Figuren, Alltagstätigkeiten oder bekannte Orte sein.",,,,,,,,,0,0,0,0,0,4,4,0,,,,,4.2,,,,,,,,604.6373601626083,6.012998429355321,None,,,,,,,,,,B02L10,2022-11-24_09h41.34.839,t2_paradigm,2021.1.4,59.6856786171122,
3,,1,ABLENKEN,,Stimuli/9403.jpg,,Trials/StimuliNegative.xlsx,23,"Denken Sie während des Betrachtens der Bilder an etwas Neutrales, das mit dem Bild nichts zu tun hat. Das könnten geometrische Figuren, Alltagstätigkeiten oder bekannte Orte sein.",,,,,,,,,0,0,0,0,0,5,5,17,,,,,3.6,,,,,,,,614.2990967511787,6.0037667233837055,None,,,,,,,,,,B02L10,2022-11-24_09h41.34.839,t2_paradigm,2021.1.4,59.6856786171122,
3,,1,ABLENKEN,,Stimuli/3225.jpg,,Trials/StimuliNegative.xlsx,23,"Denken Sie während des Betrachtens der Bilder an etwas Neutrales, das mit dem Bild nichts zu tun hat. Das könnten geometrische Figuren, Alltagstätigkeiten oder bekannte Orte sein.",,,,,,,,,0,0,0,0,0,6,6,9,,,,,4.1,,,,,,,,624.478025415182,6.008445934675365,None,,,,,,,,,,B02L10,2022-11-24_09h41.34.839,t2_paradigm,2021.1.4,59.6856786171122,
3,,1,ABLENKEN,,Stimuli/3181.jpg,,Trials/StimuliNegative.xlsx,23,"Denken Sie während des Betrachtens der Bilder an etwas Neutrales, das mit dem Bild nichts zu tun hat. Das könnten geometrische Figuren, Alltagstätigkeiten oder bekannte Orte sein.",,,,,,,,,0,0,0,0,0,7,7,6,,,,,3.7,,,,,,,,634.2253419102835,6.0106145851787005,None,,,,,,,,,,B02L10,2022-11-24_09h41.34.839,t2_paradigm,2021.1.4,59.6856786171122,
3,,1,ABLENKEN,,Stimuli/9400.jpg,,Trials/StimuliNegative.xlsx,23,"Denken Sie während des Betrachtens der Bilder an etwas Neutrales, das mit dem Bild nichts zu tun hat. Das könnten geometrische Figuren, Alltagstätigkeiten oder bekannte Orte sein.",,,,,,,,,0,0,0,0,0,8,8,15,,,,,3.1,,,,,,,,643.4026348072239,6.003653801241853,None,,,,,,,,,,B02L10,2022-11-24_09h41.34.839,t2_paradigm,2021.1.4,59.6856786171122,
3,,1,ABLENKEN,,Stimuli/9373.jpg,,Trials/StimuliNegative.xlsx,23,"Denken Sie während des Betrachtens der Bilder an etwas Neutrales, das mit dem Bild nichts zu tun hat. Das könnten geometrische Figuren, Alltagstätigkeiten oder bekannte Orte sein.",,,,,,,,,0,0,0,0,0,9,9,14,,,,,3.4,,,,,,,,652.8427434049618,6.003872619973663,None,,,,,,,,,,B02L10,2022-11-24_09h41.34.839,t2_paradigm,2021.1.4,59.6856786171122,
3,,1,ABLENKEN,,Stimuli/9405.jpg,,Trials/StimuliNegative.xlsx,23,"Denken Sie während des Betrachtens der Bilder an etwas Neutrales, das mit dem Bild nichts zu tun hat. Das könnten geometrische Figuren, Alltagstätigkeiten oder bekannte Orte sein.",,,,,,,,,0,0,0,0,0,10,10,18,,,,,4.9,,,,,,,,663.81320945261,6.009083046537853,None,,,,,,,,,,B02L10,2022-11-24_09h41.34.839,t2_paradigm,2021.1.4,59.6856786171122,
3,,1,ABLENKEN,,Stimuli/6571.jpg,,Trials/StimuliNegative.xlsx,23,"Denken Sie während des Betrachtens der Bilder an etwas Neutrales, das mit dem Bild nichts zu tun hat. Das könnten geometrische Figuren, Alltagstätigkeiten oder bekannte Orte sein.",,,,,,,,,0,0,0,0,0,11,11,11,,,,,4.2,,,,,,,,674.0617761113208,6.008652851669467,None,,,,,,,,,,B02L10,2022-11-24_09h41.34.839,t2_paradigm,2021.1.4,59.6856786171122,
3,,1,ABLENKEN,,Stimuli/6831.jpg,,Trials/StimuliNegative.xlsx,23,"Denken Sie während des Betrachtens der Bilder an etwas Neutrales, das mit dem Bild nichts zu tun hat. Das könnten geometrische Figuren, Alltagstätigkeiten oder bekannte Orte sein.",,,,,,,,,0,0,0,0,0,12,12,12,,,,,4.4,,,,,,,,684.5262502277692,6.00776198578842,None,,,,,,,,,,B02L10,2022-11-24_09h41.34.839,t2_paradigm,2021.1.4,59.6856786171122,
3,,1,ABLENKEN,,Stimuli/8231.jpg,,Trials/StimuliNegative.xlsx,23,"Denken Sie während des Betrachtens der Bilder an etwas Neutrales, das mit dem Bild nichts zu tun hat. Das könnten geometrische Figuren, Alltagstätigkeiten oder bekannte Orte sein.",,,,,,,,,0,0,0,0,0,13,13,13,,,,,3.9,,,,,,,,694.4572843122914,6.0101414029040825,None,,,,,,,,,,B02L10,2022-11-24_09h41.34.839,t2_paradigm,2021.1.4,59.6856786171122,
3,,1,ABLENKEN,,Stimuli/6020.jpg,,Trials/StimuliNegative.xlsx,23,"Denken Sie während des Betrachtens der Bilder an etwas Neutrales, das mit dem Bild nichts zu tun hat. Das könnten geometrische Figuren, Alltagstätigkeiten oder bekannte Orte sein.",,,,,,,,,0,0,0,0,0,14,14,10,,,,,3.3,,,,,,,,703.7875264019667,6.012182342313281,None,,,,,,,,,,B02L10,2022-11-24_09h41.34.839,t2_paradigm,2021.1.4,59.6856786171122,
3,,1,ABLENKEN,,Stimuli/3220.jpg,,Trials/StimuliNegative.xlsx,23,"Denken Sie während des Betrachtens der Bilder an etwas Neutrales, das mit dem Bild nichts zu tun hat. Das könnten geometrische Figuren, Alltagstätigkeiten oder bekannte Orte sein.",,,,,,,,,0,0,0,0,0,15,15,8,,,,,3.6,,,,,,,,713.4222322526175,6.006274781919274,None,,,,,,,,,,B02L10,2022-11-24_09h41.34.839,t2_paradigm,2021.1.4,59.6856786171122,
3,,1,ABLENKEN,,Stimuli/2981.jpg,,Trials/StimuliNegative.xlsx,23,"Denken Sie während des Betrachtens der Bilder an etwas Neutrales, das mit dem Bild nichts zu tun hat. Das könnten geometrische Figuren, Alltagstätigkeiten oder bekannte Orte sein.",,,,,,,,,0,0,0,0,0,16,16,3,,,,,4.0,,,,,,,,723.4651381756403,6.000860646376168,None,,,,,,,,,,B02L10,2022-11-24_09h41.34.839,t2_paradigm,2021.1.4,59.6856786171122,
3,,1,ABLENKEN,,Stimuli/9402.jpg,,Trials/StimuliNegative.xlsx,23,"Denken Sie während des Betrachtens der Bilder an etwas Neutrales, das mit dem Bild nichts zu tun hat. Das könnten geometrische Figuren, Alltagstätigkeiten oder bekannte Orte sein.",,,,,,,,,0,0,0,0,0,17,17,16,,,,,3.6,,,,,,,,733.1020883538777,6.007757526645946,None,,,,,,,,,,B02L10,2022-11-24_09h41.34.839,t2_paradigm,2021.1.4,59.6856786171122,
3,,1,ABLENKEN,,Stimuli/3215.jpg,,Trials/StimuliNegative.xlsx,23,"Denken Sie während des Betrachtens der Bilder an etwas Neutrales, das mit dem Bild nichts zu tun hat. Das könnten geometrische Figuren, Alltagstätigkeiten oder bekannte Orte sein.",,,,,,,,,0,0,0,0,0,18,18,7,,,,,4.0,,,,,,,,743.1440809549113,6.001637595631109,None,,,,,,,,,,B02L10,2022-11-24_09h41.34.839,t2_paradigm,2021.1.4,59.6856786171122,
3,,1,ABLENKEN,,Stimuli/238.jpg,,Trials/StimuliNegative.xlsx,23,"Denken Sie während des Betrachtens der Bilder an etwas Neutrales, das mit dem Bild nichts zu tun hat. Das könnten geometrische Figuren, Alltagstätigkeiten oder bekannte Orte sein.",,,,,,,,,0,0,0,0,0,19,19,1,,,,,3.6,,,,,,,,752.7880518748925,6.010960409240397,None,,,,,,,,,,B02L10,2022-11-24_09h41.34.839,t2_paradigm,2021.1.4,59.6856786171122,
3,,1,ABLENKEN,,,,Trials/StimuliNegative.xlsx,23,"Denken Sie während des Betrachtens der Bilder an etwas Neutrales, das mit dem Bild nichts zu tun hat. Das könnten geometrische Figuren, Alltagstätigkeiten oder bekannte Orte sein.",,,,,,,,,0,0,0,0,,,,,,,,,,,,,165.66666666666669,8.365763802807123,133.0,3.1865938960454514,,,,190.33333333333334,7.945025522970354,,,,,,,,B02L10,2022-11-24_09h41.34.839,t2_paradigm,2021.1.4,59.6856786171122,
5,,1,UNTERDRÜCKEN,,Stimuli/9411.jpg,,Trials/StimuliNegative.xlsx,25,"Unterdrücken Sie alle aufkommenden Emotionen. Wenn Sie also die Bilder ansehen, verhalten Sie sich so, dass eine außenstehende Person nicht sehen kann, welche Emotionen Sie gerade empfinden.",,,,,,,,,0,1,1,2,0,0,0,15,,,,,4.7,,,,,,,,798.3348391757709,6.00218263745046,None,,,,,,,,,,B02L10,2022-11-24_09h41.34.839,t2_paradigm,2021.1.4,59.6856786171122,
5,,1,UNTERDRÜCKEN,,Stimuli/3230.jpg,,Trials/StimuliNegative.xlsx,25,"Unterdrücken Sie alle aufkommenden Emotionen. Wenn Sie also die Bilder ansehen, verhalten Sie sich so, dass eine außenstehende Person nicht sehen kann, welche Emotionen Sie gerade empfinden.",,,,,,,,,0,1,1,2,0,1,1,5,,,,,4.4,,,,,,,,808.7773765619831,6.013566600966442,None,,,,,,,,,,B02L10,2022-11-24_09h41.34.839,t2_paradigm,2021.1.4,59.6856786171122,
5,,1,UNTERDRÜCKEN,,Stimuli/2800.jpg,,Trials/StimuliNegative.xlsx,25,"Unterdrücken Sie alle aufkommenden Emotionen. Wenn Sie also die Bilder ansehen, verhalten Sie sich so, dass eine außenstehende Person nicht sehen kann, welche Emotionen Sie gerade empfinden.",,,,,,,,,0,1,1,2,0,2,2,3,,,,,4.2,,,,,,,,819.0336607433874,6.015088772202944,None,,,,,,,,,,B02L10,2022-11-24_09h41.34.839,t2_paradigm,2021.1.4,59.6856786171122,
5,,1,UNTERDRÜCKEN,,Stimuli/252.jpg,,Trials/StimuliNegative.xlsx,25,"Unterdrücken Sie alle aufkommenden Emotionen. Wenn Sie also die Bilder ansehen, verhalten Sie sich so, dass eine außenstehende Person nicht sehen kann, welche Emotionen Sie gerade empfinden.",,,,,,,,,0,1,1,2,0,3,3,1,,,,,3.0,,,,,,,,828.0935357847702,6.007238148949909,None,,,,,,,,,,B02L10,2022-11-24_09h41.34.839,t2_paradigm,2021.1.4,59.6856786171122,
5,,1,UNTERDRÜCKEN,,Stimuli/9599.jpg,,Trials/StimuliNegative.xlsx,25,"Unterdrücken Sie alle aufkommenden Emotionen. Wenn Sie also die Bilder ansehen, verhalten Sie sich so, dass eine außenstehende Person nicht sehen kann, welche Emotionen Sie gerade empfinden.",,,,,,,,,0,1,1,2,0,4,4,18,,,,,3.3,,,,,,,,837.4477632433291,6.014118026737378,None,,,,,,,,,,B02L10,2022-11-24_09h41.34.839,t2_paradigm,2021.1.4,59.6856786171122,
5,,1,UNTERDRÜCKEN,,Stimuli/9905.jpg,,Trials/StimuliNegative.xlsx,25,"Unterdrücken Sie alle aufkommenden Emotionen. Wenn Sie also die Bilder ansehen, verhalten Sie sich so, dass eine außenstehende Person nicht sehen kann, welche Emotionen Sie gerade empfinden.",,,,,,,,,0,1,1,2,0,5,5,19,,,,,3.7,,,,,,,,847.1855147196584,6.002231720086456,None,,,,,,,,,,B02L10,2022-11-24_09h41.34.839,t2_paradigm,2021.1.4,59.6856786171122,
5,,1,UNTERDRÜCKEN,,Stimuli/9185.jpg,,Trials/StimuliNegative.xlsx,25,"Unterdrücken Sie alle aufkommenden Emotionen. Wenn Sie also die Bilder ansehen, verhalten Sie sich so, dass eine außenstehende Person nicht sehen kann, welche Emotionen Sie gerade empfinden.",,,,,,,,,0,1,1,2,0,6,6,10,,,,,3.9,,,,,,,,857.1239820967076,6.004961741208717,None,,,,,,,,,,B02L10,2022-11-24_09h41.34.839,t2_paradigm,2021.1.4,59.6856786171122,
5,,1,UNTERDRÜCKEN,,Stimuli/3061.jpg,,Trials/StimuliNegative.xlsx,25,"Unterdrücken Sie alle aufkommenden Emotionen. Wenn Sie also die Bilder ansehen, verhalten Sie sich so, dass eine außenstehende Person nicht sehen kann, welche Emotionen Sie gerade empfinden.",,,,,,,,,0,1,1,2,0,7,7,4,,,,,4.9,,,,,,,,868.0745051957019,6.015533082338152,None,,,,,,,,,,B02L10,2022-11-24_09h41.34.839,t2_paradigm,2021.1.4,59.6856786171122,
5,,1,UNTERDRÜCKEN,,Stimuli/6561.jpg,,Trials/StimuliNegative.xlsx,25,"Unterdrücken Sie alle aufkommenden Emotionen. Wenn Sie also die Bilder ansehen, verhalten Sie sich so, dass eine außenstehende Person nicht sehen kann, welche Emotionen Sie gerade empfinden.",,,,,,,,,0,1,1,2,0,8,8,6,,,,,4.6,,,,,,,,878.7284581764616,6.004570972850161,None,,,,,,,,,,B02L10,2022-11-24_09h41.34.839,t2_paradigm,2021.1.4,59.6856786171122,
5,,1,UNTERDRÜCKEN,,Stimuli/9181.jpg,,Trials/StimuliNegative.xlsx,25,"Unterdrücken Sie alle aufkommenden Emotionen. Wenn Sie also die Bilder ansehen, verhalten Sie sich so, dass eine außenstehende Person nicht sehen kann, welche Emotionen Sie gerade empfinden.",,,,,,,,,0,1,1,2,0,9,9,9,,,,,3.8,,,,,,,,888.5770837984956,6.006566679242496,None,,,,,,,,,,B02L10,2022-11-24_09h41.34.839,t2_paradigm,2021.1.4,59.6856786171122,
5,,1,UNTERDRÜCKEN,,Stimuli/6838.jpg,,Trials/StimuliNegative.xlsx,25,"Unterdrücken Sie alle aufkommenden Emotionen. Wenn Sie also die Bilder ansehen, verhalten Sie sich so, dass eine außenstehende Person nicht sehen kann, welche Emotionen Sie gerade empfinden.",,,,,,,,,0,1,1,2,0,10,10,7,,,,,4.4,,,,,,,,899.0277365013126,6.0004194800967525,None,,,,,,,,,,B02L10,2022-11-24_09h41.34.839,t2_paradigm,2021.1.4,59.6856786171122,
5,,1,UNTERDRÜCKEN,,Stimuli/227.jpg,,Trials/StimuliNegative.xlsx,25,"Unterdrücken Sie alle aufkommenden Emotionen. Wenn Sie also die Bilder ansehen, verhalten Sie sich so, dass eine außenstehende Person nicht sehen kann, welche Emotionen Sie gerade empfinden.",,,,,,,,,0,1,1,2,0,11,11,0,,,,,3.4,,,,,,,,908.4619923957207,6.0112738323468875,None,,,,,,,,,,B02L10,2022-11-24_09h41.34.839,t2_paradigm,2021.1.4,59.6856786171122,
5,,1,UNTERDRÜCKEN,,Stimuli/9421.jpg,,Trials/StimuliNegative.xlsx,25,"Unterdrücken Sie alle aufkommenden Emotionen. Wenn Sie also die Bilder ansehen, verhalten Sie sich so, dass eine außenstehende Person nicht sehen kann, welche Emotionen Sie gerade empfinden.",,,,,,,,,0,1,1,2,0,12,12,17,,,,,3.3,,,,,,,,917.82539734479,6.013624024442834,None,,,,,,,,,,B02L10,2022-11-24_09h41.34.839,t2_paradigm,2021.1.4,59.6856786171122,
5,,1,UNTERDRÜCKEN,,Stimuli/9295.jpg,,Trials/StimuliNegative.xlsx,25,"Unterdrücken Sie alle aufkommenden Emotionen. Wenn Sie also die Bilder ansehen, verhalten Sie sich so, dass eine außenstehende Person nicht sehen kann, welche Emotionen Sie gerade empfinden.",,,,,,,,,0,1,1,2,0,13,13,13,,,,,5.0,,,,,,,,928.9077650654826,6.013710608778638,None,,,,,,,,,,B02L10,2022-11-24_09h41.34.839,t2_paradigm,2021.1.4,59.6856786171122,
5,,1,UNTERDRÜCKEN,,Stimuli/1051.jpg,,Trials/StimuliNegative.xlsx,25,"Unterdrücken Sie alle aufkommenden Emotionen. Wenn Sie also die Bilder ansehen, verhalten Sie sich so, dass eine außenstehende Person nicht sehen kann, welche Emotionen Sie gerade empfinden.",,,,,,,,,0,1,1,2,0,14,14,2,,,,,4.5,,,,,,,,939.4558731063089,6.011329010211739,None,,,,,,,,,,B02L10,2022-11-24_09h41.34.839,t2_paradigm,2021.1.4,59.6856786171122,
5,,1,UNTERDRÜCKEN,,Stimuli/9420.jpg,,Trials/StimuliNegative.xlsx,25,"Unterdrücken Sie alle aufkommenden Emotionen. Wenn Sie also die Bilder ansehen, verhalten Sie sich so, dass eine außenstehende Person nicht sehen kann, welche Emotionen Sie gerade empfinden.",,,,,,,,,0,1,1,2,0,15,15,16,,,,,3.8,,,,,,,,949.3099513921507,6.002128742791683,None,,,,,,,,,,B02L10,2022-11-24_09h41.34.839,t2_paradigm,2021.1.4,59.6856786171122,
5,,1,UNTERDRÜCKEN,,Stimuli/9120.jpg,,Trials/StimuliNegative.xlsx,25,"Unterdrücken Sie alle aufkommenden Emotionen. Wenn Sie also die Bilder ansehen, verhalten Sie sich so, dass eine außenstehende Person nicht sehen kann, welche Emotionen Sie gerade empfinden.",,,,,,,,,0,1,1,2,0,16,16,8,,,,,3.1,,,,,,,,958.4447910170438,6.011363015176357,None,,,,,,,,,,B02L10,2022-11-24_09h41.34.839,t2_paradigm,2021.1.4,59.6856786171122,
5,,1,UNTERDRÜCKEN,,Stimuli/9254.jpg,,Trials/StimuliNegative.xlsx,25,"Unterdrücken Sie alle aufkommenden Emotionen. Wenn Sie also die Bilder ansehen, verhalten Sie sich so, dass eine außenstehende Person nicht sehen kann, welche Emotionen Sie gerade empfinden.",,,,,,,,,0,1,1,2,0,17,17,12,,,,,4.1,,,,,,,,968.5903576038954,6.001616422729967,None,,,,,,,,,,B02L10,2022-11-24_09h41.34.839,t2_paradigm,2021.1.4,59.6856786171122,
5,,1,UNTERDRÜCKEN,,Stimuli/9332.jpg,,Trials/StimuliNegative.xlsx,25,"Unterdrücken Sie alle aufkommenden Emotionen. Wenn Sie also die Bilder ansehen, verhalten Sie sich so, dass eine außenstehende Person nicht sehen kann, welche Emotionen Sie gerade empfinden.",,,,,,,,,0,1,1,2,0,18,18,14,,,,,5.0,,,,,,,,979.6493629522984,6.012776113886503,None,,,,,,,,,,B02L10,2022-11-24_09h41.34.839,t2_paradigm,2021.1.4,59.6856786171122,
5,,1,UNTERDRÜCKEN,,Stimuli/9230.jpg,,Trials/StimuliNegative.xlsx,25,"Unterdrücken Sie alle aufkommenden Emotionen. Wenn Sie also die Bilder ansehen, verhalten Sie sich so, dass eine außenstehende Person nicht sehen kann, welche Emotionen Sie gerade empfinden.",,,,,,,,,0,1,1,2,0,19,19,11,,,,,3.5,,,,,,,,989.1915759439908,6.008870707995811,None,,,,,,,,,,B02L10,2022-11-24_09h41.34.839,t2_paradigm,2021.1.4,59.6856786171122,
5,,1,UNTERDRÜCKEN,,,,Trials/StimuliNegative.xlsx,25,"Unterdrücken Sie alle aufkommenden Emotionen. Wenn Sie also die Bilder ansehen, verhalten Sie sich so, dass eine außenstehende Person nicht sehen kann, welche Emotionen Sie gerade empfinden.",,,,,,,,,0,1,1,2,,,,,,,,,,,,,127.66666666666666,7.499392722680568,173.33333333333334,11.175519185215308,,,,134.0,4.810721957454007,,,,,,,,B02L10,2022-11-24_09h41.34.839,t2_paradigm,2021.1.4,59.6856786171122,
4,,1,DISTANZIEREN,,Stimuli/326.jpg,,Trials/StimuliNegative.xlsx,24,Nehmen Sie die Position eines uninvolvierten Beobachters ein. Denken Sie über das Bild in einer neutralen Weise nach.,,,,,,,,,0,2,2,1,0,0,0,5,,,,,3.9,,,,,,,,1043.5903717191632,6.007863070352869,None,,,,,,,,,,B02L10,2022-11-24_09h41.34.839,t2_paradigm,2021.1.4,59.6856786171122,
4,,1,DISTANZIEREN,,Stimuli/1301.jpg,,Trials/StimuliNegative.xlsx,24,Nehmen Sie die Position eines uninvolvierten Beobachters ein. Denken Sie über das Bild in einer neutralen Weise nach.,,,,,,,,,0,2,2,1,0,1,1,6,,,,,4.4,,,,,,,,1054.0410414244616,6.00325090658589,None,,,,,,,,,,B02L10,2022-11-24_09h41.34.839,t2_paradigm,2021.1.4,59.6856786171122,
4,,1,DISTANZIEREN,,Stimuli/9800.jpg,,Trials/StimuliNegative.xlsx,24,Nehmen Sie die Position eines uninvolvierten Beobachters ein. Denken Sie über das Bild in einer neutralen Weise nach.,,,,,,,,,0,2,2,1,0,2,2,19,,,,,4.3,,,,,,,,1064.3964401294497,6.007142197207941,None,,,,,,,,,,B02L10,2022-11-24_09h41.34.839,t2_paradigm,2021.1.4,59.6856786171122,
4,,1,DISTANZIEREN,,Stimuli/3350.jpg,,Trials/StimuliNegative.xlsx,24,Nehmen Sie die Position eines uninvolvierten Beobachters ein. Denken Sie über das Bild in einer neutralen Weise nach.,,,,,,,,,0,2,2,1,0,3,3,7,,,,,4.2,,,,,,,,1074.6390241602057,6.00162059314971,None,,,,,,,,,,B02L10,2022-11-24_09h41.34.839,t2_paradigm,2021.1.4,59.6856786171122,
4,,1,DISTANZIEREN,,Stimuli/6825.jpg,,Trials/StimuliNegative.xlsx,24,Nehmen Sie die Position eines uninvolvierten Beobachters ein. Denken Sie über das Bild in einer neutralen Weise nach.,,,,,,,,,0,2,2,1,0,4,4,11,,,,,4.1,,,,,,,,1084.8001894012305,6.0085938562660886,None,,,,,,,,,,B02L10,2022-11-24_09h41.34.839,t2_paradigm,2021.1.4,59.6856786171122,
4,,1,DISTANZIEREN,,Stimuli/6555.jpg,,Trials/StimuliNegative.xlsx,24,Nehmen Sie die Position eines uninvolvierten Beobachters ein. Denken Sie über das Bild in einer neutralen Weise nach.,,,,,,,,,0,2,2,1,0,5,5,10,,,,,4.4,,,,,,,,1095.261206881065,5.999220997615339,None,,,,,,,,,,B02L10,2022-11-24_09h41.34.839,t2_paradigm,2021.1.4,59.6856786171122,
4,,1,DISTANZIEREN,,Stimuli/219.jpg,,Trials/StimuliNegative.xlsx,24,Nehmen Sie die Position eines uninvolvierten Beobachters ein. Denken Sie über das Bild in einer neutralen Weise nach.,,,,,,,,,0,2,2,1,0,6,6,1,,,,,4.0,,,,,,,,1105.298338376334,6.004607255503288,None,,,,,,,,,,B02L10,2022-11-24_09h41.34.839,t2_paradigm,2021.1.4,59.6856786171122,
4,,1,DISTANZIEREN,,Stimuli/9041.jpg,,Trials/StimuliNegative.xlsx,24,Nehmen Sie die Position eines uninvolvierten Beobachters ein. Denken Sie über das Bild in einer neutralen Weise nach.,,,,,,,,,0,2,2,1,0,7,7,14,,,,,5.0,,,,,,,,1116.3659697573976,5.9995764457253244,None,,,,,,,,,,B02L10,2022-11-24_09h41.34.839,t2_paradigm,2021.1.4,59.6856786171122,
4,,1,DISTANZIEREN,,Stimuli/253.jpg,,Trials/StimuliNegative.xlsx,24,Nehmen Sie die Position eines uninvolvierten Beobachters ein. Denken Sie über das Bild in einer neutralen Weise nach.,,,,,,,,,0,2,2,1,0,8,8,3,,,,,4.7,,,,,,,,1127.1037985468975,6.003168460589222,None,,,,,,,,,,B02L10,2022-11-24_09h41.34.839,t2_paradigm,2021.1.4,59.6856786171122,
4,,1,DISTANZIEREN,,Stimuli/6940.jpg,,Trials/StimuliNegative.xlsx,24,Nehmen Sie die Position eines uninvolvierten Beobachters ein. Denken Sie über das Bild in einer neutralen Weise nach.,,,,,,,,,0,2,2,1,0,9,9,12,,,,,4.7,,,,,,,,1137.8674695046057,6.006891619123053,None,,,,,,,,,,B02L10,2022-11-24_09h41.34.839,t2_paradigm,2021.1.4,59.6856786171122,
4,,1,DISTANZIEREN,,Stimuli/254.jpg,,Trials/StimuliNegative.xlsx,24,Nehmen Sie die Position eines uninvolvierten Beobachters ein. Denken Sie über das Bild in einer neutralen Weise nach.,,,,,,,,,0,2,2,1,0,10,10,4,,,,,3.4,,,,,,,,1147.3065698230976,6.007255793034346,None,,,,,,,,,,B02L10,2022-11-24_09h41.34.839,t2_paradigm,2021.1.4,59.6856786171122,
4,,1,DISTANZIEREN,,Stimuli/9140.jpg,,Trials/StimuliNegative.xlsx,24,Nehmen Sie die Position eines uninvolvierten Beobachters ein. Denken Sie über das Bild in einer neutralen Weise nach.,,,,,,,,,0,2,2,1,0,11,11,15,,,,,3.9,,,,,,,,1157.268612905461,6.014006387801601,None,,,,,,,,,,B02L10,2022-11-24_09h41.34.839,t2_paradigm,2021.1.4,59.6856786171122,
4,,1,DISTANZIEREN,,Stimuli/226.jpg,,Trials/StimuliNegative.xlsx,24,Nehmen Sie die Position eines uninvolvierten Beobachters ein. Denken Sie über das Bild in einer neutralen Weise nach.,,,,,,,,,0,2,2,1,0,12,12,2,,,,,4.3,,,,,,,,1167.6210377801563,6.003813592489678,None,,,,,,,,,,B02L10,2022-11-24_09h41.34.839,t2_paradigm,2021.1.4,59.6856786171122,
4,,1,DISTANZIEREN,,Stimuli/208.jpg,,Trials/StimuliNegative.xlsx,24,Nehmen Sie die Position eines uninvolvierten Beobachters ein. Denken Sie über das Bild in einer neutralen Weise nach.,,,,,,,,,0,2,2,1,0,13,13,0,,,,,3.3,,,,,,,,1176.954776606639,6.000594060295043,None,,,,,,,,,,B02L10,2022-11-24_09h41.34.839,t2_paradigm,2021.1.4,59.6856786171122,
4,,1,DISTANZIEREN,,Stimuli/9409.jpg,,Trials/StimuliNegative.xlsx,24,Nehmen Sie die Position eines uninvolvierten Beobachters ein. Denken Sie über das Bild in einer neutralen Weise nach.,,,,,,,,,0,2,2,1,0,14,14,17,,,,,3.6,,,,,,,,1186.6224724046515,6.013694536621188,None,,,,,,,,,,B02L10,2022-11-24_09h41.34.839,t2_paradigm,2021.1.4,59.6856786171122,
4,,1,DISTANZIEREN,,Stimuli/8230.jpg,,Trials/StimuliNegative.xlsx,24,Nehmen Sie die Position eines uninvolvierten Beobachters ein. Denken Sie über das Bild in einer neutralen Weise nach.,,,,,,,,,0,2,2,1,0,15,15,13,,,,,4.1,,,,,,,,1196.7542236731006,6.011731936948308,None,,,,,,,,,,B02L10,2022-11-24_09h41.34.839,t2_paradigm,2021.1.4,59.6856786171122,
4,,1,DISTANZIEREN,,Stimuli/6242.jpg,,Trials/StimuliNegative.xlsx,24,Nehmen Sie die Position eines uninvolvierten Beobachters ein. Denken Sie über das Bild in einer neutralen Weise nach.,,,,,,,,,0,2,2,1,0,16,16,8,,,,,3.3,,,,,,,,1206.0874726356287,6.010295708446392,None,,,,,,,,,,B02L10,2022-11-24_09h41.34.839,t2_paradigm,2021.1.4,59.6856786171122,
4,,1,DISTANZIEREN,,Stimuli/9570.jpg,,Trials/StimuliNegative.xlsx,24,Nehmen Sie die Position eines uninvolvierten Beobachters ein. Denken Sie über das Bild in einer neutralen Weise nach.,,,,,,,,,0,2,2,1,0,17,17,18,,,,,4.5,,,,,,,,1216.6435375170986,6.011154814975271,None,,,,,,,,,,B02L10,2022-11-24_09h41.34.839,t2_paradigm,2021.1.4,59.6856786171122,
4,,1,DISTANZIEREN,,Stimuli/9340.jpg,,Trials/StimuliNegative.xlsx,24,Nehmen Sie die Position eines uninvolvierten Beobachters ein. Denken Sie über das Bild in einer neutralen Weise nach.,,,,,,,,,0,2,2,1,0,18,18,16,,,,,4.4,,,,,,,,1227.1058574511935,6.000202650335268,None,,,,,,,,,,B02L10,2022-11-24_09h41.34.839,t2_paradigm,2021.1.4,59.6856786171122,
4,,1,DISTANZIEREN,,Stimuli/6410.jpg,,Trials/StimuliNegative.xlsx,24,Nehmen Sie die Position eines uninvolvierten Beobachters ein. Denken Sie über das Bild in einer neutralen Weise nach.,,,,,,,,,0,2,2,1,0,19,19,9,,,,,4.2,,,,,,,,1237.332647459637,6.008811359711217,None,,,,,,,,,,B02L10,2022-11-24_09h41.34.839,t2_paradigm,2021.1.4,59.6856786171122,
4,,1,DISTANZIEREN,,,,Trials/StimuliNegative.xlsx,24,Nehmen Sie die Position eines uninvolvierten Beobachters ein. Denken Sie über das Bild in einer neutralen Weise nach.,,,,,,,,,0,2,2,1,,,,,,,,,,,,,219.33333333333334,11.315785488991423,122.0,5.508160228820998,,,,258.0,6.97238540327271,,,,,,,,B02L10,2022-11-24_09h41.34.839,t2_paradigm,2021.1.4,59.6856786171122,
,,,,,,,,,,,,,,,,,,,,,,,,,,,,,,,,,,,,,,,,,,,3,33.72472982094132,,,,,,B02L10,2022-11-24_09h41.34.839,t2_paradigm,2021.1.4,59.6856786171122,
,,,,,,,,,,,,,,,,,,,,,,,,,,,,,,,,,,,,,,,,,,,,,space,7.6290125856867235,,,,B02L10,2022-11-24_09h41.34.839,t2_paradigm,2021.1.4,59.6856786171122,
,,,,,Stimuli/6562.jpg,,,,,,,,,,,,,,,,,,,,,0,0,0,11,3.2,,,,,,,,,,,,,,,,,1527.2734377606512,6.013031471915383,None,B02L10,2022-11-24_09h41.34.839,t2_paradigm,2021.1.4,59.6856786171122,
,,,,,Stimuli/9042.jpg,,,,,,,,,,,,,,,,,,,,,0,1,1,14,4.4,,,,,,,,,,,,,,,,,1537.7248273446103,6.006604886705645,None,B02L10,2022-11-24_09h41.34.839,t2_paradigm,2021.1.4,59.6856786171122,
,,,,,Stimuli/9184.jpg,,,,,,,,,,,,,,,,,,,,,0,2,2,18,4.7,,,,,,,,,,,,,,,,,1548.4902752220587,6.005985386847897,None,B02L10,2022-11-24_09h41.34.839,t2_paradigm,2021.1.4,59.6856786171122,
,,,,,Stimuli/9043.jpg,,,,,,,,,,,,,,,,,,,,,0,3,3,15,3.6,,,,,,,,,,,,,,,,,1558.1503372265806,6.01645474516954,None,B02L10,2022-11-24_09h41.34.839,t2_paradigm,2021.1.4,59.6856786171122,
,,,,,Stimuli/218.jpg,,,,,,,,,,,,,,,,,,,,,0,4,4,1,4.2,,,,,,,,,,,,,,,,,1568.4075754717705,6.013466158005031,None,B02L10,2022-11-24_09h41.34.839,t2_paradigm,2021.1.4,59.6856786171122,
,,,,,Stimuli/222.jpg,,,,,,,,,,,,,,,,,,,,,0,5,5,2,4.5,,,,,,,,,,,,,,,,,1578.952903446435,6.002156973328056,None,B02L10,2022-11-24_09h41.34.839,t2_paradigm,2021.1.4,59.6856786171122,
,,,,,Stimuli/3185.jpg,,,,,,,,,,,,,,,,,,,,,0,6,6,9,3.3,,,,,,,,,,,,,,,,,1588.3070872759845,6.0069295057855925,None,B02L10,2022-11-24_09h41.34.839,t2_paradigm,2021.1.4,59.6856786171122,
,,,,,Stimuli/228.jpg,,,,,,,,,,,,,,,,,,,,,0,7,7,3,3.7,,,,,,,,,,,,,,,,,1598.039648824968,6.00629980443955,None,B02L10,2022-11-24_09h41.34.839,t2_paradigm,2021.1.4,59.6856786171122,
,,,,,Stimuli/9904.jpg,,,,,,,,,,,,,,,,,,,,,0,8,8,19,4.6,,,,,,,,,,,,,,,,,1608.7068265284915,6.001707177485514,None,B02L10,2022-11-24_09h41.34.839,t2_paradigm,2021.1.4,59.6856786171122,
,,,,,Stimuli/2703.jpg,,,,,,,,,,,,,,,,,,,,,0,9,9,6,3.3,,,,,,,,,,,,,,,,,1618.0517164165703,6.00931950935319,None,B02L10,2022-11-24_09h41.34.839,t2_paradigm,2021.1.4,59.6856786171122,
,,,,,Stimuli/9031.jpg,,,,,,,,,,,,,,,,,,,,,0,10,10,12,3.3,,,,,,,,,,,,,,,,,1627.388267068567,6.000270339459348,None,B02L10,2022-11-24_09h41.34.839,t2_paradigm,2021.1.4,59.6856786171122,
,,,,,Stimuli/3301.jpg,,,,,,,,,,,,,,,,,,,,,0,11,11,10,3.4,,,,,,,,,,,,,,,,,1636.8230343206324,6.009291599619246,None,B02L10,2022-11-24_09h41.34.839,t2_paradigm,2021.1.4,59.6856786171122,
,,,,,Stimuli/3160.jpg,,,,,,,,,,,,,,,,,,,,,0,12,12,8,3.9,,,,,,,,,,,,,,,,,1646.7818254377662,6.004874803989878,None,B02L10,2022-11-24_09h41.34.839,t2_paradigm,2021.1.4,59.6856786171122,
,,,,,Stimuli/3051.jpg,,,,,,,,,,,,,,,,,,,,,0,13,13,7,3.8,,,,,,,,,,,,,,,,,1656.635934199754,6.010564508057541,None,B02L10,2022-11-24_09h41.34.839,t2_paradigm,2021.1.4,59.6856786171122,
,,,,,Stimuli/246.jpg,,,,,,,,,,,,,,,,,,,,,0,14,14,4,4.4,,,,,,,,,,,,,,,,,1667.077250615298,6.00648554853251,None,B02L10,2022-11-24_09h41.34.839,t2_paradigm,2021.1.4,59.6856786171122,
,,,,,Stimuli/9160.jpg,,,,,,,,,,,,,,,,,,,,,0,15,15,17,4.0,,,,,,,,,,,,,,,,,1677.1250917492416,6.00856046082572,None,B02L10,2022-11-24_09h41.34.839,t2_paradigm,2021.1.4,59.6856786171122,
,,,,,Stimuli/251.jpg,,,,,,,,,,,,,,,,,,,,,0,16,16,5,3.1,,,,,,,,,,,,,,,,,1686.2550118824893,6.011536568809788,None,B02L10,2022-11-24_09h41.34.839,t2_paradigm,2021.1.4,59.6856786171122,
,,,,,Stimuli/210.jpg,,,,,,,,,,,,,,,,,,,,,0,17,17,0,3.0,,,,,,,,,,,,,,,,,1695.2951775187412,6.012240086590282,None,B02L10,2022-11-24_09h41.34.839,t2_paradigm,2021.1.4,59.6856786171122,
,,,,,Stimuli/9040.jpg,,,,,,,,,,,,,,,,,,,,,0,18,18,13,3.6,,,,,,,,,,,,,,,,,1704.9577597401767,6.0012586969296535,None,B02L10,2022-11-24_09h41.34.839,t2_paradigm,2021.1.4,59.6856786171122,
,,,,,Stimuli/9145.jpg,,,,,,,,,,,,,,,,,,,,,0,19,19,16,4.6,,,,,,,,,,,,,,,,,1715.596471118879,6.002703939956518,None,B02L10,2022-11-24_09h41.34.839,t2_paradigm,2021.1.4,59.6856786171122,
,,,,,,,,,,,,,,,,,,,,,,,,,,,,,,,,,,146.0,4.817909516000327,181.0,5.174627998531832,,,,225.66666666666669,6.786926182281604,,,,,,,,B02L10,2022-11-24_09h41.34.839,t2_paradigm,2021.1.4,59.6856786171122,
