Block,conds_view_File,n_reps,instr_1,TriggerBlockView,ImageFile,Trigger,conds_reg_File,TriggerBlockReg,instr_2,blocks_view.thisRepN,blocks_view.thisTrialN,blocks_view.thisN,blocks_view.thisIndex,trials_view.thisRepN,trials_view.thisTrialN,trials_view.thisN,trials_view.thisIndex,blocks_reg.thisRepN,blocks_reg.thisTrialN,blocks_reg.thisN,blocks_reg.thisIndex,trials_reg.thisRepN,trials_reg.thisTrialN,trials_reg.thisN,trials_reg.thisIndex,trials_choice.thisRepN,trials_choice.thisTrialN,trials_choice.thisN,trials_choice.thisIndex,Fix_jitter,image_view.started,image_view.lasted,image_view.stopped,slider_arousal.response,slider_arousal.rt,slider_effort.response,slider_effort.rt,image_reg.started,image_reg.lasted,image_reg.stopped,slider_utility.response,slider_utility.rt,resp_choice.keys,resp_choice.rt,key_resp.keys,key_resp.rt,image.started,image.lased,image.stopped,participant,date,expName,psychopyVersion,frameRate,
,,,,,,,,,,,,,,,,,,,,,,,,,,,,,,,,,,,,,,,,,,,,,,,,,,B02R06,2022-11-11_14h54.15.617,t2_paradigm,2021.1.4,60.003426364933205,
1,Trials/StimuliNeutral.xlsx,1,ANSCHAUEN,21,Stimuli/083.jpg,1,,,,0,0,0,0,0,0,0,0,,,,,,,,,,,,,4.8,72.15394760142499,6.026867518889048,None,,,,,,,,,,,,,,,,,B02R06,2022-11-11_14h54.15.617,t2_paradigm,2021.1.4,60.003426364933205,
1,Trials/StimuliNeutral.xlsx,1,ANSCHAUEN,21,Stimuli/7006.jpg,1,,,,0,0,0,0,0,1,1,8,,,,,,,,,,,,,3.1,81.29941832115128,6.007662043691198,None,,,,,,,,,,,,,,,,,B02R06,2022-11-11_14h54.15.617,t2_paradigm,2021.1.4,60.003426364933205,
1,Trials/StimuliNeutral.xlsx,1,ANSCHAUEN,21,Stimuli/124.jpg,1,,,,0,0,0,0,0,2,2,2,,,,,,,,,,,,,4.8,92.15299385599292,5.9998575637500835,None,,,,,,,,,,,,,,,,,B02R06,2022-11-11_14h54.15.617,t2_paradigm,2021.1.4,60.003426364933205,
1,Trials/StimuliNeutral.xlsx,1,ANSCHAUEN,21,Stimuli/140.jpg,1,,,,0,0,0,0,0,3,3,3,,,,,,,,,,,,,4.9,103.09585253870137,6.014058842853046,None,,,,,,,,,,,,,,,,,B02R06,2022-11-11_14h54.15.617,t2_paradigm,2021.1.4,60.003426364933205,
1,Trials/StimuliNeutral.xlsx,1,ANSCHAUEN,21,Stimuli/7150.jpg,1,,,,0,0,0,0,0,4,4,14,,,,,,,,,,,,,3.5,112.64946727559209,6.0073874368658835,None,,,,,,,,,,,,,,,,,B02R06,2022-11-11_14h54.15.617,t2_paradigm,2021.1.4,60.003426364933205,
1,Trials/StimuliNeutral.xlsx,1,ANSCHAUEN,21,Stimuli/7224.jpg,1,,,,0,0,0,0,0,5,5,17,,,,,,,,,,,,,3.5,122.18950629799201,6.0104846233007265,None,,,,,,,,,,,,,,,,,B02R06,2022-11-11_14h54.15.617,t2_paradigm,2021.1.4,60.003426364933205,
1,Trials/StimuliNeutral.xlsx,1,ANSCHAUEN,21,Stimuli/7233.jpg,1,,,,0,0,0,0,0,6,6,18,,,,,,,,,,,,,4.5,132.75194149591425,6.003378048905688,None,,,,,,,,,,,,,,,,,B02R06,2022-11-11_14h54.15.617,t2_paradigm,2021.1.4,60.003426364933205,
1,Trials/StimuliNeutral.xlsx,1,ANSCHAUEN,21,Stimuli/7025.jpg,1,,,,0,0,0,0,0,7,7,11,,,,,,,,,,,,,4.8,143.58545565484746,6.001428051728453,None,,,,,,,,,,,,,,,,,B02R06,2022-11-11_14h54.15.617,t2_paradigm,2021.1.4,60.003426364933205,
1,Trials/StimuliNeutral.xlsx,1,ANSCHAUEN,21,Stimuli/7000.jpg,1,,,,0,0,0,0,0,8,8,5,,,,,,,,,,,,,4.9,154.52807501899133,6.016654133987686,None,,,,,,,,,,,,,,,,,B02R06,2022-11-11_14h54.15.617,t2_paradigm,2021.1.4,60.003426364933205,
1,Trials/StimuliNeutral.xlsx,1,ANSCHAUEN,21,Stimuli/7041.jpg,1,,,,0,0,0,0,0,9,9,12,,,,,,,,,,,,,3.3,163.8775696269454,6.002542519145209,None,,,,,,,,,,,,,,,,,B02R06,2022-11-11_14h54.15.617,t2_paradigm,2021.1.4,60.003426364933205,
1,Trials/StimuliNeutral.xlsx,1,ANSCHAUEN,21,Stimuli/7211.jpg,1,,,,0,0,0,0,0,10,10,16,,,,,,,,,,,,,4.1,174.0200501478257,6.000063679269715,None,,,,,,,,,,,,,,,,,B02R06,2022-11-11_14h54.15.617,t2_paradigm,2021.1.4,60.003426364933205,
1,Trials/StimuliNeutral.xlsx,1,ANSCHAUEN,21,Stimuli/143.jpg,1,,,,0,0,0,0,0,11,11,4,,,,,,,,,,,,,4.0,184.04145183601577,6.0055479561042375,None,,,,,,,,,,,,,,,,,B02R06,2022-11-11_14h54.15.617,t2_paradigm,2021.1.4,60.003426364933205,
1,Trials/StimuliNeutral.xlsx,1,ANSCHAUEN,21,Stimuli/7004.jpg,1,,,,0,0,0,0,0,12,12,7,,,,,,,,,,,,,4.1,194.190418980721,6.009762176373897,None,,,,,,,,,,,,,,,,,B02R06,2022-11-11_14h54.15.617,t2_paradigm,2021.1.4,60.003426364933205,
1,Trials/StimuliNeutral.xlsx,1,ANSCHAUEN,21,Stimuli/7235.jpg,1,,,,0,0,0,0,0,13,13,19,,,,,,,,,,,,,3.4,203.6407934212416,6.008134104371038,None,,,,,,,,,,,,,,,,,B02R06,2022-11-11_14h54.15.617,t2_paradigm,2021.1.4,60.003426364933205,
1,Trials/StimuliNeutral.xlsx,1,ANSCHAUEN,21,Stimuli/7185.jpg,1,,,,0,0,0,0,0,14,14,15,,,,,,,,,,,,,3.5,213.18518220291116,6.0032229409616775,None,,,,,,,,,,,,,,,,,B02R06,2022-11-11_14h54.15.617,t2_paradigm,2021.1.4,60.003426364933205,
1,Trials/StimuliNeutral.xlsx,1,ANSCHAUEN,21,Stimuli/7021.jpg,1,,,,0,0,0,0,0,15,15,10,,,,,,,,,,,,,3.7,222.92126355069195,5.997485711462559,None,,,,,,,,,,,,,,,,,B02R06,2022-11-11_14h54.15.617,t2_paradigm,2021.1.4,60.003426364933205,
1,Trials/StimuliNeutral.xlsx,1,ANSCHAUEN,21,Stimuli/7009.jpg,1,,,,0,0,0,0,0,16,16,9,,,,,,,,,,,,,3.4,232.35805938950034,6.008179337504316,None,,,,,,,,,,,,,,,,,B02R06,2022-11-11_14h54.15.617,t2_paradigm,2021.1.4,60.003426364933205,
1,Trials/StimuliNeutral.xlsx,1,ANSCHAUEN,21,Stimuli/7002.jpg,1,,,,0,0,0,0,0,17,17,6,,,,,,,,,,,,,4.7,243.11083368835443,6.001768102235928,None,,,,,,,,,,,,,,,,,B02R06,2022-11-11_14h54.15.617,t2_paradigm,2021.1.4,60.003426364933205,
1,Trials/StimuliNeutral.xlsx,1,ANSCHAUEN,21,Stimuli/7100.jpg,1,,,,0,0,0,0,0,18,18,13,,,,,,,,,,,,,3.7,252.85742901285266,6.009013744456752,None,,,,,,,,,,,,,,,,,B02R06,2022-11-11_14h54.15.617,t2_paradigm,2021.1.4,60.003426364933205,
1,Trials/StimuliNeutral.xlsx,1,ANSCHAUEN,21,Stimuli/107.jpg,1,,,,0,0,0,0,0,19,19,1,,,,,,,,,,,,,3.7,262.6065548264073,6.009490456771346,None,,,,,,,,,,,,,,,,,B02R06,2022-11-11_14h54.15.617,t2_paradigm,2021.1.4,60.003426364933205,
1,Trials/StimuliNeutral.xlsx,1,ANSCHAUEN,21,,,,,,0,0,0,0,,,,,,,,,,,,,,,,,,,,,9.629629629629633,6.417728629429803,3.703703703703698,2.9821627468895713,,,,,,,,,,,,,B02R06,2022-11-11_14h54.15.617,t2_paradigm,2021.1.4,60.003426364933205,
2,Trials/StimuliNegative.xlsx,1,ANSCHAUEN,22,Stimuli/3230.jpg,,,,,0,1,1,1,0,0,0,5,,,,,,,,,,,,,4.4,288.6750195047839,6.0074690810679385,None,,,,,,,,,,,,,,,,,B02R06,2022-11-11_14h54.15.617,t2_paradigm,2021.1.4,60.003426364933205,
2,Trials/StimuliNegative.xlsx,1,ANSCHAUEN,22,Stimuli/9332.jpg,,,,,0,1,1,1,0,1,1,14,,,,,,,,,,,,,3.8,298.52185915236305,5.997174853970137,None,,,,,,,,,,,,,,,,,B02R06,2022-11-11_14h54.15.617,t2_paradigm,2021.1.4,60.003426364933205,
2,Trials/StimuliNegative.xlsx,1,ANSCHAUEN,22,Stimuli/252.jpg,,,,,0,1,1,1,0,2,2,1,,,,,,,,,,,,,3.2,307.760193174352,6.002496644407529,None,,,,,,,,,,,,,,,,,B02R06,2022-11-11_14h54.15.617,t2_paradigm,2021.1.4,60.003426364933205,
2,Trials/StimuliNegative.xlsx,1,ANSCHAUEN,22,Stimuli/2800.jpg,,,,,0,1,1,1,0,3,3,3,,,,,,,,,,,,,3.5,317.310537651932,6.002538027912124,None,,,,,,,,,,,,,,,,,B02R06,2022-11-11_14h54.15.617,t2_paradigm,2021.1.4,60.003426364933205,
2,Trials/StimuliNegative.xlsx,1,ANSCHAUEN,22,Stimuli/227.jpg,,,,,0,1,1,1,0,4,4,0,,,,,,,,,,,,,3.5,326.8573096743726,6.009103248316478,None,,,,,,,,,,,,,,,,,B02R06,2022-11-11_14h54.15.617,t2_paradigm,2021.1.4,60.003426364933205,
2,Trials/StimuliNegative.xlsx,1,ANSCHAUEN,22,Stimuli/9295.jpg,,,,,0,1,1,1,0,5,5,13,,,,,,,,,,,,,4.5,337.4267518375559,6.003461136718215,None,,,,,,,,,,,,,,,,,B02R06,2022-11-11_14h54.15.617,t2_paradigm,2021.1.4,60.003426364933205,
2,Trials/StimuliNegative.xlsx,1,ANSCHAUEN,22,Stimuli/9185.jpg,,,,,0,1,1,1,0,6,6,10,,,,,,,,,,,,,3.9,347.3638344736787,6.012772585769653,None,,,,,,,,,,,,,,,,,B02R06,2022-11-11_14h54.15.617,t2_paradigm,2021.1.4,60.003426364933205,
2,Trials/StimuliNegative.xlsx,1,ANSCHAUEN,22,Stimuli/1051.jpg,,,,,0,1,1,1,0,7,7,2,,,,,,,,,,,,,4.9,358.3117698538167,6.015526834476077,None,,,,,,,,,,,,,,,,,B02R06,2022-11-11_14h54.15.617,t2_paradigm,2021.1.4,60.003426364933205,
2,Trials/StimuliNegative.xlsx,1,ANSCHAUEN,22,Stimuli/9254.jpg,,,,,0,1,1,1,0,8,8,12,,,,,,,,,,,,,4.2,368.5720557400523,6.012825036956201,None,,,,,,,,,,,,,,,,,B02R06,2022-11-11_14h54.15.617,t2_paradigm,2021.1.4,60.003426364933205,
2,Trials/StimuliNegative.xlsx,1,ANSCHAUEN,22,Stimuli/9411.jpg,,,,,0,1,1,1,0,9,9,15,,,,,,,,,,,,,3.2,377.82385512051906,6.0095334442876265,None,,,,,,,,,,,,,,,,,B02R06,2022-11-11_14h54.15.617,t2_paradigm,2021.1.4,60.003426364933205,
2,Trials/StimuliNegative.xlsx,1,ANSCHAUEN,22,Stimuli/9421.jpg,,,,,0,1,1,1,0,10,10,17,,,,,,,,,,,,,4.2,388.06763123383143,6.004597258294325,None,,,,,,,,,,,,,,,,,B02R06,2022-11-11_14h54.15.617,t2_paradigm,2021.1.4,60.003426364933205,
2,Trials/StimuliNegative.xlsx,1,ANSCHAUEN,22,Stimuli/9181.jpg,,,,,0,1,1,1,0,11,11,9,,,,,,,,,,,,,3.7,397.7999393041923,6.007485121186164,None,,,,,,,,,,,,,,,,,B02R06,2022-11-11_14h54.15.617,t2_paradigm,2021.1.4,60.003426364933205,
2,Trials/StimuliNegative.xlsx,1,ANSCHAUEN,22,Stimuli/9905.jpg,,,,,0,1,1,1,0,12,12,19,,,,,,,,,,,,,4.3,408.141855597873,6.0071797173350205,None,,,,,,,,,,,,,,,,,B02R06,2022-11-11_14h54.15.617,t2_paradigm,2021.1.4,60.003426364933205,
2,Trials/StimuliNegative.xlsx,1,ANSCHAUEN,22,Stimuli/9420.jpg,,,,,0,1,1,1,0,13,13,16,,,,,,,,,,,,,4.2,418.3888028425654,6.01288807462106,None,,,,,,,,,,,,,,,,,B02R06,2022-11-11_14h54.15.617,t2_paradigm,2021.1.4,60.003426364933205,
2,Trials/StimuliNegative.xlsx,1,ANSCHAUEN,22,Stimuli/9120.jpg,,,,,0,1,1,1,0,14,14,8,,,,,,,,,,,,,4.1,428.5459520515951,6.014165670040256,None,,,,,,,,,,,,,,,,,B02R06,2022-11-11_14h54.15.617,t2_paradigm,2021.1.4,60.003426364933205,
2,Trials/StimuliNegative.xlsx,1,ANSCHAUEN,22,Stimuli/3061.jpg,,,,,0,1,1,1,0,15,15,4,,,,,,,,,,,,,3.9,438.49550908768924,6.014971846384469,None,,,,,,,,,,,,,,,,,B02R06,2022-11-11_14h54.15.617,t2_paradigm,2021.1.4,60.003426364933205,
2,Trials/StimuliNegative.xlsx,1,ANSCHAUEN,22,Stimuli/6838.jpg,,,,,0,1,1,1,0,16,16,7,,,,,,,,,,,,,5.0,449.5382091657084,5.997277831529573,None,,,,,,,,,,,,,,,,,B02R06,2022-11-11_14h54.15.617,t2_paradigm,2021.1.4,60.003426364933205,
2,Trials/StimuliNegative.xlsx,1,ANSCHAUEN,22,Stimuli/6561.jpg,,,,,0,1,1,1,0,17,17,6,,,,,,,,,,,,,3.1,458.6791164717897,6.014868227220177,None,,,,,,,,,,,,,,,,,B02R06,2022-11-11_14h54.15.617,t2_paradigm,2021.1.4,60.003426364933205,
2,Trials/StimuliNegative.xlsx,1,ANSCHAUEN,22,Stimuli/9230.jpg,,,,,0,1,1,1,0,18,18,11,,,,,,,,,,,,,3.2,467.9156591333717,6.009928672801834,None,,,,,,,,,,,,,,,,,B02R06,2022-11-11_14h54.15.617,t2_paradigm,2021.1.4,60.003426364933205,
2,Trials/StimuliNegative.xlsx,1,ANSCHAUEN,22,Stimuli/9599.jpg,,,,,0,1,1,1,0,19,19,18,,,,,,,,,,,,,4.7,478.6556314930399,6.012701688447123,None,,,,,,,,,,,,,,,,,B02R06,2022-11-11_14h54.15.617,t2_paradigm,2021.1.4,60.003426364933205,
2,Trials/StimuliNegative.xlsx,1,ANSCHAUEN,22,,,,,,0,1,1,1,,,,,,,,,,,,,,,,,,,,,292.96296296296293,7.8508939478711,3.3333333333333437,3.285226666118888,,,,,,,,,,,,,B02R06,2022-11-11_14h54.15.617,t2_paradigm,2021.1.4,60.003426364933205,
5,,1,UNTERDRÜCKEN,,Stimuli/6555.jpg,,Trials/StimuliNegative.xlsx,25,"Unterdrücken Sie alle aufkommenden Emotionen. Wenn Sie also die Bilder ansehen, verhalten Sie sich so, dass eine außenstehende Person nicht sehen kann, welche Emotionen Sie gerade empfinden.",,,,,,,,,0,0,0,2,0,0,0,10,,,,,4.2,,,,,,,,513.6840112742784,6.004573037716,None,,,,,,,,,,B02R06,2022-11-11_14h54.15.617,t2_paradigm,2021.1.4,60.003426364933205,
5,,1,UNTERDRÜCKEN,,Stimuli/9570.jpg,,Trials/StimuliNegative.xlsx,25,"Unterdrücken Sie alle aufkommenden Emotionen. Wenn Sie also die Bilder ansehen, verhalten Sie sich so, dass eine außenstehende Person nicht sehen kann, welche Emotionen Sie gerade empfinden.",,,,,,,,,0,0,0,2,0,1,1,18,,,,,3.5,,,,,,,,523.2289569688537,6.0003023562289854,None,,,,,,,,,,B02R06,2022-11-11_14h54.15.617,t2_paradigm,2021.1.4,60.003426364933205,
5,,1,UNTERDRÜCKEN,,Stimuli/226.jpg,,Trials/StimuliNegative.xlsx,25,"Unterdrücken Sie alle aufkommenden Emotionen. Wenn Sie also die Bilder ansehen, verhalten Sie sich so, dass eine außenstehende Person nicht sehen kann, welche Emotionen Sie gerade empfinden.",,,,,,,,,0,0,0,2,0,2,2,2,,,,,4.8,,,,,,,,534.0734047139981,6.009464792582094,None,,,,,,,,,,B02R06,2022-11-11_14h54.15.617,t2_paradigm,2021.1.4,60.003426364933205,
5,,1,UNTERDRÜCKEN,,Stimuli/8230.jpg,,Trials/StimuliNegative.xlsx,25,"Unterdrücken Sie alle aufkommenden Emotionen. Wenn Sie also die Bilder ansehen, verhalten Sie sich so, dass eine außenstehende Person nicht sehen kann, welche Emotionen Sie gerade empfinden.",,,,,,,,,0,0,0,2,0,3,3,13,,,,,3.8,,,,,,,,543.9349034256556,6.0028654067259595,None,,,,,,,,,,B02R06,2022-11-11_14h54.15.617,t2_paradigm,2021.1.4,60.003426364933205,
5,,1,UNTERDRÜCKEN,,Stimuli/208.jpg,,Trials/StimuliNegative.xlsx,25,"Unterdrücken Sie alle aufkommenden Emotionen. Wenn Sie also die Bilder ansehen, verhalten Sie sich so, dass eine außenstehende Person nicht sehen kann, welche Emotionen Sie gerade empfinden.",,,,,,,,,0,0,0,2,0,4,4,0,,,,,3.5,,,,,,,,553.4740342565597,6.008751007319461,None,,,,,,,,,,B02R06,2022-11-11_14h54.15.617,t2_paradigm,2021.1.4,60.003426364933205,
5,,1,UNTERDRÜCKEN,,Stimuli/6242.jpg,,Trials/StimuliNegative.xlsx,25,"Unterdrücken Sie alle aufkommenden Emotionen. Wenn Sie also die Bilder ansehen, verhalten Sie sich so, dass eine außenstehende Person nicht sehen kann, welche Emotionen Sie gerade empfinden.",,,,,,,,,0,0,0,2,0,5,5,8,,,,,3.9,,,,,,,,563.4323851270888,6.008778435921613,None,,,,,,,,,,B02R06,2022-11-11_14h54.15.617,t2_paradigm,2021.1.4,60.003426364933205,
5,,1,UNTERDRÜCKEN,,Stimuli/6825.jpg,,Trials/StimuliNegative.xlsx,25,"Unterdrücken Sie alle aufkommenden Emotionen. Wenn Sie also die Bilder ansehen, verhalten Sie sich so, dass eine außenstehende Person nicht sehen kann, welche Emotionen Sie gerade empfinden.",,,,,,,,,0,0,0,2,0,6,6,11,,,,,4.1,,,,,,,,573.5847348119328,6.004170430747763,None,,,,,,,,,,B02R06,2022-11-11_14h54.15.617,t2_paradigm,2021.1.4,60.003426364933205,
5,,1,UNTERDRÜCKEN,,Stimuli/253.jpg,,Trials/StimuliNegative.xlsx,25,"Unterdrücken Sie alle aufkommenden Emotionen. Wenn Sie also die Bilder ansehen, verhalten Sie sich so, dass eine außenstehende Person nicht sehen kann, welche Emotionen Sie gerade empfinden.",,,,,,,,,0,0,0,2,0,7,7,3,,,,,3.3,,,,,,,,582.9124600921855,6.015232177503549,None,,,,,,,,,,B02R06,2022-11-11_14h54.15.617,t2_paradigm,2021.1.4,60.003426364933205,
5,,1,UNTERDRÜCKEN,,Stimuli/9041.jpg,,Trials/StimuliNegative.xlsx,25,"Unterdrücken Sie alle aufkommenden Emotionen. Wenn Sie also die Bilder ansehen, verhalten Sie sich so, dass eine außenstehende Person nicht sehen kann, welche Emotionen Sie gerade empfinden.",,,,,,,,,0,0,0,2,0,8,8,14,,,,,4.3,,,,,,,,593.2656310952448,6.009318987906681,None,,,,,,,,,,B02R06,2022-11-11_14h54.15.617,t2_paradigm,2021.1.4,60.003426364933205,
5,,1,UNTERDRÜCKEN,,Stimuli/9140.jpg,,Trials/StimuliNegative.xlsx,25,"Unterdrücken Sie alle aufkommenden Emotionen. Wenn Sie also die Bilder ansehen, verhalten Sie sich so, dass eine außenstehende Person nicht sehen kann, welche Emotionen Sie gerade empfinden.",,,,,,,,,0,0,0,2,0,9,9,15,,,,,4.6,,,,,,,,603.9168473853324,6.007400268960282,None,,,,,,,,,,B02R06,2022-11-11_14h54.15.617,t2_paradigm,2021.1.4,60.003426364933205,
5,,1,UNTERDRÜCKEN,,Stimuli/9340.jpg,,Trials/StimuliNegative.xlsx,25,"Unterdrücken Sie alle aufkommenden Emotionen. Wenn Sie also die Bilder ansehen, verhalten Sie sich so, dass eine außenstehende Person nicht sehen kann, welche Emotionen Sie gerade empfinden.",,,,,,,,,0,0,0,2,0,10,10,16,,,,,3.8,,,,,,,,613.7589288922309,6.007451116135144,None,,,,,,,,,,B02R06,2022-11-11_14h54.15.617,t2_paradigm,2021.1.4,60.003426364933205,
5,,1,UNTERDRÜCKEN,,Stimuli/219.jpg,,Trials/StimuliNegative.xlsx,25,"Unterdrücken Sie alle aufkommenden Emotionen. Wenn Sie also die Bilder ansehen, verhalten Sie sich so, dass eine außenstehende Person nicht sehen kann, welche Emotionen Sie gerade empfinden.",,,,,,,,,0,0,0,2,0,11,11,1,,,,,3.5,,,,,,,,623.3096268940171,6.004232826807765,None,,,,,,,,,,B02R06,2022-11-11_14h54.15.617,t2_paradigm,2021.1.4,60.003426364933205,
5,,1,UNTERDRÜCKEN,,Stimuli/3350.jpg,,Trials/StimuliNegative.xlsx,25,"Unterdrücken Sie alle aufkommenden Emotionen. Wenn Sie also die Bilder ansehen, verhalten Sie sich so, dass eine außenstehende Person nicht sehen kann, welche Emotionen Sie gerade empfinden.",,,,,,,,,0,0,0,2,0,12,12,7,,,,,4.9,,,,,,,,634.2703950103682,6.000136020202717,None,,,,,,,,,,B02R06,2022-11-11_14h54.15.617,t2_paradigm,2021.1.4,60.003426364933205,
5,,1,UNTERDRÜCKEN,,Stimuli/9800.jpg,,Trials/StimuliNegative.xlsx,25,"Unterdrücken Sie alle aufkommenden Emotionen. Wenn Sie also die Bilder ansehen, verhalten Sie sich so, dass eine außenstehende Person nicht sehen kann, welche Emotionen Sie gerade empfinden.",,,,,,,,,0,0,0,2,0,13,13,19,,,,,4.9,,,,,,,,645.2037633967066,6.000775860520207,None,,,,,,,,,,B02R06,2022-11-11_14h54.15.617,t2_paradigm,2021.1.4,60.003426364933205,
5,,1,UNTERDRÜCKEN,,Stimuli/9409.jpg,,Trials/StimuliNegative.xlsx,25,"Unterdrücken Sie alle aufkommenden Emotionen. Wenn Sie also die Bilder ansehen, verhalten Sie sich so, dass eine außenstehende Person nicht sehen kann, welche Emotionen Sie gerade empfinden.",,,,,,,,,0,0,0,2,0,14,14,17,,,,,3.1,,,,,,,,654.3459298520715,6.016200840244892,None,,,,,,,,,,B02R06,2022-11-11_14h54.15.617,t2_paradigm,2021.1.4,60.003426364933205,
5,,1,UNTERDRÜCKEN,,Stimuli/254.jpg,,Trials/StimuliNegative.xlsx,25,"Unterdrücken Sie alle aufkommenden Emotionen. Wenn Sie also die Bilder ansehen, verhalten Sie sich so, dass eine außenstehende Person nicht sehen kann, welche Emotionen Sie gerade empfinden.",,,,,,,,,0,0,0,2,0,15,15,4,,,,,3.9,,,,,,,,664.2912933596476,6.008572962006383,None,,,,,,,,,,B02R06,2022-11-11_14h54.15.617,t2_paradigm,2021.1.4,60.003426364933205,
5,,1,UNTERDRÜCKEN,,Stimuli/6940.jpg,,Trials/StimuliNegative.xlsx,25,"Unterdrücken Sie alle aufkommenden Emotionen. Wenn Sie also die Bilder ansehen, verhalten Sie sich so, dass eine außenstehende Person nicht sehen kann, welche Emotionen Sie gerade empfinden.",,,,,,,,,0,0,0,2,0,16,16,12,,,,,3.5,,,,,,,,673.8491317804787,6.009590707510142,None,,,,,,,,,,B02R06,2022-11-11_14h54.15.617,t2_paradigm,2021.1.4,60.003426364933205,
5,,1,UNTERDRÜCKEN,,Stimuli/326.jpg,,Trials/StimuliNegative.xlsx,25,"Unterdrücken Sie alle aufkommenden Emotionen. Wenn Sie also die Bilder ansehen, verhalten Sie sich so, dass eine außenstehende Person nicht sehen kann, welche Emotionen Sie gerade empfinden.",,,,,,,,,0,0,0,2,0,17,17,5,,,,,4.4,,,,,,,,684.2987006862604,6.0097632991828505,None,,,,,,,,,,B02R06,2022-11-11_14h54.15.617,t2_paradigm,2021.1.4,60.003426364933205,
5,,1,UNTERDRÜCKEN,,Stimuli/1301.jpg,,Trials/StimuliNegative.xlsx,25,"Unterdrücken Sie alle aufkommenden Emotionen. Wenn Sie also die Bilder ansehen, verhalten Sie sich so, dass eine außenstehende Person nicht sehen kann, welche Emotionen Sie gerade empfinden.",,,,,,,,,0,0,0,2,0,18,18,6,,,,,4.6,,,,,,,,694.9490556219971,6.008741222847675,None,,,,,,,,,,B02R06,2022-11-11_14h54.15.617,t2_paradigm,2021.1.4,60.003426364933205,
5,,1,UNTERDRÜCKEN,,Stimuli/6410.jpg,,Trials/StimuliNegative.xlsx,25,"Unterdrücken Sie alle aufkommenden Emotionen. Wenn Sie also die Bilder ansehen, verhalten Sie sich so, dass eine außenstehende Person nicht sehen kann, welche Emotionen Sie gerade empfinden.",,,,,,,,,0,0,0,2,0,19,19,9,,,,,3.2,,,,,,,,704.1912562748939,6.007927186845336,None,,,,,,,,,,B02R06,2022-11-11_14h54.15.617,t2_paradigm,2021.1.4,60.003426364933205,
5,,1,UNTERDRÜCKEN,,,,Trials/StimuliNegative.xlsx,25,"Unterdrücken Sie alle aufkommenden Emotionen. Wenn Sie also die Bilder ansehen, verhalten Sie sich so, dass eine außenstehende Person nicht sehen kann, welche Emotionen Sie gerade empfinden.",,,,,,,,,0,0,0,2,,,,,,,,,,,,,244.44444444444446,13.385293264690063,5.555555555555558,3.3185878664849042,,,,198.5185185185185,11.26811891758689,,,,,,,,B02R06,2022-11-11_14h54.15.617,t2_paradigm,2021.1.4,60.003426364933205,
3,,1,ABLENKEN,,Stimuli/9182.jpg,,Trials/StimuliNegative.xlsx,23,"Denken Sie während des Betrachtens der Bilder an etwas Neutrales, das mit dem Bild nichts zu tun hat. Das könnten geometrische Figuren, Alltagstätigkeiten oder bekannte Orte sein.",,,,,,,,,0,1,1,0,0,0,0,13,,,,,4.5,,,,,,,,760.3881458393216,5.998838535036612,None,,,,,,,,,,B02R06,2022-11-11_14h54.15.617,t2_paradigm,2021.1.4,60.003426364933205,
3,,1,ABLENKEN,,Stimuli/9253.jpg,,Trials/StimuliNegative.xlsx,23,"Denken Sie während des Betrachtens der Bilder an etwas Neutrales, das mit dem Bild nichts zu tun hat. Das könnten geometrische Figuren, Alltagstätigkeiten oder bekannte Orte sein.",,,,,,,,,0,1,1,0,0,1,1,14,,,,,3.4,,,,,,,,769.832399370714,6.010179379850342,None,,,,,,,,,,B02R06,2022-11-11_14h54.15.617,t2_paradigm,2021.1.4,60.003426364933205,
3,,1,ABLENKEN,,Stimuli/230.jpg,,Trials/StimuliNegative.xlsx,23,"Denken Sie während des Betrachtens der Bilder an etwas Neutrales, das mit dem Bild nichts zu tun hat. Das könnten geometrische Figuren, Alltagstätigkeiten oder bekannte Orte sein.",,,,,,,,,0,1,1,0,0,2,2,1,,,,,4.9,,,,,,,,780.7638362060115,6.012367091579563,None,,,,,,,,,,B02R06,2022-11-11_14h54.15.617,t2_paradigm,2021.1.4,60.003426364933205,
3,,1,ABLENKEN,,Stimuli/6244.jpg,,Trials/StimuliNegative.xlsx,23,"Denken Sie während des Betrachtens der Bilder an etwas Neutrales, das mit dem Bild nichts zu tun hat. Das könnten geometrische Figuren, Alltagstätigkeiten oder bekannte Orte sein.",,,,,,,,,0,1,1,0,0,3,3,10,,,,,3.0,,,,,,,,789.8183514351413,6.003355592739808,None,,,,,,,,,,B02R06,2022-11-11_14h54.15.617,t2_paradigm,2021.1.4,60.003426364933205,
3,,1,ABLENKEN,,Stimuli/6836.jpg,,Trials/StimuliNegative.xlsx,23,"Denken Sie während des Betrachtens der Bilder an etwas Neutrales, das mit dem Bild nichts zu tun hat. Das könnten geometrische Figuren, Alltagstätigkeiten oder bekannte Orte sein.",,,,,,,,,0,1,1,0,0,4,4,11,,,,,4.9,,,,,,,,800.7617509906377,6.016699046318536,None,,,,,,,,,,B02R06,2022-11-11_14h54.15.617,t2_paradigm,2021.1.4,60.003426364933205,
3,,1,ABLENKEN,,Stimuli/6190.jpg,,Trials/StimuliNegative.xlsx,23,"Denken Sie während des Betrachtens der Bilder an etwas Neutrales, das mit dem Bild nichts zu tun hat. Das könnten geometrische Figuren, Alltagstätigkeiten oder bekannte Orte sein.",,,,,,,,,0,1,1,0,0,5,5,9,,,,,3.1,,,,,,,,809.910933072927,6.0027144692130605,None,,,,,,,,,,B02R06,2022-11-11_14h54.15.617,t2_paradigm,2021.1.4,60.003426364933205,
3,,1,ABLENKEN,,Stimuli/9180.jpg,,Trials/StimuliNegative.xlsx,23,"Denken Sie während des Betrachtens der Bilder an etwas Neutrales, das mit dem Bild nichts zu tun hat. Das könnten geometrische Figuren, Alltagstätigkeiten oder bekannte Orte sein.",,,,,,,,,0,1,1,0,0,6,6,12,,,,,3.0,,,,,,,,818.9623342734981,6.015823576663479,None,,,,,,,,,,B02R06,2022-11-11_14h54.15.617,t2_paradigm,2021.1.4,60.003426364933205,
3,,1,ABLENKEN,,Stimuli/225.jpg,,Trials/StimuliNegative.xlsx,23,"Denken Sie während des Betrachtens der Bilder an etwas Neutrales, das mit dem Bild nichts zu tun hat. Das könnten geometrische Figuren, Alltagstätigkeiten oder bekannte Orte sein.",,,,,,,,,0,1,1,0,0,7,7,0,,,,,4.9,,,,,,,,829.8952269099286,6.01640310613675,None,,,,,,,,,,B02R06,2022-11-11_14h54.15.617,t2_paradigm,2021.1.4,60.003426364933205,
3,,1,ABLENKEN,,Stimuli/9300.jpg,,Trials/StimuliNegative.xlsx,23,"Denken Sie während des Betrachtens der Bilder an etwas Neutrales, das mit dem Bild nichts zu tun hat. Das könnten geometrische Figuren, Alltagstätigkeiten oder bekannte Orte sein.",,,,,,,,,0,1,1,0,0,8,8,15,,,,,4.3,,,,,,,,840.249217242229,6.009390847636951,None,,,,,,,,,,B02R06,2022-11-11_14h54.15.617,t2_paradigm,2021.1.4,60.003426364933205,
3,,1,ABLENKEN,,Stimuli/9424.jpg,,Trials/StimuliNegative.xlsx,23,"Denken Sie während des Betrachtens der Bilder an etwas Neutrales, das mit dem Bild nichts zu tun hat. Das könnten geometrische Figuren, Alltagstätigkeiten oder bekannte Orte sein.",,,,,,,,,0,1,1,0,0,9,9,17,,,,,4.0,,,,,,,,850.2955850536896,6.0164494620780715,None,,,,,,,,,,B02R06,2022-11-11_14h54.15.617,t2_paradigm,2021.1.4,60.003426364933205,
3,,1,ABLENKEN,,Stimuli/255.jpg,,Trials/StimuliNegative.xlsx,23,"Denken Sie während des Betrachtens der Bilder an etwas Neutrales, das mit dem Bild nichts zu tun hat. Das könnten geometrische Figuren, Alltagstätigkeiten oder bekannte Orte sein.",,,,,,,,,0,1,1,0,0,10,10,2,,,,,4.7,,,,,,,,861.0465429695519,6.014106000800439,None,,,,,,,,,,B02R06,2022-11-11_14h54.15.617,t2_paradigm,2021.1.4,60.003426364933205,
3,,1,ABLENKEN,,Stimuli/9425.jpg,,Trials/StimuliNegative.xlsx,23,"Denken Sie während des Betrachtens der Bilder an etwas Neutrales, das mit dem Bild nichts zu tun hat. Das könnten geometrische Figuren, Alltagstätigkeiten oder bekannte Orte sein.",,,,,,,,,0,1,1,0,0,11,11,18,,,,,4.9,,,,,,,,872.0039105808319,5.999899268056652,None,,,,,,,,,,B02R06,2022-11-11_14h54.15.617,t2_paradigm,2021.1.4,60.003426364933205,
3,,1,ABLENKEN,,Stimuli/3017.jpg,,Trials/StimuliNegative.xlsx,23,"Denken Sie während des Betrachtens der Bilder an etwas Neutrales, das mit dem Bild nichts zu tun hat. Das könnten geometrische Figuren, Alltagstätigkeiten oder bekannte Orte sein.",,,,,,,,,0,1,1,0,0,12,12,5,,,,,4.1,,,,,,,,882.1518967119041,6.0028339680943645,None,,,,,,,,,,B02R06,2022-11-11_14h54.15.617,t2_paradigm,2021.1.4,60.003426364933205,
3,,1,ABLENKEN,,Stimuli/9326.jpg,,Trials/StimuliNegative.xlsx,23,"Denken Sie während des Betrachtens der Bilder an etwas Neutrales, das mit dem Bild nichts zu tun hat. Das könnten geometrische Figuren, Alltagstätigkeiten oder bekannte Orte sein.",,,,,,,,,0,1,1,0,0,13,13,16,,,,,3.4,,,,,,,,891.6001583480474,6.008360109637579,None,,,,,,,,,,B02R06,2022-11-11_14h54.15.617,t2_paradigm,2021.1.4,60.003426364933205,
3,,1,ABLENKEN,,Stimuli/327.jpg,,Trials/StimuliNegative.xlsx,23,"Denken Sie während des Betrachtens der Bilder an etwas Neutrales, das mit dem Bild nichts zu tun hat. Das könnten geometrische Figuren, Alltagstätigkeiten oder bekannte Orte sein.",,,,,,,,,0,1,1,0,0,14,14,3,,,,,4.0,,,,,,,,901.644366197183,6.00145820715079,None,,,,,,,,,,B02R06,2022-11-11_14h54.15.617,t2_paradigm,2021.1.4,60.003426364933205,
3,,1,ABLENKEN,,Stimuli/9920.jpg,,Trials/StimuliNegative.xlsx,23,"Denken Sie während des Betrachtens der Bilder an etwas Neutrales, das mit dem Bild nichts zu tun hat. Das könnten geometrische Figuren, Alltagstätigkeiten oder bekannte Orte sein.",,,,,,,,,0,1,1,0,0,15,15,19,,,,,4.9,,,,,,,,912.603223614647,6.002032924588548,None,,,,,,,,,,B02R06,2022-11-11_14h54.15.617,t2_paradigm,2021.1.4,60.003426364933205,
3,,1,ABLENKEN,,Stimuli/3280.jpg,,Trials/StimuliNegative.xlsx,23,"Denken Sie während des Betrachtens der Bilder an etwas Neutrales, das mit dem Bild nichts zu tun hat. Das könnten geometrische Figuren, Alltagstätigkeiten oder bekannte Orte sein.",,,,,,,,,0,1,1,0,0,16,16,8,,,,,3.0,,,,,,,,921.641562384511,6.008672089937136,None,,,,,,,,,,B02R06,2022-11-11_14h54.15.617,t2_paradigm,2021.1.4,60.003426364933205,
3,,1,ABLENKEN,,Stimuli/1111.jpg,,Trials/StimuliNegative.xlsx,23,"Denken Sie während des Betrachtens der Bilder an etwas Neutrales, das mit dem Bild nichts zu tun hat. Das könnten geometrische Figuren, Alltagstätigkeiten oder bekannte Orte sein.",,,,,,,,,0,1,1,0,0,17,17,4,,,,,4.9,,,,,,,,932.5886203701803,5.997822233143324,None,,,,,,,,,,B02R06,2022-11-11_14h54.15.617,t2_paradigm,2021.1.4,60.003426364933205,
3,,1,ABLENKEN,,Stimuli/3180.jpg,,Trials/StimuliNegative.xlsx,23,"Denken Sie während des Betrachtens der Bilder an etwas Neutrales, das mit dem Bild nichts zu tun hat. Das könnten geometrische Figuren, Alltagstätigkeiten oder bekannte Orte sein.",,,,,,,,,0,1,1,0,0,18,18,7,,,,,5.0,,,,,,,,943.632142343859,6.009600973186025,None,,,,,,,,,,B02R06,2022-11-11_14h54.15.617,t2_paradigm,2021.1.4,60.003426364933205,
3,,1,ABLENKEN,,Stimuli/3022.jpg,,Trials/StimuliNegative.xlsx,23,"Denken Sie während des Betrachtens der Bilder an etwas Neutrales, das mit dem Bild nichts zu tun hat. Das könnten geometrische Figuren, Alltagstätigkeiten oder bekannte Orte sein.",,,,,,,,,0,1,1,0,0,19,19,6,,,,,4.3,,,,,,,,953.9826211734694,6.009333103210793,None,,,,,,,,,,B02R06,2022-11-11_14h54.15.617,t2_paradigm,2021.1.4,60.003426364933205,
3,,1,ABLENKEN,,,,Trials/StimuliNegative.xlsx,23,"Denken Sie während des Betrachtens der Bilder an etwas Neutrales, das mit dem Bild nichts zu tun hat. Das könnten geometrische Figuren, Alltagstätigkeiten oder bekannte Orte sein.",,,,,,,,,0,1,1,0,,,,,,,,,,,,,168.88888888888889,13.06697326818039,68.88888888888889,7.669815128012942,,,,245.18518518518516,5.118138679012645,,,,,,,,B02R06,2022-11-11_14h54.15.617,t2_paradigm,2021.1.4,60.003426364933205,
4,,1,DISTANZIEREN,,Stimuli/3185.jpg,,Trials/StimuliNegative.xlsx,24,Nehmen Sie die Position eines uninvolvierten Beobachters ein. Denken Sie über das Bild in einer neutralen Weise nach.,,,,,,,,,0,2,2,1,0,0,0,9,,,,,3.7,,,,,,,,1001.7330282716707,6.008542325380404,None,,,,,,,,,,B02R06,2022-11-11_14h54.15.617,t2_paradigm,2021.1.4,60.003426364933205,
4,,1,DISTANZIEREN,,Stimuli/9904.jpg,,Trials/StimuliNegative.xlsx,24,Nehmen Sie die Position eines uninvolvierten Beobachters ein. Denken Sie über das Bild in einer neutralen Weise nach.,,,,,,,,,0,2,2,1,0,1,1,19,,,,,3.8,,,,,,,,1011.5824221476819,6.009467519402278,None,,,,,,,,,,B02R06,2022-11-11_14h54.15.617,t2_paradigm,2021.1.4,60.003426364933205,
4,,1,DISTANZIEREN,,Stimuli/218.jpg,,Trials/StimuliNegative.xlsx,24,Nehmen Sie die Position eines uninvolvierten Beobachters ein. Denken Sie über das Bild in einer neutralen Weise nach.,,,,,,,,,0,2,2,1,0,2,2,1,,,,,4.6,,,,,,,,1022.2131978734651,6.015060869040553,None,,,,,,,,,,B02R06,2022-11-11_14h54.15.617,t2_paradigm,2021.1.4,60.003426364933205,
4,,1,DISTANZIEREN,,Stimuli/246.jpg,,Trials/StimuliNegative.xlsx,24,Nehmen Sie die Position eines uninvolvierten Beobachters ein. Denken Sie über das Bild in einer neutralen Weise nach.,,,,,,,,,0,2,2,1,0,3,3,4,,,,,3.6,,,,,,,,1031.841997777481,6.007104489180165,None,,,,,,,,,,B02R06,2022-11-11_14h54.15.617,t2_paradigm,2021.1.4,60.003426364933205,
4,,1,DISTANZIEREN,,Stimuli/251.jpg,,Trials/StimuliNegative.xlsx,24,Nehmen Sie die Position eines uninvolvierten Beobachters ein. Denken Sie über das Bild in einer neutralen Weise nach.,,,,,,,,,0,2,2,1,0,4,4,5,,,,,3.9,,,,,,,,1041.7901115237341,6.011440293546457,None,,,,,,,,,,B02R06,2022-11-11_14h54.15.617,t2_paradigm,2021.1.4,60.003426364933205,
4,,1,DISTANZIEREN,,Stimuli/9042.jpg,,Trials/StimuliNegative.xlsx,24,Nehmen Sie die Position eines uninvolvierten Beobachters ein. Denken Sie über das Bild in einer neutralen Weise nach.,,,,,,,,,0,2,2,1,0,5,5,14,,,,,4.3,,,,,,,,1052.160800902353,6.003360404775776,None,,,,,,,,,,B02R06,2022-11-11_14h54.15.617,t2_paradigm,2021.1.4,60.003426364933205,
4,,1,DISTANZIEREN,,Stimuli/9043.jpg,,Trials/StimuliNegative.xlsx,24,Nehmen Sie die Position eines uninvolvierten Beobachters ein. Denken Sie über das Bild in einer neutralen Weise nach.,,,,,,,,,0,2,2,1,0,6,6,15,,,,,4.3,,,,,,,,1062.5295147800066,6.016314243881425,None,,,,,,,,,,B02R06,2022-11-11_14h54.15.617,t2_paradigm,2021.1.4,60.003426364933205,
4,,1,DISTANZIEREN,,Stimuli/9145.jpg,,Trials/StimuliNegative.xlsx,24,Nehmen Sie die Position eines uninvolvierten Beobachters ein. Denken Sie über das Bild in einer neutralen Weise nach.,,,,,,,,,0,2,2,1,0,7,7,16,,,,,3.4,,,,,,,,1071.9795725885929,6.0155592355149565,None,,,,,,,,,,B02R06,2022-11-11_14h54.15.617,t2_paradigm,2021.1.4,60.003426364933205,
4,,1,DISTANZIEREN,,Stimuli/228.jpg,,Trials/StimuliNegative.xlsx,24,Nehmen Sie die Position eines uninvolvierten Beobachters ein. Denken Sie über das Bild in einer neutralen Weise nach.,,,,,,,,,0,2,2,1,0,8,8,3,,,,,3.5,,,,,,,,1081.5146231342133,6.01203377792217,None,,,,,,,,,,B02R06,2022-11-11_14h54.15.617,t2_paradigm,2021.1.4,60.003426364933205,
4,,1,DISTANZIEREN,,Stimuli/3301.jpg,,Trials/StimuliNegative.xlsx,24,Nehmen Sie die Position eines uninvolvierten Beobachters ein. Denken Sie über das Bild in einer neutralen Weise nach.,,,,,,,,,0,2,2,1,0,9,9,10,,,,,4.3,,,,,,,,1091.8755033389111,6.005814542869302,None,,,,,,,,,,B02R06,2022-11-11_14h54.15.617,t2_paradigm,2021.1.4,60.003426364933205,
4,,1,DISTANZIEREN,,Stimuli/6562.jpg,,Trials/StimuliNegative.xlsx,24,Nehmen Sie die Position eines uninvolvierten Beobachters ein. Denken Sie über das Bild in einer neutralen Weise nach.,,,,,,,,,0,2,2,1,0,10,10,11,,,,,3.3,,,,,,,,1101.222929413214,6.012248073902356,None,,,,,,,,,,B02R06,2022-11-11_14h54.15.617,t2_paradigm,2021.1.4,60.003426364933205,
4,,1,DISTANZIEREN,,Stimuli/3051.jpg,,Trials/StimuliNegative.xlsx,24,Nehmen Sie die Position eines uninvolvierten Beobachters ein. Denken Sie über das Bild in einer neutralen Weise nach.,,,,,,,,,0,2,2,1,0,11,11,7,,,,,3.2,,,,,,,,1110.472454304911,5.996870091723849,None,,,,,,,,,,B02R06,2022-11-11_14h54.15.617,t2_paradigm,2021.1.4,60.003426364933205,
4,,1,DISTANZIEREN,,Stimuli/9160.jpg,,Trials/StimuliNegative.xlsx,24,Nehmen Sie die Position eines uninvolvierten Beobachters ein. Denken Sie über das Bild in einer neutralen Weise nach.,,,,,,,,,0,2,2,1,0,12,12,17,,,,,3.7,,,,,,,,1120.2167517220669,6.008843558802255,None,,,,,,,,,,B02R06,2022-11-11_14h54.15.617,t2_paradigm,2021.1.4,60.003426364933205,
4,,1,DISTANZIEREN,,Stimuli/222.jpg,,Trials/StimuliNegative.xlsx,24,Nehmen Sie die Position eines uninvolvierten Beobachters ein. Denken Sie über das Bild in einer neutralen Weise nach.,,,,,,,,,0,2,2,1,0,13,13,2,,,,,3.1,,,,,,,,1129.3481356891348,6.011253586570547,None,,,,,,,,,,B02R06,2022-11-11_14h54.15.617,t2_paradigm,2021.1.4,60.003426364933205,
4,,1,DISTANZIEREN,,Stimuli/2703.jpg,,Trials/StimuliNegative.xlsx,24,Nehmen Sie die Position eines uninvolvierten Beobachters ein. Denken Sie über das Bild in einer neutralen Weise nach.,,,,,,,,,0,2,2,1,0,14,14,6,,,,,3.2,,,,,,,,1138.595841631421,6.016966595490885,None,,,,,,,,,,B02R06,2022-11-11_14h54.15.617,t2_paradigm,2021.1.4,60.003426364933205,
4,,1,DISTANZIEREN,,Stimuli/3160.jpg,,Trials/StimuliNegative.xlsx,24,Nehmen Sie die Position eines uninvolvierten Beobachters ein. Denken Sie über das Bild in einer neutralen Weise nach.,,,,,,,,,0,2,2,1,0,15,15,8,,,,,3.7,,,,,,,,1148.3334179182234,6.009203659456944,None,,,,,,,,,,B02R06,2022-11-11_14h54.15.617,t2_paradigm,2021.1.4,60.003426364933205,
4,,1,DISTANZIEREN,,Stimuli/9184.jpg,,Trials/StimuliNegative.xlsx,24,Nehmen Sie die Position eines uninvolvierten Beobachters ein. Denken Sie über das Bild in einer neutralen Weise nach.,,,,,,,,,0,2,2,1,0,16,16,18,,,,,3.2,,,,,,,,1157.5685079866957,6.005799625559121,None,,,,,,,,,,B02R06,2022-11-11_14h54.15.617,t2_paradigm,2021.1.4,60.003426364933205,
4,,1,DISTANZIEREN,,Stimuli/210.jpg,,Trials/StimuliNegative.xlsx,24,Nehmen Sie die Position eines uninvolvierten Beobachters ein. Denken Sie über das Bild in einer neutralen Weise nach.,,,,,,,,,0,2,2,1,0,17,17,0,,,,,3.8,,,,,,,,1167.4079621222231,6.008348721153652,None,,,,,,,,,,B02R06,2022-11-11_14h54.15.617,t2_paradigm,2021.1.4,60.003426364933205,
4,,1,DISTANZIEREN,,Stimuli/9031.jpg,,Trials/StimuliNegative.xlsx,24,Nehmen Sie die Position eines uninvolvierten Beobachters ein. Denken Sie über das Bild in einer neutralen Weise nach.,,,,,,,,,0,2,2,1,0,18,18,12,,,,,3.1,,,,,,,,1176.5726848334907,5.996819244548533,None,,,,,,,,,,B02R06,2022-11-11_14h54.15.617,t2_paradigm,2021.1.4,60.003426364933205,
4,,1,DISTANZIEREN,,Stimuli/9040.jpg,,Trials/StimuliNegative.xlsx,24,Nehmen Sie die Position eines uninvolvierten Beobachters ein. Denken Sie über das Bild in einer neutralen Weise nach.,,,,,,,,,0,2,2,1,0,19,19,13,,,,,4.5,,,,,,,,1187.109825085718,6.006989802334829,None,,,,,,,,,,B02R06,2022-11-11_14h54.15.617,t2_paradigm,2021.1.4,60.003426364933205,
4,,1,DISTANZIEREN,,,,Trials/StimuliNegative.xlsx,24,Nehmen Sie die Position eines uninvolvierten Beobachters ein. Denken Sie über das Bild in einer neutralen Weise nach.,,,,,,,,,0,2,2,1,,,,,,,,,,,,,269.6296296296296,15.233775099576633,91.85185185185185,8.617905455692835,,,,62.962962962962955,5.568272196956968,,,,,,,,B02R06,2022-11-11_14h54.15.617,t2_paradigm,2021.1.4,60.003426364933205,
,,,,,,,,,,,,,,,,,,,,,,,,,,,,,,,,,,,,,,,,,,,1,17.442838472159565,,,,,,B02R06,2022-11-11_14h54.15.617,t2_paradigm,2021.1.4,60.003426364933205,
,,,,,,,,,,,,,,,,,,,,,,,,,,,,,,,,,,,,,,,,,,,,,space,14.6235230259108,,,,B02R06,2022-11-11_14h54.15.617,t2_paradigm,2021.1.4,60.003426364933205,
,,,,,Stimuli/223.jpg,,,,,,,,,,,,,,,,,,,,,0,0,0,0,4.9,,,,,,,,,,,,,,,,,1419.013778140783,6.014711675666149,None,B02R06,2022-11-11_14h54.15.617,t2_paradigm,2021.1.4,60.003426364933205,
,,,,,Stimuli/9423.jpg,,,,,,,,,,,,,,,,,,,,,0,1,1,19,3.3,,,,,,,,,,,,,,,,,1428.3656450822282,6.010970799286042,None,B02R06,2022-11-11_14h54.15.617,t2_paradigm,2021.1.4,60.003426364933205,
,,,,,Stimuli/9402.jpg,,,,,,,,,,,,,,,,,,,,,0,2,2,16,3.5,,,,,,,,,,,,,,,,,1437.9070080559886,6.011683782541695,None,B02R06,2022-11-11_14h54.15.617,t2_paradigm,2021.1.4,60.003426364933205,
,,,,,Stimuli/6020.jpg,,,,,,,,,,,,,,,,,,,,,0,3,3,10,4.0,,,,,,,,,,,,,,,,,1447.9439978519076,6.002720083254644,None,B02R06,2022-11-11_14h54.15.617,t2_paradigm,2021.1.4,60.003426364933205,
,,,,,Stimuli/9373.jpg,,,,,,,,,,,,,,,,,,,,,0,4,4,14,4.7,,,,,,,,,,,,,,,,,1458.6801664579316,6.015519616423262,None,B02R06,2022-11-11_14h54.15.617,t2_paradigm,2021.1.4,60.003426364933205,
,,,,,Stimuli/238.jpg,,,,,,,,,,,,,,,,,,,,,0,5,5,1,5.0,,,,,,,,,,,,,,,,,1469.7357826807784,6.0041803756212175,None,B02R06,2022-11-11_14h54.15.617,t2_paradigm,2021.1.4,60.003426364933205,
,,,,,Stimuli/3220.jpg,,,,,,,,,,,,,,,,,,,,,0,6,6,8,4.6,,,,,,,,,,,,,,,,,1480.386384313534,6.001626788794056,None,B02R06,2022-11-11_14h54.15.617,t2_paradigm,2021.1.4,60.003426364933205,
,,,,,Stimuli/3225.jpg,,,,,,,,,,,,,,,,,,,,,0,7,7,9,4.8,,,,,,,,,,,,,,,,,1491.233525836139,6.008012359872737,None,B02R06,2022-11-11_14h54.15.617,t2_paradigm,2021.1.4,60.003426364933205,
,,,,,Stimuli/245.jpg,,,,,,,,,,,,,,,,,,,,,0,8,8,2,4.5,,,,,,,,,,,,,,,,,1501.7789094259433,6.000530446711309,None,B02R06,2022-11-11_14h54.15.617,t2_paradigm,2021.1.4,60.003426364933205,
,,,,,Stimuli/9400.jpg,,,,,,,,,,,,,,,,,,,,,0,9,9,15,3.6,,,,,,,,,,,,,,,,,1511.4334604566175,6.008934666673667,None,B02R06,2022-11-11_14h54.15.617,t2_paradigm,2021.1.4,60.003426364933205,
,,,,,Stimuli/6571.jpg,,,,,,,,,,,,,,,,,,,,,0,10,10,11,4.2,,,,,,,,,,,,,,,,,1521.6702966523626,6.0016660870842315,None,B02R06,2022-11-11_14h54.15.617,t2_paradigm,2021.1.4,60.003426364933205,
,,,,,Stimuli/2981.jpg,,,,,,,,,,,,,,,,,,,,,0,11,11,3,4.5,,,,,,,,,,,,,,,,,1532.211830292982,6.002619511713419,None,B02R06,2022-11-11_14h54.15.617,t2_paradigm,2021.1.4,60.003426364933205,
,,,,,Stimuli/3101.jpg,,,,,,,,,,,,,,,,,,,,,0,12,12,5,3.3,,,,,,,,,,,,,,,,,1541.5593016004186,6.007902485063823,None,B02R06,2022-11-11_14h54.15.617,t2_paradigm,2021.1.4,60.003426364933205,
,,,,,Stimuli/9405.jpg,,,,,,,,,,,,,,,,,,,,,0,13,13,18,4.2,,,,,,,,,,,,,,,,,1551.8137963623576,6.015104337760931,None,B02R06,2022-11-11_14h54.15.617,t2_paradigm,2021.1.4,60.003426364933205,
,,,,,Stimuli/3016.jpg,,,,,,,,,,,,,,,,,,,,,0,14,14,4,4.3,,,,,,,,,,,,,,,,,1562.1582765085413,6.009276802396016,None,B02R06,2022-11-11_14h54.15.617,t2_paradigm,2021.1.4,60.003426364933205,
,,,,,Stimuli/8231.jpg,,,,,,,,,,,,,,,,,,,,,0,15,15,13,4.8,,,,,,,,,,,,,,,,,1573.0147668536729,6.012915824027004,None,B02R06,2022-11-11_14h54.15.617,t2_paradigm,2021.1.4,60.003426364933205,
,,,,,Stimuli/3215.jpg,,,,,,,,,,,,,,,,,,,,,0,16,16,7,4.2,,,,,,,,,,,,,,,,,1583.2622604247936,6.000294656972073,None,B02R06,2022-11-11_14h54.15.617,t2_paradigm,2021.1.4,60.003426364933205,
,,,,,Stimuli/6831.jpg,,,,,,,,,,,,,,,,,,,,,0,17,17,12,4.5,,,,,,,,,,,,,,,,,1593.815793357081,6.010552152199125,None,B02R06,2022-11-11_14h54.15.617,t2_paradigm,2021.1.4,60.003426364933205,
,,,,,Stimuli/9403.jpg,,,,,,,,,,,,,,,,,,,,,0,18,18,17,3.7,,,,,,,,,,,,,,,,,1603.5717217847905,5.999650967027264,None,B02R06,2022-11-11_14h54.15.617,t2_paradigm,2021.1.4,60.003426364933205,
,,,,,Stimuli/3181.jpg,,,,,,,,,,,,,,,,,,,,,0,19,19,6,3.8,,,,,,,,,,,,,,,,,1613.4082752253316,6.009546276382935,None,B02R06,2022-11-11_14h54.15.617,t2_paradigm,2021.1.4,60.003426364933205,
,,,,,,,,,,,,,,,,,,,,,,,,,,,,,,,,,,195.92592592592592,17.401850195560655,11.481481481481492,2.985567422391796,,,,161.11111111111111,13.269583059582146,,,,,,,,B02R06,2022-11-11_14h54.15.617,t2_paradigm,2021.1.4,60.003426364933205,
