Block,conds_view_File,n_reps,instr_1,TriggerBlockView,ImageFile,Trigger,conds_reg_File,TriggerBlockReg,instr_2,blocks_view.thisRepN,blocks_view.thisTrialN,blocks_view.thisN,blocks_view.thisIndex,trials_view.thisRepN,trials_view.thisTrialN,trials_view.thisN,trials_view.thisIndex,blocks_reg.thisRepN,blocks_reg.thisTrialN,blocks_reg.thisN,blocks_reg.thisIndex,trials_reg.thisRepN,trials_reg.thisTrialN,trials_reg.thisN,trials_reg.thisIndex,trials_choice.thisRepN,trials_choice.thisTrialN,trials_choice.thisN,trials_choice.thisIndex,Fix_jitter,image_view.started,image_view.lasted,image_view.stopped,slider_arousal.response,slider_arousal.rt,slider_effort.response,slider_effort.rt,image_reg.started,image_reg.lasted,image_reg.stopped,resp_choice.keys,resp_choice.rt,key_resp.keys,key_resp.rt,image.started,image.lased,image.stopped,participant,date,expName,psychopyVersion,frameRate,
,,,,,,,,,,,,,,,,,,,,,,,,,,,,,,,,,,,,,,,,,,,,,,,,B03E01,2022-08-30_10h18.35.942,t2_paradigm,2021.1.4,60.023010284220646,
1,Trials/StimuliNeutral.xlsx,1,ANSCHAUEN,21,Stimuli/7150.jpg,1,,,,0,0,0,0,0,0,0,14,,,,,,,,,,,,,4.8,115.01205122685678,6.03027104834382,None,,,,,,,,,,,,,,,B03E01,2022-08-30_10h18.35.942,t2_paradigm,2021.1.4,60.023010284220646,
1,Trials/StimuliNeutral.xlsx,1,ANSCHAUEN,21,Stimuli/7021.jpg,1,,,,0,0,0,0,0,1,1,10,,,,,,,,,,,,,3.7,124.75172406713364,6.004692908010384,None,,,,,,,,,,,,,,,B03E01,2022-08-30_10h18.35.942,t2_paradigm,2021.1.4,60.023010284220646,
1,Trials/StimuliNeutral.xlsx,1,ANSCHAUEN,21,Stimuli/107.jpg,1,,,,0,0,0,0,0,2,2,1,,,,,,,,,,,,,3.1,133.89876693550877,6.0101538788267135,None,,,,,,,,,,,,,,,B03E01,2022-08-30_10h18.35.942,t2_paradigm,2021.1.4,60.023010284220646,
1,Trials/StimuliNeutral.xlsx,1,ANSCHAUEN,21,Stimuli/7006.jpg,1,,,,0,0,0,0,0,3,3,8,,,,,,,,,,,,,3.9,143.84943793983894,6.00920462736849,None,,,,,,,,,,,,,,,B03E01,2022-08-30_10h18.35.942,t2_paradigm,2021.1.4,60.023010284220646,
1,Trials/StimuliNeutral.xlsx,1,ANSCHAUEN,21,Stimuli/7185.jpg,1,,,,0,0,0,0,0,4,4,15,,,,,,,,,,,,,4.7,154.59627555945372,6.015449348180482,None,,,,,,,,,,,,,,,B03E01,2022-08-30_10h18.35.942,t2_paradigm,2021.1.4,60.023010284220646,
1,Trials/StimuliNeutral.xlsx,1,ANSCHAUEN,21,Stimuli/7025.jpg,1,,,,0,0,0,0,0,5,5,11,,,,,,,,,,,,,3.6,164.22979263715797,6.014376620247731,None,,,,,,,,,,,,,,,B03E01,2022-08-30_10h18.35.942,t2_paradigm,2021.1.4,60.023010284220646,
1,Trials/StimuliNeutral.xlsx,1,ANSCHAUEN,21,Stimuli/7004.jpg,1,,,,0,0,0,0,0,6,6,7,,,,,,,,,,,,,4.3,174.5684101048605,6.004749369063575,None,,,,,,,,,,,,,,,B03E01,2022-08-30_10h18.35.942,t2_paradigm,2021.1.4,60.023010284220646,
1,Trials/StimuliNeutral.xlsx,1,ANSCHAUEN,21,Stimuli/7233.jpg,1,,,,0,0,0,0,0,7,7,18,,,,,,,,,,,,,4.9,185.51146496222736,6.0016667880368,None,,,,,,,,,,,,,,,B03E01,2022-08-30_10h18.35.942,t2_paradigm,2021.1.4,60.023010284220646,
1,Trials/StimuliNeutral.xlsx,1,ANSCHAUEN,21,Stimuli/7000.jpg,1,,,,0,0,0,0,0,8,8,5,,,,,,,,,,,,,3.8,195.35896718618324,6.006472714393567,None,,,,,,,,,,,,,,,B03E01,2022-08-30_10h18.35.942,t2_paradigm,2021.1.4,60.023010284220646,
1,Trials/StimuliNeutral.xlsx,1,ANSCHAUEN,21,Stimuli/7041.jpg,1,,,,0,0,0,0,0,9,9,12,,,,,,,,,,,,,3.6,204.9994536751492,6.009677199967882,None,,,,,,,,,,,,,,,B03E01,2022-08-30_10h18.35.942,t2_paradigm,2021.1.4,60.023010284220646,
1,Trials/StimuliNeutral.xlsx,1,ANSCHAUEN,21,Stimuli/140.jpg,1,,,,0,0,0,0,0,10,10,3,,,,,,,,,,,,,4.2,215.23430695500747,6.004830531827793,None,,,,,,,,,,,,,,,B03E01,2022-08-30_10h18.35.942,t2_paradigm,2021.1.4,60.023010284220646,
1,Trials/StimuliNeutral.xlsx,1,ANSCHAUEN,21,Stimuli/143.jpg,1,,,,0,0,0,0,0,11,11,4,,,,,,,,,,,,,4.2,225.4712576346733,5.997819095577597,None,,,,,,,,,,,,,,,B03E01,2022-08-30_10h18.35.942,t2_paradigm,2021.1.4,60.023010284220646,
1,Trials/StimuliNeutral.xlsx,1,ANSCHAUEN,21,Stimuli/124.jpg,1,,,,0,0,0,0,0,12,12,2,,,,,,,,,,,,,4.4,235.90502031795904,5.996609353350777,None,,,,,,,,,,,,,,,B03E01,2022-08-30_10h18.35.942,t2_paradigm,2021.1.4,60.023010284220646,
1,Trials/StimuliNeutral.xlsx,1,ANSCHAUEN,21,Stimuli/7009.jpg,1,,,,0,0,0,0,0,13,13,9,,,,,,,,,,,,,3.1,245.05263870411636,6.0025813608594945,None,,,,,,,,,,,,,,,B03E01,2022-08-30_10h18.35.942,t2_paradigm,2021.1.4,60.023010284220646,
1,Trials/StimuliNeutral.xlsx,1,ANSCHAUEN,21,Stimuli/7002.jpg,1,,,,0,0,0,0,0,14,14,6,,,,,,,,,,,,,4.3,255.39674604684387,6.013671145803528,None,,,,,,,,,,,,,,,B03E01,2022-08-30_10h18.35.942,t2_paradigm,2021.1.4,60.023010284220646,
1,Trials/StimuliNeutral.xlsx,1,ANSCHAUEN,21,Stimuli/7224.jpg,1,,,,0,0,0,0,0,15,15,17,,,,,,,,,,,,,4.8,266.2262182675245,6.0044273164990045,None,,,,,,,,,,,,,,,B03E01,2022-08-30_10h18.35.942,t2_paradigm,2021.1.4,60.023010284220646,
1,Trials/StimuliNeutral.xlsx,1,ANSCHAUEN,21,Stimuli/7211.jpg,1,,,,0,0,0,0,0,16,16,16,,,,,,,,,,,,,3.2,275.4615232358087,6.00088983903197,None,,,,,,,,,,,,,,,B03E01,2022-08-30_10h18.35.942,t2_paradigm,2021.1.4,60.023010284220646,
1,Trials/StimuliNeutral.xlsx,1,ANSCHAUEN,21,Stimuli/083.jpg,1,,,,0,0,0,0,0,17,17,0,,,,,,,,,,,,,4.0,285.4998012635083,6.007288512453215,None,,,,,,,,,,,,,,,B03E01,2022-08-30_10h18.35.942,t2_paradigm,2021.1.4,60.023010284220646,
1,Trials/StimuliNeutral.xlsx,1,ANSCHAUEN,21,Stimuli/7235.jpg,1,,,,0,0,0,0,0,18,18,19,,,,,,,,,,,,,3.7,295.2334581143996,6.006759831682302,None,,,,,,,,,,,,,,,B03E01,2022-08-30_10h18.35.942,t2_paradigm,2021.1.4,60.023010284220646,
1,Trials/StimuliNeutral.xlsx,1,ANSCHAUEN,21,Stimuli/7100.jpg,1,,,,0,0,0,0,0,19,19,13,,,,,,,,,,,,,4.5,305.7785437090356,6.016666148038439,None,,,,,,,,,,,,,,,B03E01,2022-08-30_10h18.35.942,t2_paradigm,2021.1.4,60.023010284220646,
1,Trials/StimuliNeutral.xlsx,1,ANSCHAUEN,21,,,,,,0,0,0,0,,,,,,,,,,,,,,,,,,,,,4.444444444444451,4.517774805730369,5.185185185185182,2.6684610160486955,,,,,,,,,,,B03E01,2022-08-30_10h18.35.942,t2_paradigm,2021.1.4,60.023010284220646,
2,Trials/StimuliNegative.xlsx,1,ANSCHAUEN,22,Stimuli/3220.jpg,,,,,0,1,1,1,0,0,0,8,,,,,,,,,,,,,4.1,329.56610707132995,6.007257715514697,None,,,,,,,,,,,,,,,B03E01,2022-08-30_10h18.35.942,t2_paradigm,2021.1.4,60.023010284220646,
2,Trials/StimuliNegative.xlsx,1,ANSCHAUEN,22,Stimuli/238.jpg,,,,,0,1,1,1,0,1,1,1,,,,,,,,,,,,,4.0,339.59471999327616,6.016962600647275,None,,,,,,,,,,,,,,,B03E01,2022-08-30_10h18.35.942,t2_paradigm,2021.1.4,60.023010284220646,
2,Trials/StimuliNegative.xlsx,1,ANSCHAUEN,22,Stimuli/9402.jpg,,,,,0,1,1,1,0,2,2,16,,,,,,,,,,,,,3.6,349.2336586152992,6.007097314795374,None,,,,,,,,,,,,,,,B03E01,2022-08-30_10h18.35.942,t2_paradigm,2021.1.4,60.023010284220646,
2,Trials/StimuliNegative.xlsx,1,ANSCHAUEN,22,Stimuli/9403.jpg,,,,,0,1,1,1,0,3,3,17,,,,,,,,,,,,,4.7,359.9737699911425,6.01001660789052,None,,,,,,,,,,,,,,,B03E01,2022-08-30_10h18.35.942,t2_paradigm,2021.1.4,60.023010284220646,
2,Trials/StimuliNegative.xlsx,1,ANSCHAUEN,22,Stimuli/8231.jpg,,,,,0,1,1,1,0,4,4,13,,,,,,,,,,,,,3.6,369.61315420636447,6.014138585579531,None,,,,,,,,,,,,,,,B03E01,2022-08-30_10h18.35.942,t2_paradigm,2021.1.4,60.023010284220646,
2,Trials/StimuliNegative.xlsx,1,ANSCHAUEN,22,Stimuli/9423.jpg,,,,,0,1,1,1,0,5,5,19,,,,,,,,,,,,,3.9,379.5609039927908,6.002517874253954,None,,,,,,,,,,,,,,,B03E01,2022-08-30_10h18.35.942,t2_paradigm,2021.1.4,60.023010284220646,
2,Trials/StimuliNegative.xlsx,1,ANSCHAUEN,22,Stimuli/3215.jpg,,,,,0,1,1,1,0,6,6,7,,,,,,,,,,,,,4.6,390.21023337342285,6.00175019641074,None,,,,,,,,,,,,,,,B03E01,2022-08-30_10h18.35.942,t2_paradigm,2021.1.4,60.023010284220646,
2,Trials/StimuliNegative.xlsx,1,ANSCHAUEN,22,Stimuli/3016.jpg,,,,,0,1,1,1,0,7,7,4,,,,,,,,,,,,,4.5,400.77915676058547,6.014713429678977,None,,,,,,,,,,,,,,,B03E01,2022-08-30_10h18.35.942,t2_paradigm,2021.1.4,60.023010284220646,
2,Trials/StimuliNegative.xlsx,1,ANSCHAUEN,22,Stimuli/2981.jpg,,,,,0,1,1,1,0,8,8,3,,,,,,,,,,,,,4.5,411.3191820333227,6.003019286903509,None,,,,,,,,,,,,,,,B03E01,2022-08-30_10h18.35.942,t2_paradigm,2021.1.4,60.023010284220646,
2,Trials/StimuliNegative.xlsx,1,ANSCHAUEN,22,Stimuli/223.jpg,,,,,0,1,1,1,0,9,9,0,,,,,,,,,,,,,3.9,421.2475204454777,6.011380334807654,None,,,,,,,,,,,,,,,B03E01,2022-08-30_10h18.35.942,t2_paradigm,2021.1.4,60.023010284220646,
2,Trials/StimuliNegative.xlsx,1,ANSCHAUEN,22,Stimuli/3225.jpg,,,,,0,1,1,1,0,10,10,9,,,,,,,,,,,,,4.6,431.91442749935595,6.010853193883122,None,,,,,,,,,,,,,,,B03E01,2022-08-30_10h18.35.942,t2_paradigm,2021.1.4,60.023010284220646,
2,Trials/StimuliNegative.xlsx,1,ANSCHAUEN,22,Stimuli/6020.jpg,,,,,0,1,1,1,0,11,11,10,,,,,,,,,,,,,3.3,441.24302986693465,6.004063527667768,None,,,,,,,,,,,,,,,B03E01,2022-08-30_10h18.35.942,t2_paradigm,2021.1.4,60.023010284220646,
2,Trials/StimuliNegative.xlsx,1,ANSCHAUEN,22,Stimuli/9373.jpg,,,,,0,1,1,1,0,12,12,14,,,,,,,,,,,,,3.4,450.6921826784546,6.006186880311816,None,,,,,,,,,,,,,,,B03E01,2022-08-30_10h18.35.942,t2_paradigm,2021.1.4,60.023010284220646,
2,Trials/StimuliNegative.xlsx,1,ANSCHAUEN,22,Stimuli/9405.jpg,,,,,0,1,1,1,0,13,13,18,,,,,,,,,,,,,4.3,461.0336857551006,6.006398288460332,None,,,,,,,,,,,,,,,B03E01,2022-08-30_10h18.35.942,t2_paradigm,2021.1.4,60.023010284220646,
2,Trials/StimuliNegative.xlsx,1,ANSCHAUEN,22,Stimuli/245.jpg,,,,,0,1,1,1,0,14,14,2,,,,,,,,,,,,,4.7,471.7677243597045,6.003548930078978,None,,,,,,,,,,,,,,,B03E01,2022-08-30_10h18.35.942,t2_paradigm,2021.1.4,60.023010284220646,
2,Trials/StimuliNegative.xlsx,1,ANSCHAUEN,22,Stimuli/3101.jpg,,,,,0,1,1,1,0,15,15,5,,,,,,,,,,,,,3.8,481.59605164004915,6.013710315658955,None,,,,,,,,,,,,,,,B03E01,2022-08-30_10h18.35.942,t2_paradigm,2021.1.4,60.023010284220646,
2,Trials/StimuliNegative.xlsx,1,ANSCHAUEN,22,Stimuli/9400.jpg,,,,,0,1,1,1,0,16,16,15,,,,,,,,,,,,,3.6,491.2409116150329,6.007853122986035,None,,,,,,,,,,,,,,,B03E01,2022-08-30_10h18.35.942,t2_paradigm,2021.1.4,60.023010284220646,
2,Trials/StimuliNegative.xlsx,1,ANSCHAUEN,22,Stimuli/6571.jpg,,,,,0,1,1,1,0,17,17,11,,,,,,,,,,,,,3.1,500.38948438547095,6.010640245888226,None,,,,,,,,,,,,,,,B03E01,2022-08-30_10h18.35.942,t2_paradigm,2021.1.4,60.023010284220646,
2,Trials/StimuliNegative.xlsx,1,ANSCHAUEN,22,Stimuli/6831.jpg,,,,,0,1,1,1,0,18,18,12,,,,,,,,,,,,,4.5,510.94644637017973,6.012838986870975,None,,,,,,,,,,,,,,,B03E01,2022-08-30_10h18.35.942,t2_paradigm,2021.1.4,60.023010284220646,
2,Trials/StimuliNegative.xlsx,1,ANSCHAUEN,22,Stimuli/3181.jpg,,,,,0,1,1,1,0,19,19,6,,,,,,,,,,,,,3.3,520.2886526435805,6.012146087842666,None,,,,,,,,,,,,,,,B03E01,2022-08-30_10h18.35.942,t2_paradigm,2021.1.4,60.023010284220646,
2,Trials/StimuliNegative.xlsx,1,ANSCHAUEN,22,,,,,,0,1,1,1,,,,,,,,,,,,,,,,,,,,,212.59259259259258,3.4007153230486438,4.444444444444451,4.068218746801904,,,,,,,,,,,B03E01,2022-08-30_10h18.35.942,t2_paradigm,2021.1.4,60.023010284220646,
4,,1,DISTANZIEREN,,Stimuli/6561.jpg,,Trials/StimuliNegative.xlsx,24,Nehmen Sie die Position eines uninvolvierten Beobachters ein. Denken Sie über das Bild in einer neutralen Weise nach.,,,,,,,,,0,0,0,1,0,0,0,6,,,,,4.9,,,,,,,,545.2212291635456,5.997071949026122,None,,,,,,,,B03E01,2022-08-30_10h18.35.942,t2_paradigm,2021.1.4,60.023010284220646,
4,,1,DISTANZIEREN,,Stimuli/9230.jpg,,Trials/StimuliNegative.xlsx,24,Nehmen Sie die Position eines uninvolvierten Beobachters ein. Denken Sie über das Bild in einer neutralen Weise nach.,,,,,,,,,0,0,0,1,0,1,1,11,,,,,3.8,,,,,,,,555.0464539731738,6.013617283241729,None,,,,,,,,B03E01,2022-08-30_10h18.35.942,t2_paradigm,2021.1.4,60.023010284220646,
4,,1,DISTANZIEREN,,Stimuli/3230.jpg,,Trials/StimuliNegative.xlsx,24,Nehmen Sie die Position eines uninvolvierten Beobachters ein. Denken Sie über das Bild in einer neutralen Weise nach.,,,,,,,,,0,0,0,1,0,2,2,5,,,,,3.3,,,,,,,,564.3784844249299,6.015817660311768,None,,,,,,,,B03E01,2022-08-30_10h18.35.942,t2_paradigm,2021.1.4,60.023010284220646,
4,,1,DISTANZIEREN,,Stimuli/6838.jpg,,Trials/StimuliNegative.xlsx,24,Nehmen Sie die Position eines uninvolvierten Beobachters ein. Denken Sie über das Bild in einer neutralen Weise nach.,,,,,,,,,0,0,0,1,0,3,3,7,,,,,4.3,,,,,,,,574.7192137285051,6.001444151837859,None,,,,,,,,B03E01,2022-08-30_10h18.35.942,t2_paradigm,2021.1.4,60.023010284220646,
4,,1,DISTANZIEREN,,Stimuli/9421.jpg,,Trials/StimuliNegative.xlsx,24,Nehmen Sie die Position eines uninvolvierten Beobachters ein. Denken Sie über das Bild in einer neutralen Weise nach.,,,,,,,,,0,0,0,1,0,4,4,17,,,,,4.4,,,,,,,,585.1589648122526,6.004503314360136,None,,,,,,,,B03E01,2022-08-30_10h18.35.942,t2_paradigm,2021.1.4,60.023010284220646,
4,,1,DISTANZIEREN,,Stimuli/3061.jpg,,Trials/StimuliNegative.xlsx,24,Nehmen Sie die Position eines uninvolvierten Beobachters ein. Denken Sie über das Bild in einer neutralen Weise nach.,,,,,,,,,0,0,0,1,0,5,5,4,,,,,3.1,,,,,,,,594.3070733830082,6.007495750182898,None,,,,,,,,B03E01,2022-08-30_10h18.35.942,t2_paradigm,2021.1.4,60.023010284220646,
4,,1,DISTANZIEREN,,Stimuli/9420.jpg,,Trials/StimuliNegative.xlsx,24,Nehmen Sie die Position eines uninvolvierten Beobachters ein. Denken Sie über das Bild in einer neutralen Weise nach.,,,,,,,,,0,0,0,1,0,6,6,16,,,,,4.7,,,,,,,,605.0629842297221,6.013628479212457,None,,,,,,,,B03E01,2022-08-30_10h18.35.942,t2_paradigm,2021.1.4,60.023010284220646,
4,,1,DISTANZIEREN,,Stimuli/2800.jpg,,Trials/StimuliNegative.xlsx,24,Nehmen Sie die Position eines uninvolvierten Beobachters ein. Denken Sie über das Bild in einer neutralen Weise nach.,,,,,,,,,0,0,0,1,0,7,7,3,,,,,4.6,,,,,,,,615.6974768646023,6.01144706150717,None,,,,,,,,B03E01,2022-08-30_10h18.35.942,t2_paradigm,2021.1.4,60.023010284220646,
4,,1,DISTANZIEREN,,Stimuli/9120.jpg,,Trials/StimuliNegative.xlsx,24,Nehmen Sie die Position eines uninvolvierten Beobachters ein. Denken Sie über das Bild in einer neutralen Weise nach.,,,,,,,,,0,0,0,1,0,8,8,8,,,,,3.5,,,,,,,,625.2404233552429,6.0075923114159195,None,,,,,,,,B03E01,2022-08-30_10h18.35.942,t2_paradigm,2021.1.4,60.023010284220646,
4,,1,DISTANZIEREN,,Stimuli/9599.jpg,,Trials/StimuliNegative.xlsx,24,Nehmen Sie die Position eines uninvolvierten Beobachters ein. Denken Sie über das Bild in einer neutralen Weise nach.,,,,,,,,,0,0,0,1,0,9,9,18,,,,,4.3,,,,,,,,635.5967788969115,6.0122009128085665,None,,,,,,,,B03E01,2022-08-30_10h18.35.942,t2_paradigm,2021.1.4,60.023010284220646,
4,,1,DISTANZIEREN,,Stimuli/252.jpg,,Trials/StimuliNegative.xlsx,24,Nehmen Sie die Position eines uninvolvierten Beobachters ein. Denken Sie über das Bild in einer neutralen Weise nach.,,,,,,,,,0,0,0,1,0,10,10,1,,,,,4.7,,,,,,,,646.3516936551569,6.001986594991195,None,,,,,,,,B03E01,2022-08-30_10h18.35.942,t2_paradigm,2021.1.4,60.023010284220646,
4,,1,DISTANZIEREN,,Stimuli/9181.jpg,,Trials/StimuliNegative.xlsx,24,Nehmen Sie die Position eines uninvolvierten Beobachters ein. Denken Sie über das Bild in einer neutralen Weise nach.,,,,,,,,,0,0,0,1,0,11,11,9,,,,,4.3,,,,,,,,656.7014361959623,6.00380874716484,None,,,,,,,,B03E01,2022-08-30_10h18.35.942,t2_paradigm,2021.1.4,60.023010284220646,
4,,1,DISTANZIEREN,,Stimuli/9295.jpg,,Trials/StimuliNegative.xlsx,24,Nehmen Sie die Position eines uninvolvierten Beobachters ein. Denken Sie über das Bild in einer neutralen Weise nach.,,,,,,,,,0,0,0,1,0,12,12,13,,,,,4.6,,,,,,,,667.3463337047147,6.013256991146591,None,,,,,,,,B03E01,2022-08-30_10h18.35.942,t2_paradigm,2021.1.4,60.023010284220646,
4,,1,DISTANZIEREN,,Stimuli/9905.jpg,,Trials/StimuliNegative.xlsx,24,Nehmen Sie die Position eines uninvolvierten Beobachters ein. Denken Sie über das Bild in einer neutralen Weise nach.,,,,,,,,,0,0,0,1,0,13,13,19,,,,,3.4,,,,,,,,676.7816792223002,6.010036176778158,None,,,,,,,,B03E01,2022-08-30_10h18.35.942,t2_paradigm,2021.1.4,60.023010284220646,
4,,1,DISTANZIEREN,,Stimuli/9254.jpg,,Trials/StimuliNegative.xlsx,24,Nehmen Sie die Position eines uninvolvierten Beobachters ein. Denken Sie über das Bild in einer neutralen Weise nach.,,,,,,,,,0,0,0,1,0,14,14,12,,,,,3.5,,,,,,,,686.331752316908,6.0098516838711475,None,,,,,,,,B03E01,2022-08-30_10h18.35.942,t2_paradigm,2021.1.4,60.023010284220646,
4,,1,DISTANZIEREN,,Stimuli/9411.jpg,,Trials/StimuliNegative.xlsx,24,Nehmen Sie die Position eines uninvolvierten Beobachters ein. Denken Sie über das Bild in einer neutralen Weise nach.,,,,,,,,,0,0,0,1,0,15,15,15,,,,,3.4,,,,,,,,695.7708871410914,5.9967145762234395,None,,,,,,,,B03E01,2022-08-30_10h18.35.942,t2_paradigm,2021.1.4,60.023010284220646,
4,,1,DISTANZIEREN,,Stimuli/227.jpg,,Trials/StimuliNegative.xlsx,24,Nehmen Sie die Position eines uninvolvierten Beobachters ein. Denken Sie über das Bild in einer neutralen Weise nach.,,,,,,,,,0,0,0,1,0,16,16,0,,,,,4.9,,,,,,,,706.7142798023733,6.0099456786929295,None,,,,,,,,B03E01,2022-08-30_10h18.35.942,t2_paradigm,2021.1.4,60.023010284220646,
4,,1,DISTANZIEREN,,Stimuli/9332.jpg,,Trials/StimuliNegative.xlsx,24,Nehmen Sie die Position eines uninvolvierten Beobachters ein. Denken Sie über das Bild in einer neutralen Weise nach.,,,,,,,,,0,0,0,1,0,17,17,14,,,,,4.6,,,,,,,,717.3667652275622,6.005893956518321,None,,,,,,,,B03E01,2022-08-30_10h18.35.942,t2_paradigm,2021.1.4,60.023010284220646,
4,,1,DISTANZIEREN,,Stimuli/9185.jpg,,Trials/StimuliNegative.xlsx,24,Nehmen Sie die Position eines uninvolvierten Beobachters ein. Denken Sie über das Bild in einer neutralen Weise nach.,,,,,,,,,0,0,0,1,0,18,18,10,,,,,3.7,,,,,,,,727.1099075354014,6.002847978934824,None,,,,,,,,B03E01,2022-08-30_10h18.35.942,t2_paradigm,2021.1.4,60.023010284220646,
4,,1,DISTANZIEREN,,Stimuli/1051.jpg,,Trials/StimuliNegative.xlsx,24,Nehmen Sie die Position eines uninvolvierten Beobachters ein. Denken Sie über das Bild in einer neutralen Weise nach.,,,,,,,,,0,0,0,1,0,19,19,2,,,,,3.2,,,,,,,,736.3575819655698,6.005646971490478,None,,,,,,,,B03E01,2022-08-30_10h18.35.942,t2_paradigm,2021.1.4,60.023010284220646,
4,,1,DISTANZIEREN,,,,Trials/StimuliNegative.xlsx,24,Nehmen Sie die Position eines uninvolvierten Beobachters ein. Denken Sie über das Bild in einer neutralen Weise nach.,,,,,,,,,0,0,0,1,,,,,,,,,,,,,241.1111111111111,2.9003420705744247,242.5925925925926,3.7184819804228937,,,,,,,,,,,B03E01,2022-08-30_10h18.35.942,t2_paradigm,2021.1.4,60.023010284220646,
3,,1,ABLENKEN,,Stimuli/9040.jpg,,Trials/StimuliNegative.xlsx,23,"Denken Sie während des Betrachtens der Bilder an etwas Neutrales, das mit dem Bild nichts zu tun hat. Das könnten geometrische Figuren, Alltagstätigkeiten oder bekannte Orte sein.",,,,,,,,,0,1,1,0,0,0,0,13,,,,,4.7,,,,,,,,761.7792700034934,6.0139255413446335,None,,,,,,,,B03E01,2022-08-30_10h18.35.942,t2_paradigm,2021.1.4,60.023010284220646,
3,,1,ABLENKEN,,Stimuli/9043.jpg,,Trials/StimuliNegative.xlsx,23,"Denken Sie während des Betrachtens der Bilder an etwas Neutrales, das mit dem Bild nichts zu tun hat. Das könnten geometrische Figuren, Alltagstätigkeiten oder bekannte Orte sein.",,,,,,,,,0,1,1,0,0,1,1,15,,,,,4.1,,,,,,,,771.9293425206588,6.01420239298659,None,,,,,,,,B03E01,2022-08-30_10h18.35.942,t2_paradigm,2021.1.4,60.023010284220646,
3,,1,ABLENKEN,,Stimuli/9042.jpg,,Trials/StimuliNegative.xlsx,23,"Denken Sie während des Betrachtens der Bilder an etwas Neutrales, das mit dem Bild nichts zu tun hat. Das könnten geometrische Figuren, Alltagstätigkeiten oder bekannte Orte sein.",,,,,,,,,0,1,1,0,0,2,2,14,,,,,4.7,,,,,,,,782.679331372809,6.013743326127496,None,,,,,,,,B03E01,2022-08-30_10h18.35.942,t2_paradigm,2021.1.4,60.023010284220646,
3,,1,ABLENKEN,,Stimuli/3301.jpg,,Trials/StimuliNegative.xlsx,23,"Denken Sie während des Betrachtens der Bilder an etwas Neutrales, das mit dem Bild nichts zu tun hat. Das könnten geometrische Figuren, Alltagstätigkeiten oder bekannte Orte sein.",,,,,,,,,0,1,1,0,0,3,3,10,,,,,4.4,,,,,,,,793.1286943092709,6.013745250936154,None,,,,,,,,B03E01,2022-08-30_10h18.35.942,t2_paradigm,2021.1.4,60.023010284220646,
3,,1,ABLENKEN,,Stimuli/3051.jpg,,Trials/StimuliNegative.xlsx,23,"Denken Sie während des Betrachtens der Bilder an etwas Neutrales, das mit dem Bild nichts zu tun hat. Das könnten geometrische Figuren, Alltagstätigkeiten oder bekannte Orte sein.",,,,,,,,,0,1,1,0,0,4,4,7,,,,,3.5,,,,,,,,802.6811281816686,6.010247873648041,None,,,,,,,,B03E01,2022-08-30_10h18.35.942,t2_paradigm,2021.1.4,60.023010284220646,
3,,1,ABLENKEN,,Stimuli/210.jpg,,Trials/StimuliNegative.xlsx,23,"Denken Sie während des Betrachtens der Bilder an etwas Neutrales, das mit dem Bild nichts zu tun hat. Das könnten geometrische Figuren, Alltagstätigkeiten oder bekannte Orte sein.",,,,,,,,,0,1,1,0,0,5,5,0,,,,,5.0,,,,,,,,813.7130116742851,6.011772354165714,None,,,,,,,,B03E01,2022-08-30_10h18.35.942,t2_paradigm,2021.1.4,60.023010284220646,
3,,1,ABLENKEN,,Stimuli/3160.jpg,,Trials/StimuliNegative.xlsx,23,"Denken Sie während des Betrachtens der Bilder an etwas Neutrales, das mit dem Bild nichts zu tun hat. Das könnten geometrische Figuren, Alltagstätigkeiten oder bekannte Orte sein.",,,,,,,,,0,1,1,0,0,6,6,8,,,,,4.3,,,,,,,,824.0686566407662,6.001742144294894,None,,,,,,,,B03E01,2022-08-30_10h18.35.942,t2_paradigm,2021.1.4,60.023010284220646,
3,,1,ABLENKEN,,Stimuli/6562.jpg,,Trials/StimuliNegative.xlsx,23,"Denken Sie während des Betrachtens der Bilder an etwas Neutrales, das mit dem Bild nichts zu tun hat. Das könnten geometrische Figuren, Alltagstätigkeiten oder bekannte Orte sein.",,,,,,,,,0,1,1,0,0,7,7,11,,,,,3.9,,,,,,,,834.00897987388,6.003661531383841,None,,,,,,,,B03E01,2022-08-30_10h18.35.942,t2_paradigm,2021.1.4,60.023010284220646,
3,,1,ABLENKEN,,Stimuli/222.jpg,,Trials/StimuliNegative.xlsx,23,"Denken Sie während des Betrachtens der Bilder an etwas Neutrales, das mit dem Bild nichts zu tun hat. Das könnten geometrische Figuren, Alltagstätigkeiten oder bekannte Orte sein.",,,,,,,,,0,1,1,0,0,8,8,2,,,,,3.2,,,,,,,,843.2473340598417,6.01011252752096,None,,,,,,,,B03E01,2022-08-30_10h18.35.942,t2_paradigm,2021.1.4,60.023010284220646,
3,,1,ABLENKEN,,Stimuli/251.jpg,,Trials/StimuliNegative.xlsx,23,"Denken Sie während des Betrachtens der Bilder an etwas Neutrales, das mit dem Bild nichts zu tun hat. Das könnten geometrische Figuren, Alltagstätigkeiten oder bekannte Orte sein.",,,,,,,,,0,1,1,0,0,9,9,5,,,,,3.5,,,,,,,,852.7932229412809,6.00156348997325,None,,,,,,,,B03E01,2022-08-30_10h18.35.942,t2_paradigm,2021.1.4,60.023010284220646,
3,,1,ABLENKEN,,Stimuli/9160.jpg,,Trials/StimuliNegative.xlsx,23,"Denken Sie während des Betrachtens der Bilder an etwas Neutrales, das mit dem Bild nichts zu tun hat. Das könnten geometrische Figuren, Alltagstätigkeiten oder bekannte Orte sein.",,,,,,,,,0,1,1,0,0,10,10,17,,,,,4.1,,,,,,,,862.9393508839521,6.009707355303362,None,,,,,,,,B03E01,2022-08-30_10h18.35.942,t2_paradigm,2021.1.4,60.023010284220646,
3,,1,ABLENKEN,,Stimuli/9031.jpg,,Trials/StimuliNegative.xlsx,23,"Denken Sie während des Betrachtens der Bilder an etwas Neutrales, das mit dem Bild nichts zu tun hat. Das könnten geometrische Figuren, Alltagstätigkeiten oder bekannte Orte sein.",,,,,,,,,0,1,1,0,0,11,11,12,,,,,5.0,,,,,,,,873.9990558813652,6.0072827059480005,None,,,,,,,,B03E01,2022-08-30_10h18.35.942,t2_paradigm,2021.1.4,60.023010284220646,
3,,1,ABLENKEN,,Stimuli/9145.jpg,,Trials/StimuliNegative.xlsx,23,"Denken Sie während des Betrachtens der Bilder an etwas Neutrales, das mit dem Bild nichts zu tun hat. Das könnten geometrische Figuren, Alltagstätigkeiten oder bekannte Orte sein.",,,,,,,,,0,1,1,0,0,12,12,16,,,,,4.1,,,,,,,,884.1469004325368,6.0112612853940846,None,,,,,,,,B03E01,2022-08-30_10h18.35.942,t2_paradigm,2021.1.4,60.023010284220646,
3,,1,ABLENKEN,,Stimuli/218.jpg,,Trials/StimuliNegative.xlsx,23,"Denken Sie während des Betrachtens der Bilder an etwas Neutrales, das mit dem Bild nichts zu tun hat. Das könnten geometrische Figuren, Alltagstätigkeiten oder bekannte Orte sein.",,,,,,,,,0,1,1,0,0,13,13,1,,,,,4.5,,,,,,,,894.6874697845146,5.99623305326304,None,,,,,,,,B03E01,2022-08-30_10h18.35.942,t2_paradigm,2021.1.4,60.023010284220646,
3,,1,ABLENKEN,,Stimuli/9904.jpg,,Trials/StimuliNegative.xlsx,23,"Denken Sie während des Betrachtens der Bilder an etwas Neutrales, das mit dem Bild nichts zu tun hat. Das könnten geometrische Figuren, Alltagstätigkeiten oder bekannte Orte sein.",,,,,,,,,0,1,1,0,0,14,14,19,,,,,3.3,,,,,,,,904.0343215835528,6.002706794222377,None,,,,,,,,B03E01,2022-08-30_10h18.35.942,t2_paradigm,2021.1.4,60.023010284220646,
3,,1,ABLENKEN,,Stimuli/3185.jpg,,Trials/StimuliNegative.xlsx,23,"Denken Sie während des Betrachtens der Bilder an etwas Neutrales, das mit dem Bild nichts zu tun hat. Das könnten geometrische Figuren, Alltagstätigkeiten oder bekannte Orte sein.",,,,,,,,,0,1,1,0,0,15,15,9,,,,,4.4,,,,,,,,914.4829059349227,6.0053524436893895,None,,,,,,,,B03E01,2022-08-30_10h18.35.942,t2_paradigm,2021.1.4,60.023010284220646,
3,,1,ABLENKEN,,Stimuli/2703.jpg,,Trials/StimuliNegative.xlsx,23,"Denken Sie während des Betrachtens der Bilder an etwas Neutrales, das mit dem Bild nichts zu tun hat. Das könnten geometrische Figuren, Alltagstätigkeiten oder bekannte Orte sein.",,,,,,,,,0,1,1,0,0,16,16,6,,,,,3.1,,,,,,,,923.6295763528278,6.012471348421968,None,,,,,,,,B03E01,2022-08-30_10h18.35.942,t2_paradigm,2021.1.4,60.023010284220646,
3,,1,ABLENKEN,,Stimuli/228.jpg,,Trials/StimuliNegative.xlsx,23,"Denken Sie während des Betrachtens der Bilder an etwas Neutrales, das mit dem Bild nichts zu tun hat. Das könnten geometrische Figuren, Alltagstätigkeiten oder bekannte Orte sein.",,,,,,,,,0,1,1,0,0,17,17,3,,,,,4.3,,,,,,,,933.9639778480191,6.009561069847223,None,,,,,,,,B03E01,2022-08-30_10h18.35.942,t2_paradigm,2021.1.4,60.023010284220646,
3,,1,ABLENKEN,,Stimuli/9184.jpg,,Trials/StimuliNegative.xlsx,23,"Denken Sie während des Betrachtens der Bilder an etwas Neutrales, das mit dem Bild nichts zu tun hat. Das könnten geometrische Figuren, Alltagstätigkeiten oder bekannte Orte sein.",,,,,,,,,0,1,1,0,0,18,18,18,,,,,3.6,,,,,,,,943.6187951788675,6.000601695179284,None,,,,,,,,B03E01,2022-08-30_10h18.35.942,t2_paradigm,2021.1.4,60.023010284220646,
3,,1,ABLENKEN,,Stimuli/246.jpg,,Trials/StimuliNegative.xlsx,23,"Denken Sie während des Betrachtens der Bilder an etwas Neutrales, das mit dem Bild nichts zu tun hat. Das könnten geometrische Figuren, Alltagstätigkeiten oder bekannte Orte sein.",,,,,,,,,0,1,1,0,0,19,19,4,,,,,3.6,,,,,,,,953.2538719931681,5.996307479197185,None,,,,,,,,B03E01,2022-08-30_10h18.35.942,t2_paradigm,2021.1.4,60.023010284220646,
3,,1,ABLENKEN,,,,Trials/StimuliNegative.xlsx,23,"Denken Sie während des Betrachtens der Bilder an etwas Neutrales, das mit dem Bild nichts zu tun hat. Das könnten geometrische Figuren, Alltagstätigkeiten oder bekannte Orte sein.",,,,,,,,,0,1,1,0,,,,,,,,,,,,,262.59259259259255,2.8493407370028763,226.2962962962963,3.3689768326826197,,,,,,,,,,,B03E01,2022-08-30_10h18.35.942,t2_paradigm,2021.1.4,60.023010284220646,
5,,1,UNTERDRÜCKEN,,Stimuli/6242.jpg,,Trials/StimuliNegative.xlsx,25,"Unterdrücken Sie alle aufkommenden Emotionen. Wenn Sie also die Bilder ansehen, verhalten Sie sich so, dass eine außenstehende Person nicht sehen kann, welche Emotionen Sie gerade empfinden.",,,,,,,,,0,2,2,2,0,0,0,8,,,,,3.3,,,,,,,,983.2836965821493,6.003652196062376,None,,,,,,,,B03E01,2022-08-30_10h18.35.942,t2_paradigm,2021.1.4,60.023010284220646,
5,,1,UNTERDRÜCKEN,,Stimuli/254.jpg,,Trials/StimuliNegative.xlsx,25,"Unterdrücken Sie alle aufkommenden Emotionen. Wenn Sie also die Bilder ansehen, verhalten Sie sich so, dass eine außenstehende Person nicht sehen kann, welche Emotionen Sie gerade empfinden.",,,,,,,,,0,2,2,2,0,1,1,4,,,,,4.6,,,,,,,,993.9134416765341,6.010461238685366,None,,,,,,,,B03E01,2022-08-30_10h18.35.942,t2_paradigm,2021.1.4,60.023010284220646,
5,,1,UNTERDRÜCKEN,,Stimuli/226.jpg,,Trials/StimuliNegative.xlsx,25,"Unterdrücken Sie alle aufkommenden Emotionen. Wenn Sie also die Bilder ansehen, verhalten Sie sich so, dass eine außenstehende Person nicht sehen kann, welche Emotionen Sie gerade empfinden.",,,,,,,,,0,2,2,2,0,2,2,2,,,,,4.9,,,,,,,,1004.8434886771529,6.000379123140647,None,,,,,,,,B03E01,2022-08-30_10h18.35.942,t2_paradigm,2021.1.4,60.023010284220646,
5,,1,UNTERDRÜCKEN,,Stimuli/8230.jpg,,Trials/StimuliNegative.xlsx,25,"Unterdrücken Sie alle aufkommenden Emotionen. Wenn Sie also die Bilder ansehen, verhalten Sie sich so, dass eine außenstehende Person nicht sehen kann, welche Emotionen Sie gerade empfinden.",,,,,,,,,0,2,2,2,0,3,3,13,,,,,4.1,,,,,,,,1014.9971269023122,6.0092254794617475,None,,,,,,,,B03E01,2022-08-30_10h18.35.942,t2_paradigm,2021.1.4,60.023010284220646,
5,,1,UNTERDRÜCKEN,,Stimuli/208.jpg,,Trials/StimuliNegative.xlsx,25,"Unterdrücken Sie alle aufkommenden Emotionen. Wenn Sie also die Bilder ansehen, verhalten Sie sich so, dass eine außenstehende Person nicht sehen kann, welche Emotionen Sie gerade empfinden.",,,,,,,,,0,2,2,2,0,4,4,0,,,,,4.1,,,,,,,,1025.1377992957123,6.011413698157867,None,,,,,,,,B03E01,2022-08-30_10h18.35.942,t2_paradigm,2021.1.4,60.023010284220646,
5,,1,UNTERDRÜCKEN,,Stimuli/6825.jpg,,Trials/StimuliNegative.xlsx,25,"Unterdrücken Sie alle aufkommenden Emotionen. Wenn Sie also die Bilder ansehen, verhalten Sie sich so, dass eine außenstehende Person nicht sehen kann, welche Emotionen Sie gerade empfinden.",,,,,,,,,0,2,2,2,0,5,5,11,,,,,4.5,,,,,,,,1035.707188807366,6.006157334499221,None,,,,,,,,B03E01,2022-08-30_10h18.35.942,t2_paradigm,2021.1.4,60.023010284220646,
5,,1,UNTERDRÜCKEN,,Stimuli/9041.jpg,,Trials/StimuliNegative.xlsx,25,"Unterdrücken Sie alle aufkommenden Emotionen. Wenn Sie also die Bilder ansehen, verhalten Sie sich so, dass eine außenstehende Person nicht sehen kann, welche Emotionen Sie gerade empfinden.",,,,,,,,,0,2,2,2,0,6,6,14,,,,,3.9,,,,,,,,1045.656409789192,6.008318285073074,None,,,,,,,,B03E01,2022-08-30_10h18.35.942,t2_paradigm,2021.1.4,60.023010284220646,
5,,1,UNTERDRÜCKEN,,Stimuli/9340.jpg,,Trials/StimuliNegative.xlsx,25,"Unterdrücken Sie alle aufkommenden Emotionen. Wenn Sie also die Bilder ansehen, verhalten Sie sich so, dass eine außenstehende Person nicht sehen kann, welche Emotionen Sie gerade empfinden.",,,,,,,,,0,2,2,2,0,7,7,16,,,,,4.3,,,,,,,,1056.0258229118313,6.003528398787694,None,,,,,,,,B03E01,2022-08-30_10h18.35.942,t2_paradigm,2021.1.4,60.023010284220646,
5,,1,UNTERDRÜCKEN,,Stimuli/326.jpg,,Trials/StimuliNegative.xlsx,25,"Unterdrücken Sie alle aufkommenden Emotionen. Wenn Sie also die Bilder ansehen, verhalten Sie sich so, dass eine außenstehende Person nicht sehen kann, welche Emotionen Sie gerade empfinden.",,,,,,,,,0,2,2,2,0,8,8,5,,,,,4.2,,,,,,,,1066.2790433572768,6.012361955131382,None,,,,,,,,B03E01,2022-08-30_10h18.35.942,t2_paradigm,2021.1.4,60.023010284220646,
5,,1,UNTERDRÜCKEN,,Stimuli/219.jpg,,Trials/StimuliNegative.xlsx,25,"Unterdrücken Sie alle aufkommenden Emotionen. Wenn Sie also die Bilder ansehen, verhalten Sie sich so, dass eine außenstehende Person nicht sehen kann, welche Emotionen Sie gerade empfinden.",,,,,,,,,0,2,2,2,0,9,9,1,,,,,4.2,,,,,,,,1076.5154884538752,6.005872494901723,None,,,,,,,,B03E01,2022-08-30_10h18.35.942,t2_paradigm,2021.1.4,60.023010284220646,
5,,1,UNTERDRÜCKEN,,Stimuli/253.jpg,,Trials/StimuliNegative.xlsx,25,"Unterdrücken Sie alle aufkommenden Emotionen. Wenn Sie also die Bilder ansehen, verhalten Sie sich so, dass eine außenstehende Person nicht sehen kann, welche Emotionen Sie gerade empfinden.",,,,,,,,,0,2,2,2,0,10,10,3,,,,,5.0,,,,,,,,1087.5422083265298,6.002153796700895,None,,,,,,,,B03E01,2022-08-30_10h18.35.942,t2_paradigm,2021.1.4,60.023010284220646,
5,,1,UNTERDRÜCKEN,,Stimuli/9800.jpg,,Trials/StimuliNegative.xlsx,25,"Unterdrücken Sie alle aufkommenden Emotionen. Wenn Sie also die Bilder ansehen, verhalten Sie sich so, dass eine außenstehende Person nicht sehen kann, welche Emotionen Sie gerade empfinden.",,,,,,,,,0,2,2,2,0,11,11,19,,,,,3.8,,,,,,,,1097.4033754085808,5.997580387226208,None,,,,,,,,B03E01,2022-08-30_10h18.35.942,t2_paradigm,2021.1.4,60.023010284220646,
5,,1,UNTERDRÜCKEN,,Stimuli/9140.jpg,,Trials/StimuliNegative.xlsx,25,"Unterdrücken Sie alle aufkommenden Emotionen. Wenn Sie also die Bilder ansehen, verhalten Sie sich so, dass eine außenstehende Person nicht sehen kann, welche Emotionen Sie gerade empfinden.",,,,,,,,,0,2,2,2,0,12,12,15,,,,,4.9,,,,,,,,1108.3336245141063,6.003755205404559,None,,,,,,,,B03E01,2022-08-30_10h18.35.942,t2_paradigm,2021.1.4,60.023010284220646,
5,,1,UNTERDRÜCKEN,,Stimuli/9409.jpg,,Trials/StimuliNegative.xlsx,25,"Unterdrücken Sie alle aufkommenden Emotionen. Wenn Sie also die Bilder ansehen, verhalten Sie sich so, dass eine außenstehende Person nicht sehen kann, welche Emotionen Sie gerade empfinden.",,,,,,,,,0,2,2,2,0,13,13,17,,,,,4.4,,,,,,,,1118.7808797851144,6.0100765656793556,None,,,,,,,,B03E01,2022-08-30_10h18.35.942,t2_paradigm,2021.1.4,60.023010284220646,
5,,1,UNTERDRÜCKEN,,Stimuli/9570.jpg,,Trials/StimuliNegative.xlsx,25,"Unterdrücken Sie alle aufkommenden Emotionen. Wenn Sie also die Bilder ansehen, verhalten Sie sich so, dass eine außenstehende Person nicht sehen kann, welche Emotionen Sie gerade empfinden.",,,,,,,,,0,2,2,2,0,14,14,18,,,,,3.0,,,,,,,,1127.8293182359898,6.012721894345759,None,,,,,,,,B03E01,2022-08-30_10h18.35.942,t2_paradigm,2021.1.4,60.023010284220646,
5,,1,UNTERDRÜCKEN,,Stimuli/6410.jpg,,Trials/StimuliNegative.xlsx,25,"Unterdrücken Sie alle aufkommenden Emotionen. Wenn Sie also die Bilder ansehen, verhalten Sie sich so, dass eine außenstehende Person nicht sehen kann, welche Emotionen Sie gerade empfinden.",,,,,,,,,0,2,2,2,0,15,15,9,,,,,4.3,,,,,,,,1138.175574306756,6.0020501457561295,None,,,,,,,,B03E01,2022-08-30_10h18.35.942,t2_paradigm,2021.1.4,60.023010284220646,
5,,1,UNTERDRÜCKEN,,Stimuli/6940.jpg,,Trials/StimuliNegative.xlsx,25,"Unterdrücken Sie alle aufkommenden Emotionen. Wenn Sie also die Bilder ansehen, verhalten Sie sich so, dass eine außenstehende Person nicht sehen kann, welche Emotionen Sie gerade empfinden.",,,,,,,,,0,2,2,2,0,16,16,12,,,,,4.7,,,,,,,,1148.912908825344,6.011524374654073,None,,,,,,,,B03E01,2022-08-30_10h18.35.942,t2_paradigm,2021.1.4,60.023010284220646,
5,,1,UNTERDRÜCKEN,,Stimuli/3350.jpg,,Trials/StimuliNegative.xlsx,25,"Unterdrücken Sie alle aufkommenden Emotionen. Wenn Sie also die Bilder ansehen, verhalten Sie sich so, dass eine außenstehende Person nicht sehen kann, welche Emotionen Sie gerade empfinden.",,,,,,,,,0,2,2,2,0,17,17,7,,,,,4.1,,,,,,,,1159.0637724388575,6.010127573108548,None,,,,,,,,B03E01,2022-08-30_10h18.35.942,t2_paradigm,2021.1.4,60.023010284220646,
5,,1,UNTERDRÜCKEN,,Stimuli/6555.jpg,,Trials/StimuliNegative.xlsx,25,"Unterdrücken Sie alle aufkommenden Emotionen. Wenn Sie also die Bilder ansehen, verhalten Sie sich so, dass eine außenstehende Person nicht sehen kann, welche Emotionen Sie gerade empfinden.",,,,,,,,,0,2,2,2,0,18,18,10,,,,,4.5,,,,,,,,1169.6076130031088,6.004329439980211,None,,,,,,,,B03E01,2022-08-30_10h18.35.942,t2_paradigm,2021.1.4,60.023010284220646,
5,,1,UNTERDRÜCKEN,,Stimuli/1301.jpg,,Trials/StimuliNegative.xlsx,25,"Unterdrücken Sie alle aufkommenden Emotionen. Wenn Sie also die Bilder ansehen, verhalten Sie sich so, dass eine außenstehende Person nicht sehen kann, welche Emotionen Sie gerade empfinden.",,,,,,,,,0,2,2,2,0,19,19,6,,,,,3.3,,,,,,,,1178.9549851420811,6.009623946929423,None,,,,,,,,B03E01,2022-08-30_10h18.35.942,t2_paradigm,2021.1.4,60.023010284220646,
5,,1,UNTERDRÜCKEN,,,,Trials/StimuliNegative.xlsx,25,"Unterdrücken Sie alle aufkommenden Emotionen. Wenn Sie also die Bilder ansehen, verhalten Sie sich so, dass eine außenstehende Person nicht sehen kann, welche Emotionen Sie gerade empfinden.",,,,,,,,,0,2,2,2,,,,,,,,,,,,,257.03703703703707,3.165912088215009,69.25925925925927,2.9684713137748986,,,,,,,,,,,B03E01,2022-08-30_10h18.35.942,t2_paradigm,2021.1.4,60.023010284220646,
,,,,,,,,,,,,,,,,,,,,,,,,,,,,,,,,,,,,,,,,,1,15.557292410190712,,,,,,B03E01,2022-08-30_10h18.35.942,t2_paradigm,2021.1.4,60.023010284220646,
,,,,,,,,,,,,,,,,,,,,,,,,,,,,,,,,,,,,,,,,,,,space,6.444958653506546,,,,B03E01,2022-08-30_10h18.35.942,t2_paradigm,2021.1.4,60.023010284220646,
,,,,,Stimuli/230.jpg,,,,,,,,,,,,,,,,,,,,,0,0,0,1,3.1,,,,,,,,,,,,,,,1331.8436561355038,6.015452267473393,None,B03E01,2022-08-30_10h18.35.942,t2_paradigm,2021.1.4,60.023010284220646,
,,,,,Stimuli/9424.jpg,,,,,,,,,,,,,,,,,,,,,0,1,1,17,3.6,,,,,,,,,,,,,,,1341.4992854147945,6.004641226898457,None,B03E01,2022-08-30_10h18.35.942,t2_paradigm,2021.1.4,60.023010284220646,
,,,,,Stimuli/3180.jpg,,,,,,,,,,,,,,,,,,,,,0,2,2,7,4.5,,,,,,,,,,,,,,,1352.043997275754,6.014456467725722,None,B03E01,2022-08-30_10h18.35.942,t2_paradigm,2021.1.4,60.023010284220646,
,,,,,Stimuli/225.jpg,,,,,,,,,,,,,,,,,,,,,0,3,3,0,3.9,,,,,,,,,,,,,,,1361.9902392954173,6.004576777890179,None,B03E01,2022-08-30_10h18.35.942,t2_paradigm,2021.1.4,60.023010284220646,
,,,,,Stimuli/3280.jpg,,,,,,,,,,,,,,,,,,,,,0,4,4,8,3.3,,,,,,,,,,,,,,,1371.3427987936584,6.000357597364655,None,B03E01,2022-08-30_10h18.35.942,t2_paradigm,2021.1.4,60.023010284220646,
,,,,,Stimuli/6836.jpg,,,,,,,,,,,,,,,,,,,,,0,5,5,11,4.4,,,,,,,,,,,,,,,1381.786768095527,6.012394708958254,None,B03E01,2022-08-30_10h18.35.942,t2_paradigm,2021.1.4,60.023010284220646,
,,,,,Stimuli/9300.jpg,,,,,,,,,,,,,,,,,,,,,0,6,6,15,4.3,,,,,,,,,,,,,,,1392.1433209300803,6.016466288740958,None,B03E01,2022-08-30_10h18.35.942,t2_paradigm,2021.1.4,60.023010284220646,
,,,,,Stimuli/6244.jpg,,,,,,,,,,,,,,,,,,,,,0,7,7,10,3.7,,,,,,,,,,,,,,,1401.8955066304843,6.011277646267445,None,B03E01,2022-08-30_10h18.35.942,t2_paradigm,2021.1.4,60.023010284220646,
,,,,,Stimuli/9180.jpg,,,,,,,,,,,,,,,,,,,,,0,8,8,12,4.4,,,,,,,,,,,,,,,1412.3427654303086,6.0003361036674505,None,B03E01,2022-08-30_10h18.35.942,t2_paradigm,2021.1.4,60.023010284220646,
,,,,,Stimuli/9182.jpg,,,,,,,,,,,,,,,,,,,,,0,9,9,13,4.5,,,,,,,,,,,,,,,1422.8950828517836,6.013062585474017,None,B03E01,2022-08-30_10h18.35.942,t2_paradigm,2021.1.4,60.023010284220646,
,,,,,Stimuli/327.jpg,,,,,,,,,,,,,,,,,,,,,0,10,10,3,4.8,,,,,,,,,,,,,,,1433.740343315284,6.004448778115147,None,B03E01,2022-08-30_10h18.35.942,t2_paradigm,2021.1.4,60.023010284220646,
,,,,,Stimuli/9425.jpg,,,,,,,,,,,,,,,,,,,,,0,11,11,18,3.0,,,,,,,,,,,,,,,1442.79235549419,6.001028393173328,None,B03E01,2022-08-30_10h18.35.942,t2_paradigm,2021.1.4,60.023010284220646,
,,,,,Stimuli/9253.jpg,,,,,,,,,,,,,,,,,,,,,0,12,12,14,3.1,,,,,,,,,,,,,,,1451.9385870557262,6.009261120503652,None,B03E01,2022-08-30_10h18.35.942,t2_paradigm,2021.1.4,60.023010284220646,
,,,,,Stimuli/6190.jpg,,,,,,,,,,,,,,,,,,,,,0,13,13,9,3.3,,,,,,,,,,,,,,,1461.2780976346348,6.01316334920557,None,B03E01,2022-08-30_10h18.35.942,t2_paradigm,2021.1.4,60.023010284220646,
,,,,,Stimuli/9920.jpg,,,,,,,,,,,,,,,,,,,,,0,14,14,19,3.0,,,,,,,,,,,,,,,1470.3263057500772,6.000579912761168,None,B03E01,2022-08-30_10h18.35.942,t2_paradigm,2021.1.4,60.023010284220646,
,,,,,Stimuli/1111.jpg,,,,,,,,,,,,,,,,,,,,,0,15,15,4,4.4,,,,,,,,,,,,,,,1480.7793758679682,6.011174348203895,None,B03E01,2022-08-30_10h18.35.942,t2_paradigm,2021.1.4,60.023010284220646,
,,,,,Stimuli/3017.jpg,,,,,,,,,,,,,,,,,,,,,0,16,16,5,4.6,,,,,,,,,,,,,,,1491.4289099199186,6.010719772564698,None,B03E01,2022-08-30_10h18.35.942,t2_paradigm,2021.1.4,60.023010284220646,
,,,,,Stimuli/3022.jpg,,,,,,,,,,,,,,,,,,,,,0,17,17,6,4.4,,,,,,,,,,,,,,,1501.87705990614,6.015242431250954,None,B03E01,2022-08-30_10h18.35.942,t2_paradigm,2021.1.4,60.023010284220646,
,,,,,Stimuli/255.jpg,,,,,,,,,,,,,,,,,,,,,0,18,18,2,4.3,,,,,,,,,,,,,,,1512.2117254209152,6.011813416750556,None,B03E01,2022-08-30_10h18.35.942,t2_paradigm,2021.1.4,60.023010284220646,
,,,,,Stimuli/9326.jpg,,,,,,,,,,,,,,,,,,,,,0,19,19,16,4.6,,,,,,,,,,,,,,,1522.8526591070877,5.997202515211939,None,B03E01,2022-08-30_10h18.35.942,t2_paradigm,2021.1.4,60.023010284220646,
,,,,,,,,,,,,,,,,,,,,,,,,,,,,,,,,,,271.48148148148147,2.701605258320342,275.925925925926,3.0187479568958224,,,,,,,,,,,B03E01,2022-08-30_10h18.35.942,t2_paradigm,2021.1.4,60.023010284220646,
