Block,conds_view_File,n_reps,instr_1,TriggerBlockView,ImageFile,Trigger,conds_reg_File,TriggerBlockReg,instr_2,blocks_view.thisRepN,blocks_view.thisTrialN,blocks_view.thisN,blocks_view.thisIndex,trials_view.thisRepN,trials_view.thisTrialN,trials_view.thisN,trials_view.thisIndex,blocks_reg.thisRepN,blocks_reg.thisTrialN,blocks_reg.thisN,blocks_reg.thisIndex,trials_reg.thisRepN,trials_reg.thisTrialN,trials_reg.thisN,trials_reg.thisIndex,trials_choice.thisRepN,trials_choice.thisTrialN,trials_choice.thisN,trials_choice.thisIndex,Fix_jitter,image_view.started,image_view.lasted,image_view.stopped,slider_arousal.response,slider_arousal.rt,slider_effort.response,slider_effort.rt,image_reg.started,image_reg.lasted,image_reg.stopped,resp_choice.keys,resp_choice.rt,key_resp.keys,key_resp.rt,image.started,image.lased,image.stopped,participant,date,expName,psychopyVersion,frameRate,
,,,,,,,,,,,,,,,,,,,,,,,,,,,,,,,,,,,,,,,,,,,,,,,,B03I09,2022-09-29_12h20.01.110,t2_paradigm,2021.1.4,59.99006960904383,
1,Trials/StimuliNeutral.xlsx,1,ANSCHAUEN,21,Stimuli/143.jpg,1,,,,0,0,0,0,0,0,0,4,,,,,,,,,,,,,3.5,25.81999277553541,6.031466328925944,None,,,,,,,,,,,,,,,B03I09,2022-09-29_12h20.01.110,t2_paradigm,2021.1.4,59.99006960904383,
1,Trials/StimuliNeutral.xlsx,1,ANSCHAUEN,21,Stimuli/7185.jpg,1,,,,0,0,0,0,0,1,1,15,,,,,,,,,,,,,4.6,36.47094815644641,6.001763256988852,None,,,,,,,,,,,,,,,B03I09,2022-09-29_12h20.01.110,t2_paradigm,2021.1.4,59.99006960904383,
1,Trials/StimuliNeutral.xlsx,1,ANSCHAUEN,21,Stimuli/7004.jpg,1,,,,0,0,0,0,0,2,2,7,,,,,,,,,,,,,3.1,45.60851550083953,6.01103777573735,None,,,,,,,,,,,,,,,B03I09,2022-09-29_12h20.01.110,t2_paradigm,2021.1.4,59.99006960904383,
1,Trials/StimuliNeutral.xlsx,1,ANSCHAUEN,21,Stimuli/7150.jpg,1,,,,0,0,0,0,0,3,3,14,,,,,,,,,,,,,4.2,55.86307041029977,6.016653930820667,None,,,,,,,,,,,,,,,B03I09,2022-09-29_12h20.01.110,t2_paradigm,2021.1.4,59.99006960904383,
1,Trials/StimuliNeutral.xlsx,1,ANSCHAUEN,21,Stimuli/7000.jpg,1,,,,0,0,0,0,0,4,4,5,,,,,,,,,,,,,3.6,65.5104706616803,6.005950174291684,None,,,,,,,,,,,,,,,B03I09,2022-09-29_12h20.01.110,t2_paradigm,2021.1.4,59.99006960904383,
1,Trials/StimuliNeutral.xlsx,1,ANSCHAUEN,21,Stimuli/107.jpg,1,,,,0,0,0,0,0,5,5,1,,,,,,,,,,,,,3.8,75.3603066996966,6.005230294246758,None,,,,,,,,,,,,,,,B03I09,2022-09-29_12h20.01.110,t2_paradigm,2021.1.4,59.99006960904383,
1,Trials/StimuliNeutral.xlsx,1,ANSCHAUEN,21,Stimuli/7211.jpg,1,,,,0,0,0,0,0,6,6,16,,,,,,,,,,,,,3.5,84.9013757921407,6.007409824116621,None,,,,,,,,,,,,,,,B03I09,2022-09-29_12h20.01.110,t2_paradigm,2021.1.4,59.99006960904383,
1,Trials/StimuliNeutral.xlsx,1,ANSCHAUEN,21,Stimuli/7002.jpg,1,,,,0,0,0,0,0,7,7,6,,,,,,,,,,,,,4.2,95.13841458289653,6.000069229105975,None,,,,,,,,,,,,,,,B03I09,2022-09-29_12h20.01.110,t2_paradigm,2021.1.4,59.99006960904383,
1,Trials/StimuliNeutral.xlsx,1,ANSCHAUEN,21,Stimuli/7100.jpg,1,,,,0,0,0,0,0,8,8,13,,,,,,,,,,,,,3.7,104.8750619950174,6.009706767577882,None,,,,,,,,,,,,,,,B03I09,2022-09-29_12h20.01.110,t2_paradigm,2021.1.4,59.99006960904383,
1,Trials/StimuliNeutral.xlsx,1,ANSCHAUEN,21,Stimuli/7006.jpg,1,,,,0,0,0,0,0,9,9,8,,,,,,,,,,,,,3.1,114.02475598183764,6.0109591792088395,None,,,,,,,,,,,,,,,B03I09,2022-09-29_12h20.01.110,t2_paradigm,2021.1.4,59.99006960904383,
1,Trials/StimuliNeutral.xlsx,1,ANSCHAUEN,21,Stimuli/7009.jpg,1,,,,0,0,0,0,0,10,10,9,,,,,,,,,,,,,3.8,123.86652737436907,6.010861976154047,None,,,,,,,,,,,,,,,B03I09,2022-09-29_12h20.01.110,t2_paradigm,2021.1.4,59.99006960904383,
1,Trials/StimuliNeutral.xlsx,1,ANSCHAUEN,21,Stimuli/7235.jpg,1,,,,0,0,0,0,0,11,11,19,,,,,,,,,,,,,4.2,134.11438265153265,6.0136441649615335,None,,,,,,,,,,,,,,,B03I09,2022-09-29_12h20.01.110,t2_paradigm,2021.1.4,59.99006960904383,
1,Trials/StimuliNeutral.xlsx,1,ANSCHAUEN,21,Stimuli/7233.jpg,1,,,,0,0,0,0,0,12,12,18,,,,,,,,,,,,,4.3,144.46586119660515,6.011642359486814,None,,,,,,,,,,,,,,,B03I09,2022-09-29_12h20.01.110,t2_paradigm,2021.1.4,59.99006960904383,
1,Trials/StimuliNeutral.xlsx,1,ANSCHAUEN,21,Stimuli/083.jpg,1,,,,0,0,0,0,0,13,13,0,,,,,,,,,,,,,4.6,155.11759773077392,6.008099099636638,None,,,,,,,,,,,,,,,B03I09,2022-09-29_12h20.01.110,t2_paradigm,2021.1.4,59.99006960904383,
1,Trials/StimuliNeutral.xlsx,1,ANSCHAUEN,21,Stimuli/140.jpg,1,,,,0,0,0,0,0,14,14,3,,,,,,,,,,,,,3.5,164.66009214721225,6.005659527535499,None,,,,,,,,,,,,,,,B03I09,2022-09-29_12h20.01.110,t2_paradigm,2021.1.4,59.99006960904383,
1,Trials/StimuliNeutral.xlsx,1,ANSCHAUEN,21,Stimuli/7021.jpg,1,,,,0,0,0,0,0,15,15,10,,,,,,,,,,,,,5.0,175.73306212718808,6.009981438387058,None,,,,,,,,,,,,,,,B03I09,2022-09-29_12h20.01.110,t2_paradigm,2021.1.4,59.99006960904383,
1,Trials/StimuliNeutral.xlsx,1,ANSCHAUEN,21,Stimuli/124.jpg,1,,,,0,0,0,0,0,16,16,2,,,,,,,,,,,,,3.1,184.87127973755832,6.000541129082194,None,,,,,,,,,,,,,,,B03I09,2022-09-29_12h20.01.110,t2_paradigm,2021.1.4,59.99006960904383,
1,Trials/StimuliNeutral.xlsx,1,ANSCHAUEN,21,Stimuli/7041.jpg,1,,,,0,0,0,0,0,17,17,12,,,,,,,,,,,,,4.8,195.7235336614499,5.9967943523424765,None,,,,,,,,,,,,,,,B03I09,2022-09-29_12h20.01.110,t2_paradigm,2021.1.4,59.99006960904383,
1,Trials/StimuliNeutral.xlsx,1,ANSCHAUEN,21,Stimuli/7224.jpg,1,,,,0,0,0,0,0,18,18,17,,,,,,,,,,,,,3.1,204.8463534097741,6.016336785805834,None,,,,,,,,,,,,,,,B03I09,2022-09-29_12h20.01.110,t2_paradigm,2021.1.4,59.99006960904383,
1,Trials/StimuliNeutral.xlsx,1,ANSCHAUEN,21,Stimuli/7025.jpg,1,,,,0,0,0,0,0,19,19,11,,,,,,,,,,,,,4.8,215.69759841087443,6.0139396237505025,None,,,,,,,,,,,,,,,B03I09,2022-09-29_12h20.01.110,t2_paradigm,2021.1.4,59.99006960904383,
1,Trials/StimuliNeutral.xlsx,1,ANSCHAUEN,21,,,,,,0,0,0,0,,,,,,,,,,,,,,,,,,,,,1.1111111111111072,4.867383916134713,1.4814814814814836,3.014401771341454,,,,,,,,,,,B03I09,2022-09-29_12h20.01.110,t2_paradigm,2021.1.4,59.99006960904383,
2,Trials/StimuliNegative.xlsx,1,ANSCHAUEN,22,Stimuli/9420.jpg,,,,,0,1,1,1,0,0,0,16,,,,,,,,,,,,,4.1,242.5815065254369,6.013499483187843,None,,,,,,,,,,,,,,,B03I09,2022-09-29_12h20.01.110,t2_paradigm,2021.1.4,59.99006960904383,
2,Trials/StimuliNegative.xlsx,1,ANSCHAUEN,22,Stimuli/9599.jpg,,,,,0,1,1,1,0,1,1,18,,,,,,,,,,,,,4.7,253.3353020961854,6.006374467227943,None,,,,,,,,,,,,,,,B03I09,2022-09-29_12h20.01.110,t2_paradigm,2021.1.4,59.99006960904383,
2,Trials/StimuliNegative.xlsx,1,ANSCHAUEN,22,Stimuli/9230.jpg,,,,,0,1,1,1,0,2,2,11,,,,,,,,,,,,,3.6,262.97400604262975,6.011970668416325,None,,,,,,,,,,,,,,,B03I09,2022-09-29_12h20.01.110,t2_paradigm,2021.1.4,59.99006960904383,
2,Trials/StimuliNegative.xlsx,1,ANSCHAUEN,22,Stimuli/6561.jpg,,,,,0,1,1,1,0,3,3,6,,,,,,,,,,,,,3.7,272.72282436787555,5.9973690373303725,None,,,,,,,,,,,,,,,B03I09,2022-09-29_12h20.01.110,t2_paradigm,2021.1.4,59.99006960904383,
2,Trials/StimuliNegative.xlsx,1,ANSCHAUEN,22,Stimuli/3061.jpg,,,,,0,1,1,1,0,4,4,4,,,,,,,,,,,,,4.9,283.6588246578808,6.008670576602981,None,,,,,,,,,,,,,,,B03I09,2022-09-29_12h20.01.110,t2_paradigm,2021.1.4,59.99006960904383,
2,Trials/StimuliNegative.xlsx,1,ANSCHAUEN,22,Stimuli/227.jpg,,,,,0,1,1,1,0,5,5,0,,,,,,,,,,,,,4.7,294.41589273145746,6.010861206229038,None,,,,,,,,,,,,,,,B03I09,2022-09-29_12h20.01.110,t2_paradigm,2021.1.4,59.99006960904383,
2,Trials/StimuliNegative.xlsx,1,ANSCHAUEN,22,Stimuli/9905.jpg,,,,,0,1,1,1,0,6,6,19,,,,,,,,,,,,,3.8,304.26961689164546,6.004358225656233,None,,,,,,,,,,,,,,,B03I09,2022-09-29_12h20.01.110,t2_paradigm,2021.1.4,59.99006960904383,
2,Trials/StimuliNegative.xlsx,1,ANSCHAUEN,22,Stimuli/3230.jpg,,,,,0,1,1,1,0,7,7,5,,,,,,,,,,,,,4.3,314.61232438487787,6.002370342995164,None,,,,,,,,,,,,,,,B03I09,2022-09-29_12h20.01.110,t2_paradigm,2021.1.4,59.99006960904383,
2,Trials/StimuliNegative.xlsx,1,ANSCHAUEN,22,Stimuli/252.jpg,,,,,0,1,1,1,0,8,8,1,,,,,,,,,,,,,3.9,324.5610826559596,6.003937140741982,None,,,,,,,,,,,,,,,B03I09,2022-09-29_12h20.01.110,t2_paradigm,2021.1.4,59.99006960904383,
2,Trials/StimuliNegative.xlsx,1,ANSCHAUEN,22,Stimuli/9120.jpg,,,,,0,1,1,1,0,9,9,8,,,,,,,,,,,,,3.4,334.01485378158395,6.012667001584305,None,,,,,,,,,,,,,,,B03I09,2022-09-29_12h20.01.110,t2_paradigm,2021.1.4,59.99006960904383,
2,Trials/StimuliNegative.xlsx,1,ANSCHAUEN,22,Stimuli/1051.jpg,,,,,0,1,1,1,0,10,10,2,,,,,,,,,,,,,4.6,344.65337134197307,6.001847114673637,None,,,,,,,,,,,,,,,B03I09,2022-09-29_12h20.01.110,t2_paradigm,2021.1.4,59.99006960904383,
2,Trials/StimuliNegative.xlsx,1,ANSCHAUEN,22,Stimuli/9185.jpg,,,,,0,1,1,1,0,11,11,10,,,,,,,,,,,,,3.6,354.29836686036697,6.013805207645419,None,,,,,,,,,,,,,,,B03I09,2022-09-29_12h20.01.110,t2_paradigm,2021.1.4,59.99006960904383,
2,Trials/StimuliNegative.xlsx,1,ANSCHAUEN,22,Stimuli/9411.jpg,,,,,0,1,1,1,0,12,12,15,,,,,,,,,,,,,4.4,364.74685244961347,6.01539638635586,None,,,,,,,,,,,,,,,B03I09,2022-09-29_12h20.01.110,t2_paradigm,2021.1.4,59.99006960904383,
2,Trials/StimuliNegative.xlsx,1,ANSCHAUEN,22,Stimuli/2800.jpg,,,,,0,1,1,1,0,13,13,3,,,,,,,,,,,,,3.9,374.69239564145346,6.009591278800599,None,,,,,,,,,,,,,,,B03I09,2022-09-29_12h20.01.110,t2_paradigm,2021.1.4,59.99006960904383,
2,Trials/StimuliNegative.xlsx,1,ANSCHAUEN,22,Stimuli/9332.jpg,,,,,0,1,1,1,0,14,14,14,,,,,,,,,,,,,4.4,385.15106605765595,6.009577997591805,None,,,,,,,,,,,,,,,B03I09,2022-09-29_12h20.01.110,t2_paradigm,2021.1.4,59.99006960904383,
2,Trials/StimuliNegative.xlsx,1,ANSCHAUEN,22,Stimuli/9421.jpg,,,,,0,1,1,1,0,15,15,17,,,,,,,,,,,,,4.6,395.7988098881492,6.011966369667789,None,,,,,,,,,,,,,,,B03I09,2022-09-29_12h20.01.110,t2_paradigm,2021.1.4,59.99006960904383,
2,Trials/StimuliNegative.xlsx,1,ANSCHAUEN,22,Stimuli/6838.jpg,,,,,0,1,1,1,0,16,16,7,,,,,,,,,,,,,4.6,406.4395175648806,5.997380265406264,None,,,,,,,,,,,,,,,B03I09,2022-09-29_12h20.01.110,t2_paradigm,2021.1.4,59.99006960904383,
2,Trials/StimuliNegative.xlsx,1,ANSCHAUEN,22,Stimuli/9295.jpg,,,,,0,1,1,1,0,17,17,13,,,,,,,,,,,,,3.6,416.09120565792364,6.011537136379502,None,,,,,,,,,,,,,,,B03I09,2022-09-29_12h20.01.110,t2_paradigm,2021.1.4,59.99006960904383,
2,Trials/StimuliNegative.xlsx,1,ANSCHAUEN,22,Stimuli/9254.jpg,,,,,0,1,1,1,0,18,18,12,,,,,,,,,,,,,3.6,425.7466715171954,6.016704938364455,None,,,,,,,,,,,,,,,B03I09,2022-09-29_12h20.01.110,t2_paradigm,2021.1.4,59.99006960904383,
2,Trials/StimuliNegative.xlsx,1,ANSCHAUEN,22,Stimuli/9181.jpg,,,,,0,1,1,1,0,19,19,9,,,,,,,,,,,,,3.8,435.5922431321069,6.010201765310285,None,,,,,,,,,,,,,,,B03I09,2022-09-29_12h20.01.110,t2_paradigm,2021.1.4,59.99006960904383,
2,Trials/StimuliNegative.xlsx,1,ANSCHAUEN,22,,,,,,0,1,1,1,,,,,,,,,,,,,,,,,,,,,271.85185185185185,6.316877144963655,0.7407407407407307,3.0029593999206554,,,,,,,,,,,B03I09,2022-09-29_12h20.01.110,t2_paradigm,2021.1.4,59.99006960904383,
5,,1,UNTERDRÜCKEN,,Stimuli/254.jpg,,Trials/StimuliNegative.xlsx,25,"Unterdrücken Sie alle aufkommenden Emotionen. Wenn Sie also die Bilder ansehen, verhalten Sie sich so, dass eine außenstehende Person nicht sehen kann, welche Emotionen Sie gerade empfinden.",,,,,,,,,0,0,0,2,0,0,0,4,,,,,3.2,,,,,,,,467.417091569127,6.00920759941846,None,,,,,,,,B03I09,2022-09-29_12h20.01.110,t2_paradigm,2021.1.4,59.99006960904383,
5,,1,UNTERDRÜCKEN,,Stimuli/6940.jpg,,Trials/StimuliNegative.xlsx,25,"Unterdrücken Sie alle aufkommenden Emotionen. Wenn Sie also die Bilder ansehen, verhalten Sie sich so, dass eine außenstehende Person nicht sehen kann, welche Emotionen Sie gerade empfinden.",,,,,,,,,0,0,0,2,0,1,1,12,,,,,4.7,,,,,,,,478.1706118916227,6.002177733378176,None,,,,,,,,B03I09,2022-09-29_12h20.01.110,t2_paradigm,2021.1.4,59.99006960904383,
5,,1,UNTERDRÜCKEN,,Stimuli/9800.jpg,,Trials/StimuliNegative.xlsx,25,"Unterdrücken Sie alle aufkommenden Emotionen. Wenn Sie also die Bilder ansehen, verhalten Sie sich so, dass eine außenstehende Person nicht sehen kann, welche Emotionen Sie gerade empfinden.",,,,,,,,,0,0,0,2,0,2,2,19,,,,,4.9,,,,,,,,489.1141779797549,6.014751574016373,None,,,,,,,,B03I09,2022-09-29_12h20.01.110,t2_paradigm,2021.1.4,59.99006960904383,
5,,1,UNTERDRÜCKEN,,Stimuli/6410.jpg,,Trials/StimuliNegative.xlsx,25,"Unterdrücken Sie alle aufkommenden Emotionen. Wenn Sie also die Bilder ansehen, verhalten Sie sich so, dass eine außenstehende Person nicht sehen kann, welche Emotionen Sie gerade empfinden.",,,,,,,,,0,0,0,2,0,3,3,9,,,,,3.9,,,,,,,,499.06338601546395,6.0159946823837345,None,,,,,,,,B03I09,2022-09-29_12h20.01.110,t2_paradigm,2021.1.4,59.99006960904383,
5,,1,UNTERDRÜCKEN,,Stimuli/6242.jpg,,Trials/StimuliNegative.xlsx,25,"Unterdrücken Sie alle aufkommenden Emotionen. Wenn Sie also die Bilder ansehen, verhalten Sie sich so, dass eine außenstehende Person nicht sehen kann, welche Emotionen Sie gerade empfinden.",,,,,,,,,0,0,0,2,0,4,4,8,,,,,4.8,,,,,,,,509.899928974402,6.010606296832975,None,,,,,,,,B03I09,2022-09-29_12h20.01.110,t2_paradigm,2021.1.4,59.99006960904383,
5,,1,UNTERDRÜCKEN,,Stimuli/9340.jpg,,Trials/StimuliNegative.xlsx,25,"Unterdrücken Sie alle aufkommenden Emotionen. Wenn Sie also die Bilder ansehen, verhalten Sie sich so, dass eine außenstehende Person nicht sehen kann, welche Emotionen Sie gerade empfinden.",,,,,,,,,0,0,0,2,0,5,5,16,,,,,3.8,,,,,,,,519.7448461529084,6.004523567089109,None,,,,,,,,B03I09,2022-09-29_12h20.01.110,t2_paradigm,2021.1.4,59.99006960904383,
5,,1,UNTERDRÜCKEN,,Stimuli/9409.jpg,,Trials/StimuliNegative.xlsx,25,"Unterdrücken Sie alle aufkommenden Emotionen. Wenn Sie also die Bilder ansehen, verhalten Sie sich so, dass eine außenstehende Person nicht sehen kann, welche Emotionen Sie gerade empfinden.",,,,,,,,,0,0,0,2,0,6,6,17,,,,,4.2,,,,,,,,529.9857287951377,6.00536214393378,None,,,,,,,,B03I09,2022-09-29_12h20.01.110,t2_paradigm,2021.1.4,59.99006960904383,
5,,1,UNTERDRÜCKEN,,Stimuli/219.jpg,,Trials/StimuliNegative.xlsx,25,"Unterdrücken Sie alle aufkommenden Emotionen. Wenn Sie also die Bilder ansehen, verhalten Sie sich so, dass eine außenstehende Person nicht sehen kann, welche Emotionen Sie gerade empfinden.",,,,,,,,,0,0,0,2,0,7,7,1,,,,,4.3,,,,,,,,540.3294557976328,6.016662271677433,None,,,,,,,,B03I09,2022-09-29_12h20.01.110,t2_paradigm,2021.1.4,59.99006960904383,
5,,1,UNTERDRÜCKEN,,Stimuli/8230.jpg,,Trials/StimuliNegative.xlsx,25,"Unterdrücken Sie alle aufkommenden Emotionen. Wenn Sie also die Bilder ansehen, verhalten Sie sich so, dass eine außenstehende Person nicht sehen kann, welche Emotionen Sie gerade empfinden.",,,,,,,,,0,0,0,2,0,8,8,13,,,,,3.7,,,,,,,,550.0783985941166,6.001953300188234,None,,,,,,,,B03I09,2022-09-29_12h20.01.110,t2_paradigm,2021.1.4,59.99006960904383,
5,,1,UNTERDRÜCKEN,,Stimuli/253.jpg,,Trials/StimuliNegative.xlsx,25,"Unterdrücken Sie alle aufkommenden Emotionen. Wenn Sie also die Bilder ansehen, verhalten Sie sich so, dass eine außenstehende Person nicht sehen kann, welche Emotionen Sie gerade empfinden.",,,,,,,,,0,0,0,2,0,9,9,3,,,,,3.4,,,,,,,,559.5218065267841,5.99982766507992,None,,,,,,,,B03I09,2022-09-29_12h20.01.110,t2_paradigm,2021.1.4,59.99006960904383,
5,,1,UNTERDRÜCKEN,,Stimuli/208.jpg,,Trials/StimuliNegative.xlsx,25,"Unterdrücken Sie alle aufkommenden Emotionen. Wenn Sie also die Bilder ansehen, verhalten Sie sich so, dass eine außenstehende Person nicht sehen kann, welche Emotionen Sie gerade empfinden.",,,,,,,,,0,0,0,2,0,10,10,0,,,,,3.4,,,,,,,,568.9549099732899,5.99996561000853,None,,,,,,,,B03I09,2022-09-29_12h20.01.110,t2_paradigm,2021.1.4,59.99006960904383,
5,,1,UNTERDRÜCKEN,,Stimuli/3350.jpg,,Trials/StimuliNegative.xlsx,25,"Unterdrücken Sie alle aufkommenden Emotionen. Wenn Sie also die Bilder ansehen, verhalten Sie sich so, dass eine außenstehende Person nicht sehen kann, welche Emotionen Sie gerade empfinden.",,,,,,,,,0,0,0,2,0,11,11,7,,,,,4.5,,,,,,,,579.5040247838915,6.002381442749993,None,,,,,,,,B03I09,2022-09-29_12h20.01.110,t2_paradigm,2021.1.4,59.99006960904383,
5,,1,UNTERDRÜCKEN,,Stimuli/9140.jpg,,Trials/StimuliNegative.xlsx,25,"Unterdrücken Sie alle aufkommenden Emotionen. Wenn Sie also die Bilder ansehen, verhalten Sie sich so, dass eine außenstehende Person nicht sehen kann, welche Emotionen Sie gerade empfinden.",,,,,,,,,0,0,0,2,0,12,12,15,,,,,4.3,,,,,,,,589.8487122680522,6.012989086952075,None,,,,,,,,B03I09,2022-09-29_12h20.01.110,t2_paradigm,2021.1.4,59.99006960904383,
5,,1,UNTERDRÜCKEN,,Stimuli/1301.jpg,,Trials/StimuliNegative.xlsx,25,"Unterdrücken Sie alle aufkommenden Emotionen. Wenn Sie also die Bilder ansehen, verhalten Sie sich so, dass eine außenstehende Person nicht sehen kann, welche Emotionen Sie gerade empfinden.",,,,,,,,,0,0,0,2,0,13,13,6,,,,,3.2,,,,,,,,599.0921270017252,6.008935879989622,None,,,,,,,,B03I09,2022-09-29_12h20.01.110,t2_paradigm,2021.1.4,59.99006960904383,
5,,1,UNTERDRÜCKEN,,Stimuli/226.jpg,,Trials/StimuliNegative.xlsx,25,"Unterdrücken Sie alle aufkommenden Emotionen. Wenn Sie also die Bilder ansehen, verhalten Sie sich so, dass eine außenstehende Person nicht sehen kann, welche Emotionen Sie gerade empfinden.",,,,,,,,,0,0,0,2,0,14,14,2,,,,,4.1,,,,,,,,609.2465569908245,6.016315163740728,None,,,,,,,,B03I09,2022-09-29_12h20.01.110,t2_paradigm,2021.1.4,59.99006960904383,
5,,1,UNTERDRÜCKEN,,Stimuli/9041.jpg,,Trials/StimuliNegative.xlsx,25,"Unterdrücken Sie alle aufkommenden Emotionen. Wenn Sie also die Bilder ansehen, verhalten Sie sich so, dass eine außenstehende Person nicht sehen kann, welche Emotionen Sie gerade empfinden.",,,,,,,,,0,0,0,2,0,15,15,14,,,,,3.3,,,,,,,,618.5971347234336,6.015934050775286,None,,,,,,,,B03I09,2022-09-29_12h20.01.110,t2_paradigm,2021.1.4,59.99006960904383,
5,,1,UNTERDRÜCKEN,,Stimuli/6825.jpg,,Trials/StimuliNegative.xlsx,25,"Unterdrücken Sie alle aufkommenden Emotionen. Wenn Sie also die Bilder ansehen, verhalten Sie sich so, dass eine außenstehende Person nicht sehen kann, welche Emotionen Sie gerade empfinden.",,,,,,,,,0,0,0,2,0,16,16,11,,,,,3.7,,,,,,,,628.3473636157742,6.015679333860589,None,,,,,,,,B03I09,2022-09-29_12h20.01.110,t2_paradigm,2021.1.4,59.99006960904383,
5,,1,UNTERDRÜCKEN,,Stimuli/6555.jpg,,Trials/StimuliNegative.xlsx,25,"Unterdrücken Sie alle aufkommenden Emotionen. Wenn Sie also die Bilder ansehen, verhalten Sie sich so, dass eine außenstehende Person nicht sehen kann, welche Emotionen Sie gerade empfinden.",,,,,,,,,0,0,0,2,0,17,17,10,,,,,4.8,,,,,,,,639.1961275329736,6.016580467126914,None,,,,,,,,B03I09,2022-09-29_12h20.01.110,t2_paradigm,2021.1.4,59.99006960904383,
5,,1,UNTERDRÜCKEN,,Stimuli/9570.jpg,,Trials/StimuliNegative.xlsx,25,"Unterdrücken Sie alle aufkommenden Emotionen. Wenn Sie also die Bilder ansehen, verhalten Sie sich so, dass eine außenstehende Person nicht sehen kann, welche Emotionen Sie gerade empfinden.",,,,,,,,,0,0,0,2,0,18,18,18,,,,,4.3,,,,,,,,649.5505173576425,6.009808654344397,None,,,,,,,,B03I09,2022-09-29_12h20.01.110,t2_paradigm,2021.1.4,59.99006960904383,
5,,1,UNTERDRÜCKEN,,Stimuli/326.jpg,,Trials/StimuliNegative.xlsx,25,"Unterdrücken Sie alle aufkommenden Emotionen. Wenn Sie also die Bilder ansehen, verhalten Sie sich so, dass eine außenstehende Person nicht sehen kann, welche Emotionen Sie gerade empfinden.",,,,,,,,,0,0,0,2,0,19,19,5,,,,,4.5,,,,,,,,660.0950033138865,6.003293611609479,None,,,,,,,,B03I09,2022-09-29_12h20.01.110,t2_paradigm,2021.1.4,59.99006960904383,
5,,1,UNTERDRÜCKEN,,,,Trials/StimuliNegative.xlsx,25,"Unterdrücken Sie alle aufkommenden Emotionen. Wenn Sie also die Bilder ansehen, verhalten Sie sich so, dass eine außenstehende Person nicht sehen kann, welche Emotionen Sie gerade empfinden.",,,,,,,,,0,0,0,2,,,,,,,,,,,,,186.2962962962963,7.501565193735587,130.37037037037038,3.2966075813251337,,,,,,,,,,,B03I09,2022-09-29_12h20.01.110,t2_paradigm,2021.1.4,59.99006960904383,
4,,1,DISTANZIEREN,,Stimuli/9402.jpg,,Trials/StimuliNegative.xlsx,24,Nehmen Sie die Position eines uninvolvierten Beobachters ein. Denken Sie über das Bild in einer neutralen Weise nach.,,,,,,,,,0,1,1,1,0,0,0,16,,,,,4.9,,,,,,,,700.055702803747,5.9987098620358665,None,,,,,,,,B03I09,2022-09-29_12h20.01.110,t2_paradigm,2021.1.4,59.99006960904383,
4,,1,DISTANZIEREN,,Stimuli/3181.jpg,,Trials/StimuliNegative.xlsx,24,Nehmen Sie die Position eines uninvolvierten Beobachters ein. Denken Sie über das Bild in einer neutralen Weise nach.,,,,,,,,,0,1,1,1,0,1,1,6,,,,,4.5,,,,,,,,710.5946003863742,6.003413270815145,None,,,,,,,,B03I09,2022-09-29_12h20.01.110,t2_paradigm,2021.1.4,59.99006960904383,
4,,1,DISTANZIEREN,,Stimuli/3225.jpg,,Trials/StimuliNegative.xlsx,24,Nehmen Sie die Position eines uninvolvierten Beobachters ein. Denken Sie über das Bild in einer neutralen Weise nach.,,,,,,,,,0,1,1,1,0,2,2,9,,,,,3.1,,,,,,,,719.753702858925,6.002825112136179,None,,,,,,,,B03I09,2022-09-29_12h20.01.110,t2_paradigm,2021.1.4,59.99006960904383,
4,,1,DISTANZIEREN,,Stimuli/9405.jpg,,Trials/StimuliNegative.xlsx,24,Nehmen Sie die Position eines uninvolvierten Beobachters ein. Denken Sie über das Bild in einer neutralen Weise nach.,,,,,,,,,0,1,1,1,0,3,3,18,,,,,4.8,,,,,,,,730.5973525480995,6.015780386540882,None,,,,,,,,B03I09,2022-09-29_12h20.01.110,t2_paradigm,2021.1.4,59.99006960904383,
4,,1,DISTANZIEREN,,Stimuli/9373.jpg,,Trials/StimuliNegative.xlsx,24,Nehmen Sie die Position eines uninvolvierten Beobachters ein. Denken Sie über das Bild in einer neutralen Weise nach.,,,,,,,,,0,1,1,1,0,4,4,14,,,,,3.3,,,,,,,,739.9472376688464,6.016086752603314,None,,,,,,,,B03I09,2022-09-29_12h20.01.110,t2_paradigm,2021.1.4,59.99006960904383,
4,,1,DISTANZIEREN,,Stimuli/223.jpg,,Trials/StimuliNegative.xlsx,24,Nehmen Sie die Position eines uninvolvierten Beobachters ein. Denken Sie über das Bild in einer neutralen Weise nach.,,,,,,,,,0,1,1,1,0,5,5,0,,,,,3.8,,,,,,,,749.7901953877631,5.9958766656855005,None,,,,,,,,B03I09,2022-09-29_12h20.01.110,t2_paradigm,2021.1.4,59.99006960904383,
4,,1,DISTANZIEREN,,Stimuli/6020.jpg,,Trials/StimuliNegative.xlsx,24,Nehmen Sie die Position eines uninvolvierten Beobachters ein. Denken Sie über das Bild in einer neutralen Weise nach.,,,,,,,,,0,1,1,1,0,6,6,10,,,,,4.9,,,,,,,,760.7379607761618,6.00091601848635,None,,,,,,,,B03I09,2022-09-29_12h20.01.110,t2_paradigm,2021.1.4,59.99006960904383,
4,,1,DISTANZIEREN,,Stimuli/238.jpg,,Trials/StimuliNegative.xlsx,24,Nehmen Sie die Position eines uninvolvierten Beobachters ein. Denken Sie über das Bild in einer neutralen Weise nach.,,,,,,,,,0,1,1,1,0,7,7,1,,,,,3.1,,,,,,,,769.8707882686499,6.001752157234023,None,,,,,,,,B03I09,2022-09-29_12h20.01.110,t2_paradigm,2021.1.4,59.99006960904383,
4,,1,DISTANZIEREN,,Stimuli/3101.jpg,,Trials/StimuliNegative.xlsx,24,Nehmen Sie die Position eines uninvolvierten Beobachters ein. Denken Sie über das Bild in einer neutralen Weise nach.,,,,,,,,,0,1,1,1,0,8,8,5,,,,,4.4,,,,,,,,780.3220616286612,5.999237581588204,None,,,,,,,,B03I09,2022-09-29_12h20.01.110,t2_paradigm,2021.1.4,59.99006960904383,
4,,1,DISTANZIEREN,,Stimuli/9403.jpg,,Trials/StimuliNegative.xlsx,24,Nehmen Sie die Position eines uninvolvierten Beobachters ein. Denken Sie über das Bild in einer neutralen Weise nach.,,,,,,,,,0,1,1,1,0,9,9,17,,,,,4.2,,,,,,,,790.5683289351359,6.007920092031782,None,,,,,,,,B03I09,2022-09-29_12h20.01.110,t2_paradigm,2021.1.4,59.99006960904383,
4,,1,DISTANZIEREN,,Stimuli/245.jpg,,Trials/StimuliNegative.xlsx,24,Nehmen Sie die Position eines uninvolvierten Beobachters ein. Denken Sie über das Bild in einer neutralen Weise nach.,,,,,,,,,0,1,1,1,0,10,10,2,,,,,3.3,,,,,,,,799.9053534181148,5.998588085536539,None,,,,,,,,B03I09,2022-09-29_12h20.01.110,t2_paradigm,2021.1.4,59.99006960904383,
4,,1,DISTANZIEREN,,Stimuli/3215.jpg,,Trials/StimuliNegative.xlsx,24,Nehmen Sie die Position eines uninvolvierten Beobachters ein. Denken Sie über das Bild in einer neutralen Weise nach.,,,,,,,,,0,1,1,1,0,11,11,7,,,,,4.3,,,,,,,,810.2562198726673,5.996715755813511,None,,,,,,,,B03I09,2022-09-29_12h20.01.110,t2_paradigm,2021.1.4,59.99006960904383,
4,,1,DISTANZIEREN,,Stimuli/3016.jpg,,Trials/StimuliNegative.xlsx,24,Nehmen Sie die Position eines uninvolvierten Beobachters ein. Denken Sie über das Bild in einer neutralen Weise nach.,,,,,,,,,0,1,1,1,0,12,12,4,,,,,3.3,,,,,,,,819.5905887553713,6.012152884043189,None,,,,,,,,B03I09,2022-09-29_12h20.01.110,t2_paradigm,2021.1.4,59.99006960904383,
4,,1,DISTANZIEREN,,Stimuli/6571.jpg,,Trials/StimuliNegative.xlsx,24,Nehmen Sie die Position eines uninvolvierten Beobachters ein. Denken Sie über das Bild in einer neutralen Weise nach.,,,,,,,,,0,1,1,1,0,13,13,11,,,,,5.0,,,,,,,,830.647086827671,6.016015213721403,None,,,,,,,,B03I09,2022-09-29_12h20.01.110,t2_paradigm,2021.1.4,59.99006960904383,
4,,1,DISTANZIEREN,,Stimuli/3220.jpg,,Trials/StimuliNegative.xlsx,24,Nehmen Sie die Position eines uninvolvierten Beobachters ein. Denken Sie über das Bild in einer neutralen Weise nach.,,,,,,,,,0,1,1,1,0,14,14,8,,,,,4.1,,,,,,,,840.795124512942,6.00262217269028,None,,,,,,,,B03I09,2022-09-29_12h20.01.110,t2_paradigm,2021.1.4,59.99006960904383,
4,,1,DISTANZIEREN,,Stimuli/2981.jpg,,Trials/StimuliNegative.xlsx,24,Nehmen Sie die Position eines uninvolvierten Beobachters ein. Denken Sie über das Bild in einer neutralen Weise nach.,,,,,,,,,0,1,1,1,0,15,15,3,,,,,3.0,,,,,,,,849.8435954736101,6.007682505953198,None,,,,,,,,B03I09,2022-09-29_12h20.01.110,t2_paradigm,2021.1.4,59.99006960904383,
4,,1,DISTANZIEREN,,Stimuli/6831.jpg,,Trials/StimuliNegative.xlsx,24,Nehmen Sie die Position eines uninvolvierten Beobachters ein. Denken Sie über das Bild in einer neutralen Weise nach.,,,,,,,,,0,1,1,1,0,16,16,12,,,,,3.1,,,,,,,,858.993110452825,6.007455378023678,None,,,,,,,,B03I09,2022-09-29_12h20.01.110,t2_paradigm,2021.1.4,59.99006960904383,
4,,1,DISTANZIEREN,,Stimuli/9423.jpg,,Trials/StimuliNegative.xlsx,24,Nehmen Sie die Position eines uninvolvierten Beobachters ein. Denken Sie über das Bild in einer neutralen Weise nach.,,,,,,,,,0,1,1,1,0,17,17,19,,,,,4.6,,,,,,,,869.644019638225,6.006071116706153,None,,,,,,,,B03I09,2022-09-29_12h20.01.110,t2_paradigm,2021.1.4,59.99006960904383,
4,,1,DISTANZIEREN,,Stimuli/9400.jpg,,Trials/StimuliNegative.xlsx,24,Nehmen Sie die Position eines uninvolvierten Beobachters ein. Denken Sie über das Bild in einer neutralen Weise nach.,,,,,,,,,0,1,1,1,0,18,18,15,,,,,3.5,,,,,,,,879.1978531277891,6.014276466018146,None,,,,,,,,B03I09,2022-09-29_12h20.01.110,t2_paradigm,2021.1.4,59.99006960904383,
4,,1,DISTANZIEREN,,Stimuli/8231.jpg,,Trials/StimuliNegative.xlsx,24,Nehmen Sie die Position eines uninvolvierten Beobachters ein. Denken Sie über das Bild in einer neutralen Weise nach.,,,,,,,,,0,1,1,1,0,19,19,13,,,,,4.4,,,,,,,,889.6473479606288,6.015893950505415,None,,,,,,,,B03I09,2022-09-29_12h20.01.110,t2_paradigm,2021.1.4,59.99006960904383,
4,,1,DISTANZIEREN,,,,Trials/StimuliNegative.xlsx,24,Nehmen Sie die Position eines uninvolvierten Beobachters ein. Denken Sie über das Bild in einer neutralen Weise nach.,,,,,,,,,0,1,1,1,,,,,,,,,,,,,227.03703703703707,12.951891545772469,111.85185185185185,11.631880484513658,,,,,,,,,,,B03I09,2022-09-29_12h20.01.110,t2_paradigm,2021.1.4,59.99006960904383,
3,,1,ABLENKEN,,Stimuli/9145.jpg,,Trials/StimuliNegative.xlsx,23,"Denken Sie während des Betrachtens der Bilder an etwas Neutrales, das mit dem Bild nichts zu tun hat. Das könnten geometrische Figuren, Alltagstätigkeiten oder bekannte Orte sein.",,,,,,,,,0,2,2,0,0,0,0,16,,,,,4.4,,,,,,,,945.1112670209609,6.004348729912181,None,,,,,,,,B03I09,2022-09-29_12h20.01.110,t2_paradigm,2021.1.4,59.99006960904383,
3,,1,ABLENKEN,,Stimuli/3051.jpg,,Trials/StimuliNegative.xlsx,23,"Denken Sie während des Betrachtens der Bilder an etwas Neutrales, das mit dem Bild nichts zu tun hat. Das könnten geometrische Figuren, Alltagstätigkeiten oder bekannte Orte sein.",,,,,,,,,0,2,2,0,0,1,1,7,,,,,3.2,,,,,,,,954.3660634944467,6.011858580141961,None,,,,,,,,B03I09,2022-09-29_12h20.01.110,t2_paradigm,2021.1.4,59.99006960904383,
3,,1,ABLENKEN,,Stimuli/218.jpg,,Trials/StimuliNegative.xlsx,23,"Denken Sie während des Betrachtens der Bilder an etwas Neutrales, das mit dem Bild nichts zu tun hat. Das könnten geometrische Figuren, Alltagstätigkeiten oder bekannte Orte sein.",,,,,,,,,0,2,2,0,0,2,2,1,,,,,4.8,,,,,,,,965.1912372248562,6.011797563572145,None,,,,,,,,B03I09,2022-09-29_12h20.01.110,t2_paradigm,2021.1.4,59.99006960904383,
3,,1,ABLENKEN,,Stimuli/9904.jpg,,Trials/StimuliNegative.xlsx,23,"Denken Sie während des Betrachtens der Bilder an etwas Neutrales, das mit dem Bild nichts zu tun hat. Das könnten geometrische Figuren, Alltagstätigkeiten oder bekannte Orte sein.",,,,,,,,,0,2,2,0,0,3,3,19,,,,,3.2,,,,,,,,974.4419935159467,6.009055859997261,None,,,,,,,,B03I09,2022-09-29_12h20.01.110,t2_paradigm,2021.1.4,59.99006960904383,
3,,1,ABLENKEN,,Stimuli/2703.jpg,,Trials/StimuliNegative.xlsx,23,"Denken Sie während des Betrachtens der Bilder an etwas Neutrales, das mit dem Bild nichts zu tun hat. Das könnten geometrische Figuren, Alltagstätigkeiten oder bekannte Orte sein.",,,,,,,,,0,2,2,0,0,4,4,6,,,,,3.5,,,,,,,,983.9928554151084,6.008638496387448,None,,,,,,,,B03I09,2022-09-29_12h20.01.110,t2_paradigm,2021.1.4,59.99006960904383,
3,,1,ABLENKEN,,Stimuli/9043.jpg,,Trials/StimuliNegative.xlsx,23,"Denken Sie während des Betrachtens der Bilder an etwas Neutrales, das mit dem Bild nichts zu tun hat. Das könnten geometrische Figuren, Alltagstätigkeiten oder bekannte Orte sein.",,,,,,,,,0,2,2,0,0,5,5,15,,,,,3.8,,,,,,,,993.8650398147561,6.013840046759469,None,,,,,,,,B03I09,2022-09-29_12h20.01.110,t2_paradigm,2021.1.4,59.99006960904383,
3,,1,ABLENKEN,,Stimuli/210.jpg,,Trials/StimuliNegative.xlsx,23,"Denken Sie während des Betrachtens der Bilder an etwas Neutrales, das mit dem Bild nichts zu tun hat. Das könnten geometrische Figuren, Alltagstätigkeiten oder bekannte Orte sein.",,,,,,,,,0,2,2,0,0,6,6,0,,,,,4.7,,,,,,,,1004.6146171579112,6.013807453261052,None,,,,,,,,B03I09,2022-09-29_12h20.01.110,t2_paradigm,2021.1.4,59.99006960904383,
3,,1,ABLENKEN,,Stimuli/3185.jpg,,Trials/StimuliNegative.xlsx,23,"Denken Sie während des Betrachtens der Bilder an etwas Neutrales, das mit dem Bild nichts zu tun hat. Das könnten geometrische Figuren, Alltagstätigkeiten oder bekannte Orte sein.",,,,,,,,,0,2,2,0,0,7,7,9,,,,,3.4,,,,,,,,1014.0728734185254,5.997588658488439,None,,,,,,,,B03I09,2022-09-29_12h20.01.110,t2_paradigm,2021.1.4,59.99006960904383,
3,,1,ABLENKEN,,Stimuli/9160.jpg,,Trials/StimuliNegative.xlsx,23,"Denken Sie während des Betrachtens der Bilder an etwas Neutrales, das mit dem Bild nichts zu tun hat. Das könnten geometrische Figuren, Alltagstätigkeiten oder bekannte Orte sein.",,,,,,,,,0,2,2,0,0,8,8,17,,,,,3.8,,,,,,,,1023.9087795851774,6.009408421570242,None,,,,,,,,B03I09,2022-09-29_12h20.01.110,t2_paradigm,2021.1.4,59.99006960904383,
3,,1,ABLENKEN,,Stimuli/9040.jpg,,Trials/StimuliNegative.xlsx,23,"Denken Sie während des Betrachtens der Bilder an etwas Neutrales, das mit dem Bild nichts zu tun hat. Das könnten geometrische Figuren, Alltagstätigkeiten oder bekannte Orte sein.",,,,,,,,,0,2,2,0,0,9,9,13,,,,,3.6,,,,,,,,1033.5606595179115,6.006478214646904,None,,,,,,,,B03I09,2022-09-29_12h20.01.110,t2_paradigm,2021.1.4,59.99006960904383,
3,,1,ABLENKEN,,Stimuli/9031.jpg,,Trials/StimuliNegative.xlsx,23,"Denken Sie während des Betrachtens der Bilder an etwas Neutrales, das mit dem Bild nichts zu tun hat. Das könnten geometrische Figuren, Alltagstätigkeiten oder bekannte Orte sein.",,,,,,,,,0,2,2,0,0,10,10,12,,,,,3.3,,,,,,,,1042.9166231979743,6.011323161337714,None,,,,,,,,B03I09,2022-09-29_12h20.01.110,t2_paradigm,2021.1.4,59.99006960904383,
3,,1,ABLENKEN,,Stimuli/251.jpg,,Trials/StimuliNegative.xlsx,23,"Denken Sie während des Betrachtens der Bilder an etwas Neutrales, das mit dem Bild nichts zu tun hat. Das könnten geometrische Figuren, Alltagstätigkeiten oder bekannte Orte sein.",,,,,,,,,0,2,2,0,0,11,11,5,,,,,4.5,,,,,,,,1053.4668178286443,6.009818920013004,None,,,,,,,,B03I09,2022-09-29_12h20.01.110,t2_paradigm,2021.1.4,59.99006960904383,
3,,1,ABLENKEN,,Stimuli/9184.jpg,,Trials/StimuliNegative.xlsx,23,"Denken Sie während des Betrachtens der Bilder an etwas Neutrales, das mit dem Bild nichts zu tun hat. Das könnten geometrische Figuren, Alltagstätigkeiten oder bekannte Orte sein.",,,,,,,,,0,2,2,0,0,12,12,18,,,,,5.0,,,,,,,,1064.5305454984082,6.016328829912254,None,,,,,,,,B03I09,2022-09-29_12h20.01.110,t2_paradigm,2021.1.4,59.99006960904383,
3,,1,ABLENKEN,,Stimuli/3301.jpg,,Trials/StimuliNegative.xlsx,23,"Denken Sie während des Betrachtens der Bilder an etwas Neutrales, das mit dem Bild nichts zu tun hat. Das könnten geometrische Figuren, Alltagstätigkeiten oder bekannte Orte sein.",,,,,,,,,0,2,2,0,0,13,13,10,,,,,3.5,,,,,,,,1074.0719501499111,5.999708326676682,None,,,,,,,,B03I09,2022-09-29_12h20.01.110,t2_paradigm,2021.1.4,59.99006960904383,
3,,1,ABLENKEN,,Stimuli/6562.jpg,,Trials/StimuliNegative.xlsx,23,"Denken Sie während des Betrachtens der Bilder an etwas Neutrales, das mit dem Bild nichts zu tun hat. Das könnten geometrische Figuren, Alltagstätigkeiten oder bekannte Orte sein.",,,,,,,,,0,2,2,0,0,14,14,11,,,,,4.8,,,,,,,,1084.9135505548916,6.016402742729952,None,,,,,,,,B03I09,2022-09-29_12h20.01.110,t2_paradigm,2021.1.4,59.99006960904383,
3,,1,ABLENKEN,,Stimuli/3160.jpg,,Trials/StimuliNegative.xlsx,23,"Denken Sie während des Betrachtens der Bilder an etwas Neutrales, das mit dem Bild nichts zu tun hat. Das könnten geometrische Figuren, Alltagstätigkeiten oder bekannte Orte sein.",,,,,,,,,0,2,2,0,0,15,15,8,,,,,3.9,,,,,,,,1094.8601135767967,6.007487458239666,None,,,,,,,,B03I09,2022-09-29_12h20.01.110,t2_paradigm,2021.1.4,59.99006960904383,
3,,1,ABLENKEN,,Stimuli/9042.jpg,,Trials/StimuliNegative.xlsx,23,"Denken Sie während des Betrachtens der Bilder an etwas Neutrales, das mit dem Bild nichts zu tun hat. Das könnten geometrische Figuren, Alltagstätigkeiten oder bekannte Orte sein.",,,,,,,,,0,2,2,0,0,16,16,14,,,,,3.3,,,,,,,,1104.2086307971358,6.010614316887313,None,,,,,,,,B03I09,2022-09-29_12h20.01.110,t2_paradigm,2021.1.4,59.99006960904383,
3,,1,ABLENKEN,,Stimuli/246.jpg,,Trials/StimuliNegative.xlsx,23,"Denken Sie während des Betrachtens der Bilder an etwas Neutrales, das mit dem Bild nichts zu tun hat. Das könnten geometrische Figuren, Alltagstätigkeiten oder bekannte Orte sein.",,,,,,,,,0,2,2,0,0,17,17,4,,,,,3.6,,,,,,,,1113.8564188983269,5.997013267735838,None,,,,,,,,B03I09,2022-09-29_12h20.01.110,t2_paradigm,2021.1.4,59.99006960904383,
3,,1,ABLENKEN,,Stimuli/228.jpg,,Trials/StimuliNegative.xlsx,23,"Denken Sie während des Betrachtens der Bilder an etwas Neutrales, das mit dem Bild nichts zu tun hat. Das könnten geometrische Figuren, Alltagstätigkeiten oder bekannte Orte sein.",,,,,,,,,0,2,2,0,0,18,18,3,,,,,3.8,,,,,,,,1123.6870058443737,6.003135776947602,None,,,,,,,,B03I09,2022-09-29_12h20.01.110,t2_paradigm,2021.1.4,59.99006960904383,
3,,1,ABLENKEN,,Stimuli/222.jpg,,Trials/StimuliNegative.xlsx,23,"Denken Sie während des Betrachtens der Bilder an etwas Neutrales, das mit dem Bild nichts zu tun hat. Das könnten geometrische Figuren, Alltagstätigkeiten oder bekannte Orte sein.",,,,,,,,,0,2,2,0,0,19,19,2,,,,,3.1,,,,,,,,1132.8178093960387,6.007702074884492,None,,,,,,,,B03I09,2022-09-29_12h20.01.110,t2_paradigm,2021.1.4,59.99006960904383,
3,,1,ABLENKEN,,,,Trials/StimuliNegative.xlsx,23,"Denken Sie während des Betrachtens der Bilder an etwas Neutrales, das mit dem Bild nichts zu tun hat. Das könnten geometrische Figuren, Alltagstätigkeiten oder bekannte Orte sein.",,,,,,,,,0,2,2,0,,,,,,,,,,,,,196.66666666666666,13.218701418522869,134.44444444444446,7.070493387305305,,,,,,,,,,,B03I09,2022-09-29_12h20.01.110,t2_paradigm,2021.1.4,59.99006960904383,
,,,,,,,,,,,,,,,,,,,,,,,,,,,,,,,,,,,,,,,,,2,14.68386294561833,,,,,,B03I09,2022-09-29_12h20.01.110,t2_paradigm,2021.1.4,59.99006960904383,
,,,,,,,,,,,,,,,,,,,,,,,,,,,,,,,,,,,,,,,,,,,space,12.934671848262951,,,,B03I09,2022-09-29_12h20.01.110,t2_paradigm,2021.1.4,59.99006960904383,
,,,,,Stimuli/9424.jpg,,,,,,,,,,,,,,,,,,,,,0,0,0,17,3.6,,,,,,,,,,,,,,,1348.7493370623379,6.012233918668699,None,B03I09,2022-09-29_12h20.01.110,t2_paradigm,2021.1.4,59.99006960904383,
,,,,,Stimuli/255.jpg,,,,,,,,,,,,,,,,,,,,,0,1,1,2,3.4,,,,,,,,,,,,,,,1358.196420104543,6.001011425048091,None,B03I09,2022-09-29_12h20.01.110,t2_paradigm,2021.1.4,59.99006960904383,
,,,,,Stimuli/9180.jpg,,,,,,,,,,,,,,,,,,,,,0,2,2,12,4.8,,,,,,,,,,,,,,,1369.0477546094457,6.014689659198666,None,B03I09,2022-09-29_12h20.01.110,t2_paradigm,2021.1.4,59.99006960904383,
,,,,,Stimuli/3180.jpg,,,,,,,,,,,,,,,,,,,,,0,3,3,7,4.0,,,,,,,,,,,,,,,1379.0965608083702,6.00047376062912,None,B03I09,2022-09-29_12h20.01.110,t2_paradigm,2021.1.4,59.99006960904383,
,,,,,Stimuli/1111.jpg,,,,,,,,,,,,,,,,,,,,,0,4,4,4,3.6,,,,,,,,,,,,,,,1388.7421305626294,6.009750717474162,None,B03I09,2022-09-29_12h20.01.110,t2_paradigm,2021.1.4,59.99006960904383,
,,,,,Stimuli/230.jpg,,,,,,,,,,,,,,,,,,,,,0,5,5,1,3.6,,,,,,,,,,,,,,,1398.392095627274,6.008932030363667,None,B03I09,2022-09-29_12h20.01.110,t2_paradigm,2021.1.4,59.99006960904383,
,,,,,Stimuli/3017.jpg,,,,,,,,,,,,,,,,,,,,,0,6,6,5,3.6,,,,,,,,,,,,,,,1408.0402536133552,5.995749307227925,None,B03I09,2022-09-29_12h20.01.110,t2_paradigm,2021.1.4,59.99006960904383,
,,,,,Stimuli/9300.jpg,,,,,,,,,,,,,,,,,,,,,0,7,7,15,4.8,,,,,,,,,,,,,,,1418.8805329550437,6.015892025691755,None,B03I09,2022-09-29_12h20.01.110,t2_paradigm,2021.1.4,59.99006960904383,
,,,,,Stimuli/327.jpg,,,,,,,,,,,,,,,,,,,,,0,8,8,3,4.7,,,,,,,,,,,,,,,1429.6177494701951,6.008208942295823,None,B03I09,2022-09-29_12h20.01.110,t2_paradigm,2021.1.4,59.99006960904383,
,,,,,Stimuli/9425.jpg,,,,,,,,,,,,,,,,,,,,,0,9,9,18,4.3,,,,,,,,,,,,,,,1439.97255312965,5.998721090110848,None,B03I09,2022-09-29_12h20.01.110,t2_paradigm,2021.1.4,59.99006960904383,
,,,,,Stimuli/9253.jpg,,,,,,,,,,,,,,,,,,,,,0,10,10,14,3.5,,,,,,,,,,,,,,,1449.5011503965434,6.009325654612439,None,B03I09,2022-09-29_12h20.01.110,t2_paradigm,2021.1.4,59.99006960904383,
,,,,,Stimuli/3280.jpg,,,,,,,,,,,,,,,,,,,,,0,11,11,8,4.5,,,,,,,,,,,,,,,1460.0465801527407,6.000474402234431,None,B03I09,2022-09-29_12h20.01.110,t2_paradigm,2021.1.4,59.99006960904383,
,,,,,Stimuli/6190.jpg,,,,,,,,,,,,,,,,,,,,,0,12,12,9,3.5,,,,,,,,,,,,,,,1469.5833286817024,6.010562346937149,None,B03I09,2022-09-29_12h20.01.110,t2_paradigm,2021.1.4,59.99006960904383,
,,,,,Stimuli/9326.jpg,,,,,,,,,,,,,,,,,,,,,0,13,13,16,3.1,,,,,,,,,,,,,,,1478.7318296052918,6.01482311289783,None,B03I09,2022-09-29_12h20.01.110,t2_paradigm,2021.1.4,59.99006960904383,
,,,,,Stimuli/9920.jpg,,,,,,,,,,,,,,,,,,,,,0,14,14,19,3.5,,,,,,,,,,,,,,,1488.2778618279435,6.005912961240028,None,B03I09,2022-09-29_12h20.01.110,t2_paradigm,2021.1.4,59.99006960904383,
,,,,,Stimuli/3022.jpg,,,,,,,,,,,,,,,,,,,,,0,15,15,6,3.5,,,,,,,,,,,,,,,1497.8228944310667,5.998167834706692,None,B03I09,2022-09-29_12h20.01.110,t2_paradigm,2021.1.4,59.99006960904383,
,,,,,Stimuli/6244.jpg,,,,,,,,,,,,,,,,,,,,,0,16,16,10,3.3,,,,,,,,,,,,,,,1507.157294110778,5.9954182393994415,None,B03I09,2022-09-29_12h20.01.110,t2_paradigm,2021.1.4,59.99006960904383,
,,,,,Stimuli/225.jpg,,,,,,,,,,,,,,,,,,,,,0,17,17,0,4.2,,,,,,,,,,,,,,,1517.3920131811192,6.009141193370851,None,B03I09,2022-09-29_12h20.01.110,t2_paradigm,2021.1.4,59.99006960904383,
,,,,,Stimuli/9182.jpg,,,,,,,,,,,,,,,,,,,,,0,18,18,13,3.7,,,,,,,,,,,,,,,1527.1523662688078,6.00690218678028,None,B03I09,2022-09-29_12h20.01.110,t2_paradigm,2021.1.4,59.99006960904383,
,,,,,Stimuli/6836.jpg,,,,,,,,,,,,,,,,,,,,,0,19,19,11,3.2,,,,,,,,,,,,,,,1536.3833694877367,6.0101353592626765,None,B03I09,2022-09-29_12h20.01.110,t2_paradigm,2021.1.4,59.99006960904383,
,,,,,,,,,,,,,,,,,,,,,,,,,,,,,,,,,,227.03703703703707,9.500626205815024,115.55555555555554,2.384975744149415,,,,,,,,,,,B03I09,2022-09-29_12h20.01.110,t2_paradigm,2021.1.4,59.99006960904383,
