Block,conds_view_File,n_reps,instr_1,TriggerBlockView,ImageFile,Trigger,conds_reg_File,TriggerBlockReg,instr_2,blocks_view.thisRepN,blocks_view.thisTrialN,blocks_view.thisN,blocks_view.thisIndex,trials_view.thisRepN,trials_view.thisTrialN,trials_view.thisN,trials_view.thisIndex,blocks_reg.thisRepN,blocks_reg.thisTrialN,blocks_reg.thisN,blocks_reg.thisIndex,trials_reg.thisRepN,trials_reg.thisTrialN,trials_reg.thisN,trials_reg.thisIndex,trials_choice.thisRepN,trials_choice.thisTrialN,trials_choice.thisN,trials_choice.thisIndex,Fix_jitter,image_view.started,image_view.lasted,image_view.stopped,slider_arousal.response,slider_arousal.rt,slider_effort.response,slider_effort.rt,image_reg.started,image_reg.lasted,image_reg.stopped,slider_utility.response,slider_utility.rt,resp_choice.keys,resp_choice.rt,key_resp.keys,key_resp.rt,image.started,image.lased,image.stopped,participant,date,expName,psychopyVersion,frameRate,
,,,,,,,,,,,,,,,,,,,,,,,,,,,,,,,,,,,,,,,,,,,,,,,,,,B07R09,2022-11-24_10h59.58.920,t2_paradigm,2021.1.4,60.040563888355365,
1,Trials/StimuliNeutral.xlsx,1,ANSCHAUEN,21,Stimuli/143.jpg,1,,,,0,0,0,0,0,0,0,4,,,,,,,,,,,,,4.5,113.86676021239691,6.044926234893865,None,,,,,,,,,,,,,,,,,B07R09,2022-11-24_10h59.58.920,t2_paradigm,2021.1.4,60.040563888355365,
1,Trials/StimuliNeutral.xlsx,1,ANSCHAUEN,21,Stimuli/7185.jpg,1,,,,0,0,0,0,0,1,1,15,,,,,,,,,,,,,4.5,124.42703080208048,6.009147527647656,None,,,,,,,,,,,,,,,,,B07R09,2022-11-24_10h59.58.920,t2_paradigm,2021.1.4,60.040563888355365,
1,Trials/StimuliNeutral.xlsx,1,ANSCHAUEN,21,Stimuli/7224.jpg,1,,,,0,0,0,0,0,2,2,17,,,,,,,,,,,,,4.3,134.7594905928163,6.00619137351714,None,,,,,,,,,,,,,,,,,B07R09,2022-11-24_10h59.58.920,t2_paradigm,2021.1.4,60.040563888355365,
1,Trials/StimuliNeutral.xlsx,1,ANSCHAUEN,21,Stimuli/7025.jpg,1,,,,0,0,0,0,0,3,3,11,,,,,,,,,,,,,4.1,144.89592171415825,6.0127899404342315,None,,,,,,,,,,,,,,,,,B07R09,2022-11-24_10h59.58.920,t2_paradigm,2021.1.4,60.040563888355365,
1,Trials/StimuliNeutral.xlsx,1,ANSCHAUEN,21,Stimuli/7000.jpg,1,,,,0,0,0,0,0,4,4,5,,,,,,,,,,,,,3.3,154.24487872418467,6.012424547478076,None,,,,,,,,,,,,,,,,,B07R09,2022-11-24_10h59.58.920,t2_paradigm,2021.1.4,60.040563888355365,
1,Trials/StimuliNeutral.xlsx,1,ANSCHAUEN,21,Stimuli/083.jpg,1,,,,0,0,0,0,0,5,5,0,,,,,,,,,,,,,4.2,164.49663799984046,6.0049120169715025,None,,,,,,,,,,,,,,,,,B07R09,2022-11-24_10h59.58.920,t2_paradigm,2021.1.4,60.040563888355365,
1,Trials/StimuliNeutral.xlsx,1,ANSCHAUEN,21,Stimuli/7006.jpg,1,,,,0,0,0,0,0,6,6,8,,,,,,,,,,,,,4.6,175.15078346152586,6.010150353265999,None,,,,,,,,,,,,,,,,,B07R09,2022-11-24_10h59.58.920,t2_paradigm,2021.1.4,60.040563888355365,
1,Trials/StimuliNeutral.xlsx,1,ANSCHAUEN,21,Stimuli/7004.jpg,1,,,,0,0,0,0,0,7,7,7,,,,,,,,,,,,,3.7,184.88408798688033,6.008251561021098,None,,,,,,,,,,,,,,,,,B07R09,2022-11-24_10h59.58.920,t2_paradigm,2021.1.4,60.040563888355365,
1,Trials/StimuliNeutral.xlsx,1,ANSCHAUEN,21,Stimuli/7009.jpg,1,,,,0,0,0,0,0,8,8,9,,,,,,,,,,,,,3.9,194.8130949264596,6.012894842539026,None,,,,,,,,,,,,,,,,,B07R09,2022-11-24_10h59.58.920,t2_paradigm,2021.1.4,60.040563888355365,
1,Trials/StimuliNeutral.xlsx,1,ANSCHAUEN,21,Stimuli/7041.jpg,1,,,,0,0,0,0,0,9,9,12,,,,,,,,,,,,,3.2,204.05420038290868,6.0110640281382075,None,,,,,,,,,,,,,,,,,B07R09,2022-11-24_10h59.58.920,t2_paradigm,2021.1.4,60.040563888355365,
1,Trials/StimuliNeutral.xlsx,1,ANSCHAUEN,21,Stimuli/7021.jpg,1,,,,0,0,0,0,0,10,10,10,,,,,,,,,,,,,4.0,214.11752051205076,6.013543824057706,None,,,,,,,,,,,,,,,,,B07R09,2022-11-24_10h59.58.920,t2_paradigm,2021.1.4,60.040563888355365,
1,Trials/StimuliNeutral.xlsx,1,ANSCHAUEN,21,Stimuli/7100.jpg,1,,,,0,0,0,0,0,11,11,13,,,,,,,,,,,,,3.1,223.26085111215434,6.007835481421353,None,,,,,,,,,,,,,,,,,B07R09,2022-11-24_10h59.58.920,t2_paradigm,2021.1.4,60.040563888355365,
1,Trials/StimuliNeutral.xlsx,1,ANSCHAUEN,21,Stimuli/7150.jpg,1,,,,0,0,0,0,0,12,12,14,,,,,,,,,,,,,4.5,233.79112868248194,6.009068963348909,None,,,,,,,,,,,,,,,,,B07R09,2022-11-24_10h59.58.920,t2_paradigm,2021.1.4,60.040563888355365,
1,Trials/StimuliNeutral.xlsx,1,ANSCHAUEN,21,Stimuli/7211.jpg,1,,,,0,0,0,0,0,13,13,16,,,,,,,,,,,,,3.5,243.3230891776966,6.00943275229838,None,,,,,,,,,,,,,,,,,B07R09,2022-11-24_10h59.58.920,t2_paradigm,2021.1.4,60.040563888355365,
1,Trials/StimuliNeutral.xlsx,1,ANSCHAUEN,21,Stimuli/7233.jpg,1,,,,0,0,0,0,0,14,14,18,,,,,,,,,,,,,3.8,253.1555319659492,6.009170015833661,None,,,,,,,,,,,,,,,,,B07R09,2022-11-24_10h59.58.920,t2_paradigm,2021.1.4,60.040563888355365,
1,Trials/StimuliNeutral.xlsx,1,ANSCHAUEN,21,Stimuli/124.jpg,1,,,,0,0,0,0,0,15,15,2,,,,,,,,,,,,,3.7,262.8860759940362,6.00973430574777,None,,,,,,,,,,,,,,,,,B07R09,2022-11-24_10h59.58.920,t2_paradigm,2021.1.4,60.040563888355365,
1,Trials/StimuliNeutral.xlsx,1,ANSCHAUEN,21,Stimuli/7002.jpg,1,,,,0,0,0,0,0,16,16,6,,,,,,,,,,,,,4.1,273.03883559305905,6.0011217146711715,None,,,,,,,,,,,,,,,,,B07R09,2022-11-24_10h59.58.920,t2_paradigm,2021.1.4,60.040563888355365,
1,Trials/StimuliNeutral.xlsx,1,ANSCHAUEN,21,Stimuli/140.jpg,1,,,,0,0,0,0,0,17,17,3,,,,,,,,,,,,,4.6,283.67056472620243,6.000696043105563,None,,,,,,,,,,,,,,,,,B07R09,2022-11-24_10h59.58.920,t2_paradigm,2021.1.4,60.040563888355365,
1,Trials/StimuliNeutral.xlsx,1,ANSCHAUEN,21,Stimuli/107.jpg,1,,,,0,0,0,0,0,18,18,1,,,,,,,,,,,,,4.3,293.98937729854333,6.009898909018375,None,,,,,,,,,,,,,,,,,B07R09,2022-11-24_10h59.58.920,t2_paradigm,2021.1.4,60.040563888355365,
1,Trials/StimuliNeutral.xlsx,1,ANSCHAUEN,21,Stimuli/7235.jpg,1,,,,0,0,0,0,0,19,19,19,,,,,,,,,,,,,3.9,303.9405830632186,6.002943257906736,None,,,,,,,,,,,,,,,,,B07R09,2022-11-24_10h59.58.920,t2_paradigm,2021.1.4,60.040563888355365,
1,Trials/StimuliNeutral.xlsx,1,ANSCHAUEN,21,,,,,,0,0,0,0,,,,,,,,,,,,,,,,,,,,,0,4.068424723276621,0.33333333333334103,2.869158845525817,,,,,,,,,,,,,B07R09,2022-11-24_10h59.58.920,t2_paradigm,2021.1.4,60.040563888355365,
2,Trials/StimuliNegative.xlsx,1,ANSCHAUEN,22,Stimuli/6190.jpg,,,,,0,1,1,1,0,0,0,9,,,,,,,,,,,,,3.2,328.6644396623633,6.014168424659147,None,,,,,,,,,,,,,,,,,B07R09,2022-11-24_10h59.58.920,t2_paradigm,2021.1.4,60.040563888355365,
2,Trials/StimuliNegative.xlsx,1,ANSCHAUEN,22,Stimuli/3022.jpg,,,,,0,1,1,1,0,1,1,6,,,,,,,,,,,,,3.6,338.31126154564845,6.0021117403084645,None,,,,,,,,,,,,,,,,,B07R09,2022-11-24_10h59.58.920,t2_paradigm,2021.1.4,60.040563888355365,
2,Trials/StimuliNegative.xlsx,1,ANSCHAUEN,22,Stimuli/1111.jpg,,,,,0,1,1,1,0,2,2,4,,,,,,,,,,,,,4.2,348.5428809005025,6.001368122337226,None,,,,,,,,,,,,,,,,,B07R09,2022-11-24_10h59.58.920,t2_paradigm,2021.1.4,60.040563888355365,
2,Trials/StimuliNegative.xlsx,1,ANSCHAUEN,22,Stimuli/9182.jpg,,,,,0,1,1,1,0,3,3,13,,,,,,,,,,,,,4.6,359.1726460866066,6.005093911444419,None,,,,,,,,,,,,,,,,,B07R09,2022-11-24_10h59.58.920,t2_paradigm,2021.1.4,60.040563888355365,
2,Trials/StimuliNegative.xlsx,1,ANSCHAUEN,22,Stimuli/6244.jpg,,,,,0,1,1,1,0,4,4,10,,,,,,,,,,,,,3.8,369.00246728465936,6.006373909594913,None,,,,,,,,,,,,,,,,,B07R09,2022-11-24_10h59.58.920,t2_paradigm,2021.1.4,60.040563888355365,
2,Trials/StimuliNegative.xlsx,1,ANSCHAUEN,22,Stimuli/225.jpg,,,,,0,1,1,1,0,5,5,0,,,,,,,,,,,,,3.9,378.92852028363995,6.00134024468025,None,,,,,,,,,,,,,,,,,B07R09,2022-11-24_10h59.58.920,t2_paradigm,2021.1.4,60.040563888355365,
2,Trials/StimuliNegative.xlsx,1,ANSCHAUEN,22,Stimuli/9300.jpg,,,,,0,1,1,1,0,6,6,15,,,,,,,,,,,,,3.4,388.3697635564313,6.000606860276093,None,,,,,,,,,,,,,,,,,B07R09,2022-11-24_10h59.58.920,t2_paradigm,2021.1.4,60.040563888355365,
2,Trials/StimuliNegative.xlsx,1,ANSCHAUEN,22,Stimuli/327.jpg,,,,,0,1,1,1,0,7,7,3,,,,,,,,,,,,,4.5,398.91944320401126,6.013214360873462,None,,,,,,,,,,,,,,,,,B07R09,2022-11-24_10h59.58.920,t2_paradigm,2021.1.4,60.040563888355365,
2,Trials/StimuliNegative.xlsx,1,ANSCHAUEN,22,Stimuli/9180.jpg,,,,,0,1,1,1,0,8,8,12,,,,,,,,,,,,,4.1,409.06395371218787,6.004349972668933,None,,,,,,,,,,,,,,,,,B07R09,2022-11-24_10h59.58.920,t2_paradigm,2021.1.4,60.040563888355365,
2,Trials/StimuliNegative.xlsx,1,ANSCHAUEN,22,Stimuli/3280.jpg,,,,,0,1,1,1,0,9,9,8,,,,,,,,,,,,,3.8,418.8905322482551,6.014917496258931,None,,,,,,,,,,,,,,,,,B07R09,2022-11-24_10h59.58.920,t2_paradigm,2021.1.4,60.040563888355365,
2,Trials/StimuliNegative.xlsx,1,ANSCHAUEN,22,Stimuli/9920.jpg,,,,,0,1,1,1,0,10,10,19,,,,,,,,,,,,,4.8,429.73102908001783,6.0142171864954435,None,,,,,,,,,,,,,,,,,B07R09,2022-11-24_10h59.58.920,t2_paradigm,2021.1.4,60.040563888355365,
2,Trials/StimuliNegative.xlsx,1,ANSCHAUEN,22,Stimuli/9326.jpg,,,,,0,1,1,1,0,11,11,16,,,,,,,,,,,,,4.3,440.0848093412278,6.002987207717524,None,,,,,,,,,,,,,,,,,B07R09,2022-11-24_10h59.58.920,t2_paradigm,2021.1.4,60.040563888355365,
2,Trials/StimuliNegative.xlsx,1,ANSCHAUEN,22,Stimuli/9425.jpg,,,,,0,1,1,1,0,12,12,18,,,,,,,,,,,,,3.1,449.22277613955157,6.0080407944060426,None,,,,,,,,,,,,,,,,,B07R09,2022-11-24_10h59.58.920,t2_paradigm,2021.1.4,60.040563888355365,
2,Trials/StimuliNegative.xlsx,1,ANSCHAUEN,22,Stimuli/3017.jpg,,,,,0,1,1,1,0,13,13,5,,,,,,,,,,,,,3.8,459.0563885702268,6.002413293759673,None,,,,,,,,,,,,,,,,,B07R09,2022-11-24_10h59.58.920,t2_paradigm,2021.1.4,60.040563888355365,
2,Trials/StimuliNegative.xlsx,1,ANSCHAUEN,22,Stimuli/9424.jpg,,,,,0,1,1,1,0,14,14,17,,,,,,,,,,,,,4.0,469.081090609754,6.0005016694503865,None,,,,,,,,,,,,,,,,,B07R09,2022-11-24_10h59.58.920,t2_paradigm,2021.1.4,60.040563888355365,
2,Trials/StimuliNegative.xlsx,1,ANSCHAUEN,22,Stimuli/6836.jpg,,,,,0,1,1,1,0,15,15,11,,,,,,,,,,,,,4.9,480.0144559590808,6.012797960473108,None,,,,,,,,,,,,,,,,,B07R09,2022-11-24_10h59.58.920,t2_paradigm,2021.1.4,60.040563888355365,
2,Trials/StimuliNegative.xlsx,1,ANSCHAUEN,22,Stimuli/3180.jpg,,,,,0,1,1,1,0,16,16,7,,,,,,,,,,,,,3.6,489.64696592317705,6.0109709956923325,None,,,,,,,,,,,,,,,,,B07R09,2022-11-24_10h59.58.920,t2_paradigm,2021.1.4,60.040563888355365,
2,Trials/StimuliNegative.xlsx,1,ANSCHAUEN,22,Stimuli/9253.jpg,,,,,0,1,1,1,0,17,17,14,,,,,,,,,,,,,4.0,499.70300610292907,6.013273067557748,None,,,,,,,,,,,,,,,,,B07R09,2022-11-24_10h59.58.920,t2_paradigm,2021.1.4,60.040563888355365,
2,Trials/StimuliNegative.xlsx,1,ANSCHAUEN,22,Stimuli/230.jpg,,,,,0,1,1,1,0,18,18,1,,,,,,,,,,,,,4.8,510.54719054841735,6.00327272109098,None,,,,,,,,,,,,,,,,,B07R09,2022-11-24_10h59.58.920,t2_paradigm,2021.1.4,60.040563888355365,
2,Trials/StimuliNegative.xlsx,1,ANSCHAUEN,22,Stimuli/255.jpg,,,,,0,1,1,1,0,19,19,2,,,,,,,,,,,,,3.2,519.7699496854857,6.00469037518269,None,,,,,,,,,,,,,,,,,B07R09,2022-11-24_10h59.58.920,t2_paradigm,2021.1.4,60.040563888355365,
2,Trials/StimuliNegative.xlsx,1,ANSCHAUEN,22,,,,,,0,1,1,1,,,,,,,,,,,,,,,,,,,,,224.66666666666666,7.199131141103862,12.333333333333329,2.520246426911399,,,,,,,,,,,,,B07R09,2022-11-24_10h59.58.920,t2_paradigm,2021.1.4,60.040563888355365,
4,,1,DISTANZIEREN,,Stimuli/3051.jpg,,Trials/StimuliNegative.xlsx,24,Nehmen Sie die Position eines uninvolvierten Beobachters ein. Denken Sie über das Bild in einer neutralen Weise nach.,,,,,,,,,0,0,0,1,0,0,0,7,,,,,3.4,,,,,,,,554.3075646286779,6.003457470696958,None,,,,,,,,,,B07R09,2022-11-24_10h59.58.920,t2_paradigm,2021.1.4,60.040563888355365,
4,,1,DISTANZIEREN,,Stimuli/9145.jpg,,Trials/StimuliNegative.xlsx,24,Nehmen Sie die Position eines uninvolvierten Beobachters ein. Denken Sie über das Bild in einer neutralen Weise nach.,,,,,,,,,0,0,0,1,0,1,1,16,,,,,3.7,,,,,,,,564.0427602791224,6.011375526435586,None,,,,,,,,,,B07R09,2022-11-24_10h59.58.920,t2_paradigm,2021.1.4,60.040563888355365,
4,,1,DISTANZIEREN,,Stimuli/9184.jpg,,Trials/StimuliNegative.xlsx,24,Nehmen Sie die Position eines uninvolvierten Beobachters ein. Denken Sie über das Bild in einer neutralen Weise nach.,,,,,,,,,0,0,0,1,0,2,2,18,,,,,4.7,,,,,,,,574.7945769782546,6.004484067712838,None,,,,,,,,,,B07R09,2022-11-24_10h59.58.920,t2_paradigm,2021.1.4,60.040563888355365,
4,,1,DISTANZIEREN,,Stimuli/228.jpg,,Trials/StimuliNegative.xlsx,24,Nehmen Sie die Position eines uninvolvierten Beobachters ein. Denken Sie über das Bild in einer neutralen Weise nach.,,,,,,,,,0,0,0,1,0,3,3,3,,,,,3.0,,,,,,,,583.8378203845004,6.014211732866897,None,,,,,,,,,,B07R09,2022-11-24_10h59.58.920,t2_paradigm,2021.1.4,60.040563888355365,
4,,1,DISTANZIEREN,,Stimuli/9040.jpg,,Trials/StimuliNegative.xlsx,24,Nehmen Sie die Position eines uninvolvierten Beobachters ein. Denken Sie über das Bild in einer neutralen Weise nach.,,,,,,,,,0,0,0,1,0,4,4,13,,,,,4.3,,,,,,,,594.1948044907076,6.0143368133885815,None,,,,,,,,,,B07R09,2022-11-24_10h59.58.920,t2_paradigm,2021.1.4,60.040563888355365,
4,,1,DISTANZIEREN,,Stimuli/2703.jpg,,Trials/StimuliNegative.xlsx,24,Nehmen Sie die Position eines uninvolvierten Beobachters ein. Denken Sie über das Bild in einer neutralen Weise nach.,,,,,,,,,0,0,0,1,0,5,5,6,,,,,4.4,,,,,,,,604.6376578664385,6.008889635288142,None,,,,,,,,,,B07R09,2022-11-24_10h59.58.920,t2_paradigm,2021.1.4,60.040563888355365,
4,,1,DISTANZIEREN,,Stimuli/6562.jpg,,Trials/StimuliNegative.xlsx,24,Nehmen Sie die Position eines uninvolvierten Beobachters ein. Denken Sie über das Bild in einer neutralen Weise nach.,,,,,,,,,0,0,0,1,0,6,6,11,,,,,3.6,,,,,,,,614.2783543650821,6.006732886520695,None,,,,,,,,,,B07R09,2022-11-24_10h59.58.920,t2_paradigm,2021.1.4,60.040563888355365,
4,,1,DISTANZIEREN,,Stimuli/246.jpg,,Trials/StimuliNegative.xlsx,24,Nehmen Sie die Position eines uninvolvierten Beobachters ein. Denken Sie über das Bild in einer neutralen Weise nach.,,,,,,,,,0,0,0,1,0,7,7,4,,,,,4.4,,,,,,,,624.7091391868071,6.0082162728522235,None,,,,,,,,,,B07R09,2022-11-24_10h59.58.920,t2_paradigm,2021.1.4,60.040563888355365,
4,,1,DISTANZIEREN,,Stimuli/218.jpg,,Trials/StimuliNegative.xlsx,24,Nehmen Sie die Position eines uninvolvierten Beobachters ein. Denken Sie über das Bild in einer neutralen Weise nach.,,,,,,,,,0,0,0,1,0,8,8,1,,,,,4.4,,,,,,,,635.1348819706964,6.003028943998288,None,,,,,,,,,,B07R09,2022-11-24_10h59.58.920,t2_paradigm,2021.1.4,60.040563888355365,
4,,1,DISTANZIEREN,,Stimuli/9160.jpg,,Trials/StimuliNegative.xlsx,24,Nehmen Sie die Position eines uninvolvierten Beobachters ein. Denken Sie über das Bild in einer neutralen Weise nach.,,,,,,,,,0,0,0,1,0,9,9,17,,,,,3.6,,,,,,,,644.7795416515892,6.01085582793894,None,,,,,,,,,,B07R09,2022-11-24_10h59.58.920,t2_paradigm,2021.1.4,60.040563888355365,
4,,1,DISTANZIEREN,,Stimuli/222.jpg,,Trials/StimuliNegative.xlsx,24,Nehmen Sie die Position eines uninvolvierten Beobachters ein. Denken Sie über das Bild in einer neutralen Weise nach.,,,,,,,,,0,0,0,1,0,10,10,2,,,,,4.9,,,,,,,,655.7345453857197,6.012205119224745,None,,,,,,,,,,B07R09,2022-11-24_10h59.58.920,t2_paradigm,2021.1.4,60.040563888355365,
4,,1,DISTANZIEREN,,Stimuli/3185.jpg,,Trials/StimuliNegative.xlsx,24,Nehmen Sie die Position eines uninvolvierten Beobachters ein. Denken Sie über das Bild in einer neutralen Weise nach.,,,,,,,,,0,0,0,1,0,11,11,9,,,,,4.0,,,,,,,,665.7799821121062,6.001824943732572,None,,,,,,,,,,B07R09,2022-11-24_10h59.58.920,t2_paradigm,2021.1.4,60.040563888355365,
4,,1,DISTANZIEREN,,Stimuli/9043.jpg,,Trials/StimuliNegative.xlsx,24,Nehmen Sie die Position eines uninvolvierten Beobachters ein. Denken Sie über das Bild in einer neutralen Weise nach.,,,,,,,,,0,0,0,1,0,12,12,15,,,,,3.9,,,,,,,,675.7127684146508,6.0013934977359895,None,,,,,,,,,,B07R09,2022-11-24_10h59.58.920,t2_paradigm,2021.1.4,60.040563888355365,
4,,1,DISTANZIEREN,,Stimuli/3160.jpg,,Trials/StimuliNegative.xlsx,24,Nehmen Sie die Position eines uninvolvierten Beobachters ein. Denken Sie über das Bild in einer neutralen Weise nach.,,,,,,,,,0,0,0,1,0,13,13,8,,,,,4.2,,,,,,,,685.9492652361478,6.007541306407802,None,,,,,,,,,,B07R09,2022-11-24_10h59.58.920,t2_paradigm,2021.1.4,60.040563888355365,
4,,1,DISTANZIEREN,,Stimuli/3301.jpg,,Trials/StimuliNegative.xlsx,24,Nehmen Sie die Position eines uninvolvierten Beobachters ein. Denken Sie über das Bild in einer neutralen Weise nach.,,,,,,,,,0,0,0,1,0,14,14,10,,,,,3.2,,,,,,,,695.1751881180244,6.001036766421748,None,,,,,,,,,,B07R09,2022-11-24_10h59.58.920,t2_paradigm,2021.1.4,60.040563888355365,
4,,1,DISTANZIEREN,,Stimuli/210.jpg,,Trials/StimuliNegative.xlsx,24,Nehmen Sie die Position eines uninvolvierten Beobachters ein. Denken Sie über das Bild in einer neutralen Weise nach.,,,,,,,,,0,0,0,1,0,15,15,0,,,,,4.5,,,,,,,,705.7130115822183,6.005457058789034,None,,,,,,,,,,B07R09,2022-11-24_10h59.58.920,t2_paradigm,2021.1.4,60.040563888355365,
4,,1,DISTANZIEREN,,Stimuli/9042.jpg,,Trials/StimuliNegative.xlsx,24,Nehmen Sie die Position eines uninvolvierten Beobachters ein. Denken Sie über das Bild in einer neutralen Weise nach.,,,,,,,,,0,0,0,1,0,16,16,14,,,,,4.7,,,,,,,,716.4497952002966,6.013500515848136,None,,,,,,,,,,B07R09,2022-11-24_10h59.58.920,t2_paradigm,2021.1.4,60.040563888355365,
4,,1,DISTANZIEREN,,Stimuli/251.jpg,,Trials/StimuliNegative.xlsx,24,Nehmen Sie die Position eines uninvolvierten Beobachters ein. Denken Sie über das Bild in einer neutralen Weise nach.,,,,,,,,,0,0,0,1,0,17,17,5,,,,,3.2,,,,,,,,725.6872765617263,6.000298602073599,None,,,,,,,,,,B07R09,2022-11-24_10h59.58.920,t2_paradigm,2021.1.4,60.040563888355365,
4,,1,DISTANZIEREN,,Stimuli/9031.jpg,,Trials/StimuliNegative.xlsx,24,Nehmen Sie die Position eines uninvolvierten Beobachters ein. Denken Sie über das Bild in einer neutralen Weise nach.,,,,,,,,,0,0,0,1,0,18,18,12,,,,,3.8,,,,,,,,735.5357052116142,6.001201305532959,None,,,,,,,,,,B07R09,2022-11-24_10h59.58.920,t2_paradigm,2021.1.4,60.040563888355365,
4,,1,DISTANZIEREN,,Stimuli/9904.jpg,,Trials/StimuliNegative.xlsx,24,Nehmen Sie die Position eines uninvolvierten Beobachters ein. Denken Sie über das Bild in einer neutralen Weise nach.,,,,,,,,,0,0,0,1,0,19,19,19,,,,,3.7,,,,,,,,745.2856894923389,6.013924583407061,None,,,,,,,,,,B07R09,2022-11-24_10h59.58.920,t2_paradigm,2021.1.4,60.040563888355365,
4,,1,DISTANZIEREN,,,,Trials/StimuliNegative.xlsx,24,Nehmen Sie die Position eines uninvolvierten Beobachters ein. Denken Sie über das Bild in einer neutralen Weise nach.,,,,,,,,,0,0,0,1,,,,,,,,,,,,,220.00000000000003,10.49921628183256,195.0,3.951504430910063,,,,260.0,4.617889113022102,,,,,,,,B07R09,2022-11-24_10h59.58.920,t2_paradigm,2021.1.4,60.040563888355365,
5,,1,UNTERDRÜCKEN,,Stimuli/9409.jpg,,Trials/StimuliNegative.xlsx,25,"Unterdrücken Sie alle aufkommenden Emotionen. Wenn Sie also die Bilder ansehen, verhalten Sie sich so, dass eine außenstehende Person nicht sehen kann, welche Emotionen Sie gerade empfinden.",,,,,,,,,0,1,1,2,0,0,0,17,,,,,4.2,,,,,,,,789.703016047777,6.015097786725164,None,,,,,,,,,,B07R09,2022-11-24_10h59.58.920,t2_paradigm,2021.1.4,60.040563888355365,
5,,1,UNTERDRÜCKEN,,Stimuli/9800.jpg,,Trials/StimuliNegative.xlsx,25,"Unterdrücken Sie alle aufkommenden Emotionen. Wenn Sie also die Bilder ansehen, verhalten Sie sich so, dass eine außenstehende Person nicht sehen kann, welche Emotionen Sie gerade empfinden.",,,,,,,,,0,1,1,2,0,1,1,19,,,,,4.1,,,,,,,,799.8492393153847,6.002460772389895,None,,,,,,,,,,B07R09,2022-11-24_10h59.58.920,t2_paradigm,2021.1.4,60.040563888355365,
5,,1,UNTERDRÜCKEN,,Stimuli/8230.jpg,,Trials/StimuliNegative.xlsx,25,"Unterdrücken Sie alle aufkommenden Emotionen. Wenn Sie also die Bilder ansehen, verhalten Sie sich so, dass eine außenstehende Person nicht sehen kann, welche Emotionen Sie gerade empfinden.",,,,,,,,,0,1,1,2,0,2,2,13,,,,,4.3,,,,,,,,810.1815444797758,5.9988742111490865,None,,,,,,,,,,B07R09,2022-11-24_10h59.58.920,t2_paradigm,2021.1.4,60.040563888355365,
5,,1,UNTERDRÜCKEN,,Stimuli/219.jpg,,Trials/StimuliNegative.xlsx,25,"Unterdrücken Sie alle aufkommenden Emotionen. Wenn Sie also die Bilder ansehen, verhalten Sie sich so, dass eine außenstehende Person nicht sehen kann, welche Emotionen Sie gerade empfinden.",,,,,,,,,0,1,1,2,0,3,3,1,,,,,3.8,,,,,,,,820.0092567284919,6.006571555424671,None,,,,,,,,,,B07R09,2022-11-24_10h59.58.920,t2_paradigm,2021.1.4,60.040563888355365,
5,,1,UNTERDRÜCKEN,,Stimuli/9340.jpg,,Trials/StimuliNegative.xlsx,25,"Unterdrücken Sie alle aufkommenden Emotionen. Wenn Sie also die Bilder ansehen, verhalten Sie sich so, dass eine außenstehende Person nicht sehen kann, welche Emotionen Sie gerade empfinden.",,,,,,,,,0,1,1,2,0,4,4,16,,,,,3.1,,,,,,,,829.1396304751197,6.012028678374918,None,,,,,,,,,,B07R09,2022-11-24_10h59.58.920,t2_paradigm,2021.1.4,60.040563888355365,
5,,1,UNTERDRÜCKEN,,Stimuli/3350.jpg,,Trials/StimuliNegative.xlsx,25,"Unterdrücken Sie alle aufkommenden Emotionen. Wenn Sie also die Bilder ansehen, verhalten Sie sich so, dass eine außenstehende Person nicht sehen kann, welche Emotionen Sie gerade empfinden.",,,,,,,,,0,1,1,2,0,5,5,7,,,,,3.3,,,,,,,,838.4674694404457,6.002940081969427,None,,,,,,,,,,B07R09,2022-11-24_10h59.58.920,t2_paradigm,2021.1.4,60.040563888355365,
5,,1,UNTERDRÜCKEN,,Stimuli/6555.jpg,,Trials/StimuliNegative.xlsx,25,"Unterdrücken Sie alle aufkommenden Emotionen. Wenn Sie also die Bilder ansehen, verhalten Sie sich so, dass eine außenstehende Person nicht sehen kann, welche Emotionen Sie gerade empfinden.",,,,,,,,,0,1,1,2,0,6,6,10,,,,,3.9,,,,,,,,848.4025302259215,6.0114310251028655,None,,,,,,,,,,B07R09,2022-11-24_10h59.58.920,t2_paradigm,2021.1.4,60.040563888355365,
5,,1,UNTERDRÜCKEN,,Stimuli/9140.jpg,,Trials/StimuliNegative.xlsx,25,"Unterdrücken Sie alle aufkommenden Emotionen. Wenn Sie also die Bilder ansehen, verhalten Sie sich so, dass eine außenstehende Person nicht sehen kann, welche Emotionen Sie gerade empfinden.",,,,,,,,,0,1,1,2,0,7,7,15,,,,,4.9,,,,,,,,859.352370017632,6.009704150401376,None,,,,,,,,,,B07R09,2022-11-24_10h59.58.920,t2_paradigm,2021.1.4,60.040563888355365,
5,,1,UNTERDRÜCKEN,,Stimuli/9041.jpg,,Trials/StimuliNegative.xlsx,25,"Unterdrücken Sie alle aufkommenden Emotionen. Wenn Sie also die Bilder ansehen, verhalten Sie sich so, dass eine außenstehende Person nicht sehen kann, welche Emotionen Sie gerade empfinden.",,,,,,,,,0,1,1,2,0,8,8,14,,,,,4.7,,,,,,,,870.0969558500092,5.999365679112088,None,,,,,,,,,,B07R09,2022-11-24_10h59.58.920,t2_paradigm,2021.1.4,60.040563888355365,
5,,1,UNTERDRÜCKEN,,Stimuli/253.jpg,,Trials/StimuliNegative.xlsx,25,"Unterdrücken Sie alle aufkommenden Emotionen. Wenn Sie also die Bilder ansehen, verhalten Sie sich so, dass eine außenstehende Person nicht sehen kann, welche Emotionen Sie gerade empfinden.",,,,,,,,,0,1,1,2,0,9,9,3,,,,,3.9,,,,,,,,880.0276091431006,6.000757027477448,None,,,,,,,,,,B07R09,2022-11-24_10h59.58.920,t2_paradigm,2021.1.4,60.040563888355365,
5,,1,UNTERDRÜCKEN,,Stimuli/226.jpg,,Trials/StimuliNegative.xlsx,25,"Unterdrücken Sie alle aufkommenden Emotionen. Wenn Sie also die Bilder ansehen, verhalten Sie sich so, dass eine außenstehende Person nicht sehen kann, welche Emotionen Sie gerade empfinden.",,,,,,,,,0,1,1,2,0,10,10,2,,,,,4.1,,,,,,,,890.1670259643943,6.001213528072185,None,,,,,,,,,,B07R09,2022-11-24_10h59.58.920,t2_paradigm,2021.1.4,60.040563888355365,
5,,1,UNTERDRÜCKEN,,Stimuli/1301.jpg,,Trials/StimuliNegative.xlsx,25,"Unterdrücken Sie alle aufkommenden Emotionen. Wenn Sie also die Bilder ansehen, verhalten Sie sich so, dass eine außenstehende Person nicht sehen kann, welche Emotionen Sie gerade empfinden.",,,,,,,,,0,1,1,2,0,11,11,6,,,,,4.2,,,,,,,,900.4046933907193,6.00693627469991,None,,,,,,,,,,B07R09,2022-11-24_10h59.58.920,t2_paradigm,2021.1.4,60.040563888355365,
5,,1,UNTERDRÜCKEN,,Stimuli/254.jpg,,Trials/StimuliNegative.xlsx,25,"Unterdrücken Sie alle aufkommenden Emotionen. Wenn Sie also die Bilder ansehen, verhalten Sie sich so, dass eine außenstehende Person nicht sehen kann, welche Emotionen Sie gerade empfinden.",,,,,,,,,0,1,1,2,0,12,12,4,,,,,4.7,,,,,,,,911.1417285172047,6.012583344241648,None,,,,,,,,,,B07R09,2022-11-24_10h59.58.920,t2_paradigm,2021.1.4,60.040563888355365,
5,,1,UNTERDRÜCKEN,,Stimuli/326.jpg,,Trials/StimuliNegative.xlsx,25,"Unterdrücken Sie alle aufkommenden Emotionen. Wenn Sie also die Bilder ansehen, verhalten Sie sich so, dass eine außenstehende Person nicht sehen kann, welche Emotionen Sie gerade empfinden.",,,,,,,,,0,1,1,2,0,13,13,5,,,,,3.1,,,,,,,,920.2689847144484,6.0053807401018275,None,,,,,,,,,,B07R09,2022-11-24_10h59.58.920,t2_paradigm,2021.1.4,60.040563888355365,
5,,1,UNTERDRÜCKEN,,Stimuli/208.jpg,,Trials/StimuliNegative.xlsx,25,"Unterdrücken Sie alle aufkommenden Emotionen. Wenn Sie also die Bilder ansehen, verhalten Sie sich so, dass eine außenstehende Person nicht sehen kann, welche Emotionen Sie gerade empfinden.",,,,,,,,,0,1,1,2,0,14,14,0,,,,,5.0,,,,,,,,931.3215355358279,6.012154753379946,None,,,,,,,,,,B07R09,2022-11-24_10h59.58.920,t2_paradigm,2021.1.4,60.040563888355365,
5,,1,UNTERDRÜCKEN,,Stimuli/6940.jpg,,Trials/StimuliNegative.xlsx,25,"Unterdrücken Sie alle aufkommenden Emotionen. Wenn Sie also die Bilder ansehen, verhalten Sie sich so, dass eine außenstehende Person nicht sehen kann, welche Emotionen Sie gerade empfinden.",,,,,,,,,0,1,1,2,0,15,15,12,,,,,4.0,,,,,,,,941.3718176487037,6.009664659732152,None,,,,,,,,,,B07R09,2022-11-24_10h59.58.920,t2_paradigm,2021.1.4,60.040563888355365,
5,,1,UNTERDRÜCKEN,,Stimuli/6825.jpg,,Trials/StimuliNegative.xlsx,25,"Unterdrücken Sie alle aufkommenden Emotionen. Wenn Sie also die Bilder ansehen, verhalten Sie sich so, dass eine außenstehende Person nicht sehen kann, welche Emotionen Sie gerade empfinden.",,,,,,,,,0,1,1,2,0,16,16,11,,,,,3.2,,,,,,,,950.6079943102632,6.001489706119173,None,,,,,,,,,,B07R09,2022-11-24_10h59.58.920,t2_paradigm,2021.1.4,60.040563888355365,
5,,1,UNTERDRÜCKEN,,Stimuli/6242.jpg,,Trials/StimuliNegative.xlsx,25,"Unterdrücken Sie alle aufkommenden Emotionen. Wenn Sie also die Bilder ansehen, verhalten Sie sich so, dass eine außenstehende Person nicht sehen kann, welche Emotionen Sie gerade empfinden.",,,,,,,,,0,1,1,2,0,17,17,8,,,,,3.9,,,,,,,,960.5418764708756,6.012094442690795,None,,,,,,,,,,B07R09,2022-11-24_10h59.58.920,t2_paradigm,2021.1.4,60.040563888355365,
5,,1,UNTERDRÜCKEN,,Stimuli/9570.jpg,,Trials/StimuliNegative.xlsx,25,"Unterdrücken Sie alle aufkommenden Emotionen. Wenn Sie also die Bilder ansehen, verhalten Sie sich so, dass eine außenstehende Person nicht sehen kann, welche Emotionen Sie gerade empfinden.",,,,,,,,,0,1,1,2,0,18,18,18,,,,,4.5,,,,,,,,971.0949704092654,6.003699066339323,None,,,,,,,,,,B07R09,2022-11-24_10h59.58.920,t2_paradigm,2021.1.4,60.040563888355365,
5,,1,UNTERDRÜCKEN,,Stimuli/6410.jpg,,Trials/StimuliNegative.xlsx,25,"Unterdrücken Sie alle aufkommenden Emotionen. Wenn Sie also die Bilder ansehen, verhalten Sie sich so, dass eine außenstehende Person nicht sehen kann, welche Emotionen Sie gerade empfinden.",,,,,,,,,0,1,1,2,0,19,19,9,,,,,4.4,,,,,,,,981.5374121966179,6.013769347540801,None,,,,,,,,,,B07R09,2022-11-24_10h59.58.920,t2_paradigm,2021.1.4,60.040563888355365,
5,,1,UNTERDRÜCKEN,,,,Trials/StimuliNegative.xlsx,25,"Unterdrücken Sie alle aufkommenden Emotionen. Wenn Sie also die Bilder ansehen, verhalten Sie sich so, dass eine außenstehende Person nicht sehen kann, welche Emotionen Sie gerade empfinden.",,,,,,,,,0,1,1,2,,,,,,,,,,,,,318.66666666666663,4.667947948024448,274.6666666666667,3.9034470767273888,,,,27.333333333333343,5.335749610545463,,,,,,,,B07R09,2022-11-24_10h59.58.920,t2_paradigm,2021.1.4,60.040563888355365,
3,,1,ABLENKEN,,Stimuli/1051.jpg,,Trials/StimuliNegative.xlsx,23,"Denken Sie während des Betrachtens der Bilder an etwas Neutrales, das mit dem Bild nichts zu tun hat. Das könnten geometrische Figuren, Alltagstätigkeiten oder bekannte Orte sein.",,,,,,,,,0,2,2,0,0,0,0,2,,,,,4.4,,,,,,,,1025.0887324232845,6.012142562924055,None,,,,,,,,,,B07R09,2022-11-24_10h59.58.920,t2_paradigm,2021.1.4,60.040563888355365,
3,,1,ABLENKEN,,Stimuli/3230.jpg,,Trials/StimuliNegative.xlsx,23,"Denken Sie während des Betrachtens der Bilder an etwas Neutrales, das mit dem Bild nichts zu tun hat. Das könnten geometrische Figuren, Alltagstätigkeiten oder bekannte Orte sein.",,,,,,,,,0,2,2,0,0,1,1,5,,,,,4.7,,,,,,,,1035.825718467133,6.002820070112648,None,,,,,,,,,,B07R09,2022-11-24_10h59.58.920,t2_paradigm,2021.1.4,60.040563888355365,
3,,1,ABLENKEN,,Stimuli/9421.jpg,,Trials/StimuliNegative.xlsx,23,"Denken Sie während des Betrachtens der Bilder an etwas Neutrales, das mit dem Bild nichts zu tun hat. Das könnten geometrische Figuren, Alltagstätigkeiten oder bekannte Orte sein.",,,,,,,,,0,2,2,0,0,2,2,17,,,,,5.0,,,,,,,,1046.8535743066204,6.009743608990902,None,,,,,,,,,,B07R09,2022-11-24_10h59.58.920,t2_paradigm,2021.1.4,60.040563888355365,
3,,1,ABLENKEN,,Stimuli/9332.jpg,,Trials/StimuliNegative.xlsx,23,"Denken Sie während des Betrachtens der Bilder an etwas Neutrales, das mit dem Bild nichts zu tun hat. Das könnten geometrische Figuren, Alltagstätigkeiten oder bekannte Orte sein.",,,,,,,,,0,2,2,0,0,3,3,14,,,,,3.9,,,,,,,,1056.7896247648532,6.0043397070166975,None,,,,,,,,,,B07R09,2022-11-24_10h59.58.920,t2_paradigm,2021.1.4,60.040563888355365,
3,,1,ABLENKEN,,Stimuli/227.jpg,,Trials/StimuliNegative.xlsx,23,"Denken Sie während des Betrachtens der Bilder an etwas Neutrales, das mit dem Bild nichts zu tun hat. Das könnten geometrische Figuren, Alltagstätigkeiten oder bekannte Orte sein.",,,,,,,,,0,2,2,0,0,4,4,0,,,,,3.3,,,,,,,,1066.1181056540627,6.007579481793073,None,,,,,,,,,,B07R09,2022-11-24_10h59.58.920,t2_paradigm,2021.1.4,60.040563888355365,
3,,1,ABLENKEN,,Stimuli/9230.jpg,,Trials/StimuliNegative.xlsx,23,"Denken Sie während des Betrachtens der Bilder an etwas Neutrales, das mit dem Bild nichts zu tun hat. Das könnten geometrische Figuren, Alltagstätigkeiten oder bekannte Orte sein.",,,,,,,,,0,2,2,0,0,5,5,11,,,,,3.6,,,,,,,,1075.7496509679222,6.008557926492358,None,,,,,,,,,,B07R09,2022-11-24_10h59.58.920,t2_paradigm,2021.1.4,60.040563888355365,
3,,1,ABLENKEN,,Stimuli/9295.jpg,,Trials/StimuliNegative.xlsx,23,"Denken Sie während des Betrachtens der Bilder an etwas Neutrales, das mit dem Bild nichts zu tun hat. Das könnten geometrische Figuren, Alltagstätigkeiten oder bekannte Orte sein.",,,,,,,,,0,2,2,0,0,6,6,13,,,,,4.9,,,,,,,,1086.694020130939,6.015815387694602,None,,,,,,,,,,B07R09,2022-11-24_10h59.58.920,t2_paradigm,2021.1.4,60.040563888355365,
3,,1,ABLENKEN,,Stimuli/9254.jpg,,Trials/StimuliNegative.xlsx,23,"Denken Sie während des Betrachtens der Bilder an etwas Neutrales, das mit dem Bild nichts zu tun hat. Das könnten geometrische Figuren, Alltagstätigkeiten oder bekannte Orte sein.",,,,,,,,,0,2,2,0,0,7,7,12,,,,,4.6,,,,,,,,1097.3534767829515,6.009579679404851,None,,,,,,,,,,B07R09,2022-11-24_10h59.58.920,t2_paradigm,2021.1.4,60.040563888355365,
3,,1,ABLENKEN,,Stimuli/9411.jpg,,Trials/StimuliNegative.xlsx,23,"Denken Sie während des Betrachtens der Bilder an etwas Neutrales, das mit dem Bild nichts zu tun hat. Das könnten geometrische Figuren, Alltagstätigkeiten oder bekannte Orte sein.",,,,,,,,,0,2,2,0,0,8,8,15,,,,,3.9,,,,,,,,1107.2946629530688,6.006523403113533,None,,,,,,,,,,B07R09,2022-11-24_10h59.58.920,t2_paradigm,2021.1.4,60.040563888355365,
3,,1,ABLENKEN,,Stimuli/252.jpg,,Trials/StimuliNegative.xlsx,23,"Denken Sie während des Betrachtens der Bilder an etwas Neutrales, das mit dem Bild nichts zu tun hat. Das könnten geometrische Figuren, Alltagstätigkeiten oder bekannte Orte sein.",,,,,,,,,0,2,2,0,0,9,9,1,,,,,4.7,,,,,,,,1118.0402589895002,6.011395736932172,None,,,,,,,,,,B07R09,2022-11-24_10h59.58.920,t2_paradigm,2021.1.4,60.040563888355365,
3,,1,ABLENKEN,,Stimuli/6838.jpg,,Trials/StimuliNegative.xlsx,23,"Denken Sie während des Betrachtens der Bilder an etwas Neutrales, das mit dem Bild nichts zu tun hat. Das könnten geometrische Figuren, Alltagstätigkeiten oder bekannte Orte sein.",,,,,,,,,0,2,2,0,0,10,10,7,,,,,4.9,,,,,,,,1128.98520912411,6.002133234012945,None,,,,,,,,,,B07R09,2022-11-24_10h59.58.920,t2_paradigm,2021.1.4,60.040563888355365,
3,,1,ABLENKEN,,Stimuli/9599.jpg,,Trials/StimuliNegative.xlsx,23,"Denken Sie während des Betrachtens der Bilder an etwas Neutrales, das mit dem Bild nichts zu tun hat. Das könnten geometrische Figuren, Alltagstätigkeiten oder bekannte Orte sein.",,,,,,,,,0,2,2,0,0,11,11,18,,,,,3.9,,,,,,,,1138.9273009169792,6.016117294027936,None,,,,,,,,,,B07R09,2022-11-24_10h59.58.920,t2_paradigm,2021.1.4,60.040563888355365,
3,,1,ABLENKEN,,Stimuli/9120.jpg,,Trials/StimuliNegative.xlsx,23,"Denken Sie während des Betrachtens der Bilder an etwas Neutrales, das mit dem Bild nichts zu tun hat. Das könnten geometrische Figuren, Alltagstätigkeiten oder bekannte Orte sein.",,,,,,,,,0,2,2,0,0,12,12,8,,,,,3.9,,,,,,,,1148.8708417704147,6.006901948934683,None,,,,,,,,,,B07R09,2022-11-24_10h59.58.920,t2_paradigm,2021.1.4,60.040563888355365,
3,,1,ABLENKEN,,Stimuli/9420.jpg,,Trials/StimuliNegative.xlsx,23,"Denken Sie während des Betrachtens der Bilder an etwas Neutrales, das mit dem Bild nichts zu tun hat. Das könnten geometrische Figuren, Alltagstätigkeiten oder bekannte Orte sein.",,,,,,,,,0,2,2,0,0,13,13,16,,,,,4.7,,,,,,,,1159.608619231667,6.0120806482264015,None,,,,,,,,,,B07R09,2022-11-24_10h59.58.920,t2_paradigm,2021.1.4,60.040563888355365,
3,,1,ABLENKEN,,Stimuli/9905.jpg,,Trials/StimuliNegative.xlsx,23,"Denken Sie während des Betrachtens der Bilder an etwas Neutrales, das mit dem Bild nichts zu tun hat. Das könnten geometrische Figuren, Alltagstätigkeiten oder bekannte Orte sein.",,,,,,,,,0,2,2,0,0,14,14,19,,,,,3.7,,,,,,,,1169.3560066239097,6.014648664566266,None,,,,,,,,,,B07R09,2022-11-24_10h59.58.920,t2_paradigm,2021.1.4,60.040563888355365,
3,,1,ABLENKEN,,Stimuli/2800.jpg,,Trials/StimuliNegative.xlsx,23,"Denken Sie während des Betrachtens der Bilder an etwas Neutrales, das mit dem Bild nichts zu tun hat. Das könnten geometrische Figuren, Alltagstätigkeiten oder bekannte Orte sein.",,,,,,,,,0,2,2,0,0,15,15,3,,,,,4.1,,,,,,,,1179.498719039444,6.0081566037642915,None,,,,,,,,,,B07R09,2022-11-24_10h59.58.920,t2_paradigm,2021.1.4,60.040563888355365,
3,,1,ABLENKEN,,Stimuli/9185.jpg,,Trials/StimuliNegative.xlsx,23,"Denken Sie während des Betrachtens der Bilder an etwas Neutrales, das mit dem Bild nichts zu tun hat. Das könnten geometrische Figuren, Alltagstätigkeiten oder bekannte Orte sein.",,,,,,,,,0,2,2,0,0,16,16,10,,,,,4.9,,,,,,,,1190.4589037184742,6.00224294813961,None,,,,,,,,,,B07R09,2022-11-24_10h59.58.920,t2_paradigm,2021.1.4,60.040563888355365,
3,,1,ABLENKEN,,Stimuli/6561.jpg,,Trials/StimuliNegative.xlsx,23,"Denken Sie während des Betrachtens der Bilder an etwas Neutrales, das mit dem Bild nichts zu tun hat. Das könnten geometrische Figuren, Alltagstätigkeiten oder bekannte Orte sein.",,,,,,,,,0,2,2,0,0,17,17,6,,,,,4.9,,,,,,,,1201.4171074479855,6.013698450402444,None,,,,,,,,,,B07R09,2022-11-24_10h59.58.920,t2_paradigm,2021.1.4,60.040563888355365,
3,,1,ABLENKEN,,Stimuli/3061.jpg,,Trials/StimuliNegative.xlsx,23,"Denken Sie während des Betrachtens der Bilder an etwas Neutrales, das mit dem Bild nichts zu tun hat. Das könnten geometrische Figuren, Alltagstätigkeiten oder bekannte Orte sein.",,,,,,,,,0,2,2,0,0,18,18,4,,,,,4.7,,,,,,,,1212.1615364084082,6.003206635972674,None,,,,,,,,,,B07R09,2022-11-24_10h59.58.920,t2_paradigm,2021.1.4,60.040563888355365,
3,,1,ABLENKEN,,Stimuli/9181.jpg,,Trials/StimuliNegative.xlsx,23,"Denken Sie während des Betrachtens der Bilder an etwas Neutrales, das mit dem Bild nichts zu tun hat. Das könnten geometrische Figuren, Alltagstätigkeiten oder bekannte Orte sein.",,,,,,,,,0,2,2,0,0,19,19,9,,,,,4.0,,,,,,,,1222.1966471747655,6.014827992630671,None,,,,,,,,,,B07R09,2022-11-24_10h59.58.920,t2_paradigm,2021.1.4,60.040563888355365,
3,,1,ABLENKEN,,,,Trials/StimuliNegative.xlsx,23,"Denken Sie während des Betrachtens der Bilder an etwas Neutrales, das mit dem Bild nichts zu tun hat. Das könnten geometrische Figuren, Alltagstätigkeiten oder bekannte Orte sein.",,,,,,,,,0,2,2,0,,,,,,,,,,,,,322.66666666666663,5.233615702851239,300.0,5.4305756591202226,,,,206.0,3.9456565396048973,,,,,,,,B07R09,2022-11-24_10h59.58.920,t2_paradigm,2021.1.4,60.040563888355365,
,,,,,,,,,,,,,,,,,,,,,,,,,,,,,,,,,,,,,,,,,,,2,24.701648150001347,,,,,,B07R09,2022-11-24_10h59.58.920,t2_paradigm,2021.1.4,60.040563888355365,
,,,,,,,,,,,,,,,,,,,,,,,,,,,,,,,,,,,,,,,,,,,,,space,7.575132362717341,,,,B07R09,2022-11-24_10h59.58.920,t2_paradigm,2021.1.4,60.040563888355365,
,,,,,Stimuli/3225.jpg,,,,,,,,,,,,,,,,,,,,,0,0,0,9,3.6,,,,,,,,,,,,,,,,,1516.278581171773,6.001634997137444,None,B07R09,2022-11-24_10h59.58.920,t2_paradigm,2021.1.4,60.040563888355365,
,,,,,Stimuli/9403.jpg,,,,,,,,,,,,,,,,,,,,,0,1,1,17,3.4,,,,,,,,,,,,,,,,,1525.71686697515,6.004447817140317,None,B07R09,2022-11-24_10h59.58.920,t2_paradigm,2021.1.4,60.040563888355365,
,,,,,Stimuli/3215.jpg,,,,,,,,,,,,,,,,,,,,,0,2,2,7,4.0,,,,,,,,,,,,,,,,,1535.750383357843,6.01581509897369,None,B07R09,2022-11-24_10h59.58.920,t2_paradigm,2021.1.4,60.040563888355365,
,,,,,Stimuli/9402.jpg,,,,,,,,,,,,,,,,,,,,,0,3,3,16,3.4,,,,,,,,,,,,,,,,,1545.1885709959479,6.005616497157462,None,B07R09,2022-11-24_10h59.58.920,t2_paradigm,2021.1.4,60.040563888355365,
,,,,,Stimuli/6020.jpg,,,,,,,,,,,,,,,,,,,,,0,4,4,10,3.0,,,,,,,,,,,,,,,,,1554.2162000287444,6.012676055886914,None,B07R09,2022-11-24_10h59.58.920,t2_paradigm,2021.1.4,60.040563888355365,
,,,,,Stimuli/3101.jpg,,,,,,,,,,,,,,,,,,,,,0,5,5,5,4.9,,,,,,,,,,,,,,,,,1565.1516460968724,6.004213952815917,None,B07R09,2022-11-24_10h59.58.920,t2_paradigm,2021.1.4,60.040563888355365,
,,,,,Stimuli/245.jpg,,,,,,,,,,,,,,,,,,,,,0,6,6,2,4.5,,,,,,,,,,,,,,,,,1575.687562716701,6.012590081072631,None,B07R09,2022-11-24_10h59.58.920,t2_paradigm,2021.1.4,60.040563888355365,
,,,,,Stimuli/3220.jpg,,,,,,,,,,,,,,,,,,,,,0,7,7,8,3.9,,,,,,,,,,,,,,,,,1585.6310814348308,6.004670774209444,None,B07R09,2022-11-24_10h59.58.920,t2_paradigm,2021.1.4,60.040563888355365,
,,,,,Stimuli/6831.jpg,,,,,,,,,,,,,,,,,,,,,0,8,8,12,3.1,,,,,,,,,,,,,,,,,1594.7566521407734,6.001211282460645,None,B07R09,2022-11-24_10h59.58.920,t2_paradigm,2021.1.4,60.040563888355365,
,,,,,Stimuli/9400.jpg,,,,,,,,,,,,,,,,,,,,,0,9,9,15,4.8,,,,,,,,,,,,,,,,,1605.610980010215,6.006565428115209,None,B07R09,2022-11-24_10h59.58.920,t2_paradigm,2021.1.4,60.040563888355365,
,,,,,Stimuli/9423.jpg,,,,,,,,,,,,,,,,,,,,,0,10,10,19,3.2,,,,,,,,,,,,,,,,,1614.8469391683284,6.016072381811682,None,B07R09,2022-11-24_10h59.58.920,t2_paradigm,2021.1.4,60.040563888355365,
,,,,,Stimuli/9373.jpg,,,,,,,,,,,,,,,,,,,,,0,11,11,14,4.7,,,,,,,,,,,,,,,,,1625.59613010684,6.013818109375279,None,B07R09,2022-11-24_10h59.58.920,t2_paradigm,2021.1.4,60.040563888355365,
,,,,,Stimuli/238.jpg,,,,,,,,,,,,,,,,,,,,,0,12,12,1,5.0,,,,,,,,,,,,,,,,,1636.6387684813762,6.006540726397361,None,B07R09,2022-11-24_10h59.58.920,t2_paradigm,2021.1.4,60.040563888355365,
,,,,,Stimuli/3181.jpg,,,,,,,,,,,,,,,,,,,,,0,13,13,6,3.8,,,,,,,,,,,,,,,,,1646.473930062697,5.999774059475385,None,B07R09,2022-11-24_10h59.58.920,t2_paradigm,2021.1.4,60.040563888355365,
,,,,,Stimuli/223.jpg,,,,,,,,,,,,,,,,,,,,,0,14,14,0,4.3,,,,,,,,,,,,,,,,,1656.8003648796748,6.009973944499507,None,B07R09,2022-11-24_10h59.58.920,t2_paradigm,2021.1.4,60.040563888355365,
,,,,,Stimuli/3016.jpg,,,,,,,,,,,,,,,,,,,,,0,15,15,4,3.9,,,,,,,,,,,,,,,,,1666.748831961586,6.00920944234349,None,B07R09,2022-11-24_10h59.58.920,t2_paradigm,2021.1.4,60.040563888355365,
,,,,,Stimuli/8231.jpg,,,,,,,,,,,,,,,,,,,,,0,16,16,13,4.4,,,,,,,,,,,,,,,,,1677.1869211136182,6.013442129969917,None,B07R09,2022-11-24_10h59.58.920,t2_paradigm,2021.1.4,60.040563888355365,
,,,,,Stimuli/9405.jpg,,,,,,,,,,,,,,,,,,,,,0,17,17,18,3.5,,,,,,,,,,,,,,,,,1686.728976591754,6.010009232668381,None,B07R09,2022-11-24_10h59.58.920,t2_paradigm,2021.1.4,60.040563888355365,
,,,,,Stimuli/6571.jpg,,,,,,,,,,,,,,,,,,,,,0,18,18,11,4.5,,,,,,,,,,,,,,,,,1697.2617528852898,6.0067187712538725,None,B07R09,2022-11-24_10h59.58.920,t2_paradigm,2021.1.4,60.040563888355365,
,,,,,Stimuli/2981.jpg,,,,,,,,,,,,,,,,,,,,,0,19,19,3,4.5,,,,,,,,,,,,,,,,,1707.7922582247102,6.0101353076752275,None,B07R09,2022-11-24_10h59.58.920,t2_paradigm,2021.1.4,60.040563888355365,
,,,,,,,,,,,,,,,,,,,,,,,,,,,,,,,,,,221.66666666666669,6.816425488068489,156.0,4.218843433449365,,,,245.33333333333331,5.219942820333017,,,,,,,,B07R09,2022-11-24_10h59.58.920,t2_paradigm,2021.1.4,60.040563888355365,
