Block,conds_view_File,n_reps,instr_1,TriggerBlockView,ImageFile,Trigger,conds_reg_File,TriggerBlockReg,instr_2,blocks_view.thisRepN,blocks_view.thisTrialN,blocks_view.thisN,blocks_view.thisIndex,trials_view.thisRepN,trials_view.thisTrialN,trials_view.thisN,trials_view.thisIndex,blocks_reg.thisRepN,blocks_reg.thisTrialN,blocks_reg.thisN,blocks_reg.thisIndex,trials_reg.thisRepN,trials_reg.thisTrialN,trials_reg.thisN,trials_reg.thisIndex,trials_choice.thisRepN,trials_choice.thisTrialN,trials_choice.thisN,trials_choice.thisIndex,Fix_jitter,image_view.started,image_view.lasted,image_view.stopped,slider_arousal.response,slider_arousal.rt,slider_effort.response,slider_effort.rt,image_reg.started,image_reg.lasted,image_reg.stopped,slider_utility.response,slider_utility.rt,resp_choice.keys,resp_choice.rt,key_resp.keys,key_resp.rt,image.started,image.lased,image.stopped,participant,date,expName,psychopyVersion,frameRate,
,,,,,,,,,,,,,,,,,,,,,,,,,,,,,,,,,,,,,,,,,,,,,,,,,,B08A08,2022-12-05_10h57.21.661,t2_paradigm,2021.1.4,60.0488915646245,
1,Trials/StimuliNeutral.xlsx,1,ANSCHAUEN,21,Stimuli/7235.jpg,1,,,,0,0,0,0,0,0,0,19,,,,,,,,,,,,,4.1,196.68739401496714,6.016905086755287,None,,,,,,,,,,,,,,,,,B08A08,2022-12-05_10h57.21.661,t2_paradigm,2021.1.4,60.0488915646245,
1,Trials/StimuliNeutral.xlsx,1,ANSCHAUEN,21,Stimuli/7004.jpg,1,,,,0,0,0,0,0,1,1,7,,,,,,,,,,,,,3.8,206.51644816831686,6.014747692272067,None,,,,,,,,,,,,,,,,,B08A08,2022-12-05_10h57.21.661,t2_paradigm,2021.1.4,60.0488915646245,
1,Trials/StimuliNeutral.xlsx,1,ANSCHAUEN,21,Stimuli/7100.jpg,1,,,,0,0,0,0,0,2,2,13,,,,,,,,,,,,,4.0,216.55736423813505,5.99848366441438,None,,,,,,,,,,,,,,,,,B08A08,2022-12-05_10h57.21.661,t2_paradigm,2021.1.4,60.0488915646245,
1,Trials/StimuliNeutral.xlsx,1,ANSCHAUEN,21,Stimuli/7002.jpg,1,,,,0,0,0,0,0,3,3,6,,,,,,,,,,,,,3.7,226.28193152416497,6.000854681129567,None,,,,,,,,,,,,,,,,,B08A08,2022-12-05_10h57.21.661,t2_paradigm,2021.1.4,60.0488915646245,
1,Trials/StimuliNeutral.xlsx,1,ANSCHAUEN,21,Stimuli/083.jpg,1,,,,0,0,0,0,0,4,4,0,,,,,,,,,,,,,3.8,236.12134213355603,6.00337718060473,None,,,,,,,,,,,,,,,,,B08A08,2022-12-05_10h57.21.661,t2_paradigm,2021.1.4,60.0488915646245,
1,Trials/StimuliNeutral.xlsx,1,ANSCHAUEN,21,Stimuli/7009.jpg,1,,,,0,0,0,0,0,5,5,9,,,,,,,,,,,,,5.0,247.16327386302873,6.0035324488417245,None,,,,,,,,,,,,,,,,,B08A08,2022-12-05_10h57.21.661,t2_paradigm,2021.1.4,60.0488915646245,
1,Trials/StimuliNeutral.xlsx,1,ANSCHAUEN,21,Stimuli/7021.jpg,1,,,,0,0,0,0,0,6,6,10,,,,,,,,,,,,,4.2,257.4150358688785,6.016290141211357,None,,,,,,,,,,,,,,,,,B08A08,2022-12-05_10h57.21.661,t2_paradigm,2021.1.4,60.0488915646245,
1,Trials/StimuliNeutral.xlsx,1,ANSCHAUEN,21,Stimuli/124.jpg,1,,,,0,0,0,0,0,7,7,2,,,,,,,,,,,,,4.9,268.3547658047755,6.003716268460266,None,,,,,,,,,,,,,,,,,B08A08,2022-12-05_10h57.21.661,t2_paradigm,2021.1.4,60.0488915646245,
1,Trials/StimuliNeutral.xlsx,1,ANSCHAUEN,21,Stimuli/107.jpg,1,,,,0,0,0,0,0,8,8,1,,,,,,,,,,,,,5.0,279.38002320041414,6.003048967861105,None,,,,,,,,,,,,,,,,,B08A08,2022-12-05_10h57.21.661,t2_paradigm,2021.1.4,60.0488915646245,
1,Trials/StimuliNeutral.xlsx,1,ANSCHAUEN,21,Stimuli/7211.jpg,1,,,,0,0,0,0,0,9,9,16,,,,,,,,,,,,,4.7,290.13705694815144,6.0064280412043445,None,,,,,,,,,,,,,,,,,B08A08,2022-12-05_10h57.21.661,t2_paradigm,2021.1.4,60.0488915646245,
1,Trials/StimuliNeutral.xlsx,1,ANSCHAUEN,21,Stimuli/7006.jpg,1,,,,0,0,0,0,0,10,10,8,,,,,,,,,,,,,4.4,300.5748822816531,5.9969454181264155,None,,,,,,,,,,,,,,,,,B08A08,2022-12-05_10h57.21.661,t2_paradigm,2021.1.4,60.0488915646245,
1,Trials/StimuliNeutral.xlsx,1,ANSCHAUEN,21,Stimuli/7000.jpg,1,,,,0,0,0,0,0,11,11,5,,,,,,,,,,,,,4.4,311.0087059289799,5.995931041659787,None,,,,,,,,,,,,,,,,,B08A08,2022-12-05_10h57.21.661,t2_paradigm,2021.1.4,60.0488915646245,
1,Trials/StimuliNeutral.xlsx,1,ANSCHAUEN,21,Stimuli/7224.jpg,1,,,,0,0,0,0,0,12,12,17,,,,,,,,,,,,,4.2,321.2373506104341,6.004158013034612,None,,,,,,,,,,,,,,,,,B08A08,2022-12-05_10h57.21.661,t2_paradigm,2021.1.4,60.0488915646245,
1,Trials/StimuliNeutral.xlsx,1,ANSCHAUEN,21,Stimuli/143.jpg,1,,,,0,0,0,0,0,13,13,4,,,,,,,,,,,,,4.3,331.5687584892148,6.008540170500055,None,,,,,,,,,,,,,,,,,B08A08,2022-12-05_10h57.21.661,t2_paradigm,2021.1.4,60.0488915646245,
1,Trials/StimuliNeutral.xlsx,1,ANSCHAUEN,21,Stimuli/7150.jpg,1,,,,0,0,0,0,0,14,14,14,,,,,,,,,,,,,4.1,341.7069943853421,5.999023253680207,None,,,,,,,,,,,,,,,,,B08A08,2022-12-05_10h57.21.661,t2_paradigm,2021.1.4,60.0488915646245,
1,Trials/StimuliNeutral.xlsx,1,ANSCHAUEN,21,Stimuli/7233.jpg,1,,,,0,0,0,0,0,15,15,18,,,,,,,,,,,,,4.2,351.9439205745002,6.0101717702928,None,,,,,,,,,,,,,,,,,B08A08,2022-12-05_10h57.21.661,t2_paradigm,2021.1.4,60.0488915646245,
1,Trials/StimuliNeutral.xlsx,1,ANSCHAUEN,21,Stimuli/7185.jpg,1,,,,0,0,0,0,0,16,16,15,,,,,,,,,,,,,3.0,360.98784673097543,6.0053645499865524,None,,,,,,,,,,,,,,,,,B08A08,2022-12-05_10h57.21.661,t2_paradigm,2021.1.4,60.0488915646245,
1,Trials/StimuliNeutral.xlsx,1,ANSCHAUEN,21,Stimuli/140.jpg,1,,,,0,0,0,0,0,17,17,3,,,,,,,,,,,,,3.5,370.5225183867733,6.001227806147654,None,,,,,,,,,,,,,,,,,B08A08,2022-12-05_10h57.21.661,t2_paradigm,2021.1.4,60.0488915646245,
1,Trials/StimuliNeutral.xlsx,1,ANSCHAUEN,21,Stimuli/7025.jpg,1,,,,0,0,0,0,0,18,18,11,,,,,,,,,,,,,4.3,380.8635897890199,6.002061891718768,None,,,,,,,,,,,,,,,,,B08A08,2022-12-05_10h57.21.661,t2_paradigm,2021.1.4,60.0488915646245,
1,Trials/StimuliNeutral.xlsx,1,ANSCHAUEN,21,Stimuli/7041.jpg,1,,,,0,0,0,0,0,19,19,12,,,,,,,,,,,,,3.5,390.404879914131,6.0053539635264315,None,,,,,,,,,,,,,,,,,B08A08,2022-12-05_10h57.21.661,t2_paradigm,2021.1.4,60.0488915646245,
1,Trials/StimuliNeutral.xlsx,1,ANSCHAUEN,21,,,,,,0,0,0,0,,,,,,,,,,,,,,,,,,,,,1.4814814814814836,3.6184385532396846,1.85185185185186,2.7676160485716537,,,,,,,,,,,,,B08A08,2022-12-05_10h57.21.661,t2_paradigm,2021.1.4,60.0488915646245,
2,Trials/StimuliNegative.xlsx,1,ANSCHAUEN,22,Stimuli/3225.jpg,,,,,0,1,1,1,0,0,0,9,,,,,,,,,,,,,4.4,413.40818610118004,5.996887673740275,None,,,,,,,,,,,,,,,,,B08A08,2022-12-05_10h57.21.661,t2_paradigm,2021.1.4,60.0488915646245,
2,Trials/StimuliNegative.xlsx,1,ANSCHAUEN,22,Stimuli/9373.jpg,,,,,0,1,1,1,0,1,1,14,,,,,,,,,,,,,4.1,423.5414877392468,5.998156125482637,None,,,,,,,,,,,,,,,,,B08A08,2022-12-05_10h57.21.661,t2_paradigm,2021.1.4,60.0488915646245,
2,Trials/StimuliNegative.xlsx,1,ANSCHAUEN,22,Stimuli/9402.jpg,,,,,0,1,1,1,0,2,2,16,,,,,,,,,,,,,3.8,433.36415440082783,6.002323634165805,None,,,,,,,,,,,,,,,,,B08A08,2022-12-05_10h57.21.661,t2_paradigm,2021.1.4,60.0488915646245,
2,Trials/StimuliNegative.xlsx,1,ANSCHAUEN,22,Stimuli/8231.jpg,,,,,0,1,1,1,0,3,3,13,,,,,,,,,,,,,4.2,443.6073121719528,5.998964226106182,None,,,,,,,,,,,,,,,,,B08A08,2022-12-05_10h57.21.661,t2_paradigm,2021.1.4,60.0488915646245,
2,Trials/StimuliNegative.xlsx,1,ANSCHAUEN,22,Stimuli/245.jpg,,,,,0,1,1,1,0,4,4,2,,,,,,,,,,,,,4.8,454.4273059098632,6.007910403772257,None,,,,,,,,,,,,,,,,,B08A08,2022-12-05_10h57.21.661,t2_paradigm,2021.1.4,60.0488915646245,
2,Trials/StimuliNegative.xlsx,1,ANSCHAUEN,22,Stimuli/9405.jpg,,,,,0,1,1,1,0,5,5,18,,,,,,,,,,,,,3.8,464.2736496956204,6.000428046332672,None,,,,,,,,,,,,,,,,,B08A08,2022-12-05_10h57.21.661,t2_paradigm,2021.1.4,60.0488915646245,
2,Trials/StimuliNegative.xlsx,1,ANSCHAUEN,22,Stimuli/9423.jpg,,,,,0,1,1,1,0,6,6,19,,,,,,,,,,,,,3.8,474.1040602004505,6.006075447483454,None,,,,,,,,,,,,,,,,,B08A08,2022-12-05_10h57.21.661,t2_paradigm,2021.1.4,60.0488915646245,
2,Trials/StimuliNegative.xlsx,1,ANSCHAUEN,22,Stimuli/6020.jpg,,,,,0,1,1,1,0,7,7,10,,,,,,,,,,,,,3.0,483.14162741653854,5.996591252507642,None,,,,,,,,,,,,,,,,,B08A08,2022-12-05_10h57.21.661,t2_paradigm,2021.1.4,60.0488915646245,
2,Trials/StimuliNegative.xlsx,1,ANSCHAUEN,22,Stimuli/9400.jpg,,,,,0,1,1,1,0,8,8,15,,,,,,,,,,,,,3.7,492.8674455101718,6.011920142103918,None,,,,,,,,,,,,,,,,,B08A08,2022-12-05_10h57.21.661,t2_paradigm,2021.1.4,60.0488915646245,
2,Trials/StimuliNegative.xlsx,1,ANSCHAUEN,22,Stimuli/3181.jpg,,,,,0,1,1,1,0,9,9,6,,,,,,,,,,,,,4.5,503.4085444372031,5.996327553119045,None,,,,,,,,,,,,,,,,,B08A08,2022-12-05_10h57.21.661,t2_paradigm,2021.1.4,60.0488915646245,
2,Trials/StimuliNegative.xlsx,1,ANSCHAUEN,22,Stimuli/3101.jpg,,,,,0,1,1,1,0,10,10,5,,,,,,,,,,,,,3.2,512.6337841245113,6.012491811590735,None,,,,,,,,,,,,,,,,,B08A08,2022-12-05_10h57.21.661,t2_paradigm,2021.1.4,60.0488915646245,
2,Trials/StimuliNegative.xlsx,1,ANSCHAUEN,22,Stimuli/6571.jpg,,,,,0,1,1,1,0,11,11,11,,,,,,,,,,,,,4.1,522.7603813182795,6.009206444548909,None,,,,,,,,,,,,,,,,,B08A08,2022-12-05_10h57.21.661,t2_paradigm,2021.1.4,60.0488915646245,
2,Trials/StimuliNegative.xlsx,1,ANSCHAUEN,22,Stimuli/223.jpg,,,,,0,1,1,1,0,12,12,0,,,,,,,,,,,,,3.5,532.3016384007642,6.0098243416287005,None,,,,,,,,,,,,,,,,,B08A08,2022-12-05_10h57.21.661,t2_paradigm,2021.1.4,60.0488915646245,
2,Trials/StimuliNegative.xlsx,1,ANSCHAUEN,22,Stimuli/9403.jpg,,,,,0,1,1,1,0,13,13,17,,,,,,,,,,,,,3.7,542.0572214811691,6.000437060836703,None,,,,,,,,,,,,,,,,,B08A08,2022-12-05_10h57.21.661,t2_paradigm,2021.1.4,60.0488915646245,
2,Trials/StimuliNegative.xlsx,1,ANSCHAUEN,22,Stimuli/2981.jpg,,,,,0,1,1,1,0,14,14,3,,,,,,,,,,,,,3.1,551.1863558992045,6.008414095325861,None,,,,,,,,,,,,,,,,,B08A08,2022-12-05_10h57.21.661,t2_paradigm,2021.1.4,60.0488915646245,
2,Trials/StimuliNegative.xlsx,1,ANSCHAUEN,22,Stimuli/3215.jpg,,,,,0,1,1,1,0,15,15,7,,,,,,,,,,,,,3.4,560.614949188137,6.015815001155715,None,,,,,,,,,,,,,,,,,B08A08,2022-12-05_10h57.21.661,t2_paradigm,2021.1.4,60.0488915646245,
2,Trials/StimuliNegative.xlsx,1,ANSCHAUEN,22,Stimuli/238.jpg,,,,,0,1,1,1,0,16,16,1,,,,,,,,,,,,,3.3,569.9480659800465,6.016439923725557,None,,,,,,,,,,,,,,,,,B08A08,2022-12-05_10h57.21.661,t2_paradigm,2021.1.4,60.0488915646245,
2,Trials/StimuliNegative.xlsx,1,ANSCHAUEN,22,Stimuli/3016.jpg,,,,,0,1,1,1,0,17,17,4,,,,,,,,,,,,,4.8,580.7945627883892,6.007548891881015,None,,,,,,,,,,,,,,,,,B08A08,2022-12-05_10h57.21.661,t2_paradigm,2021.1.4,60.0488915646245,
2,Trials/StimuliNegative.xlsx,1,ANSCHAUEN,22,Stimuli/6831.jpg,,,,,0,1,1,1,0,18,18,12,,,,,,,,,,,,,4.4,591.2410600458388,5.997391333105043,None,,,,,,,,,,,,,,,,,B08A08,2022-12-05_10h57.21.661,t2_paradigm,2021.1.4,60.0488915646245,
2,Trials/StimuliNegative.xlsx,1,ANSCHAUEN,22,Stimuli/3220.jpg,,,,,0,1,1,1,0,19,19,8,,,,,,,,,,,,,3.8,601.0654253548128,6.014896865352057,None,,,,,,,,,,,,,,,,,B08A08,2022-12-05_10h57.21.661,t2_paradigm,2021.1.4,60.0488915646245,
2,Trials/StimuliNegative.xlsx,1,ANSCHAUEN,22,,,,,,0,1,1,1,,,,,,,,,,,,,,,,,,,,,71.85185185185186,7.81829380732961,24.814814814814824,4.136159343761392,,,,,,,,,,,,,B08A08,2022-12-05_10h57.21.661,t2_paradigm,2021.1.4,60.0488915646245,
5,,1,UNTERDRÜCKEN,,Stimuli/9140.jpg,,Trials/StimuliNegative.xlsx,25,"Unterdrücken Sie alle aufkommenden Emotionen. Wenn Sie also die Bilder ansehen, verhalten Sie sich so, dass eine außenstehende Person nicht sehen kann, welche Emotionen Sie gerade empfinden.",,,,,,,,,0,0,0,2,0,0,0,15,,,,,4.9,,,,,,,,635.7489790471154,6.016286933154333,None,,,,,,,,,,B08A08,2022-12-05_10h57.21.661,t2_paradigm,2021.1.4,60.0488915646245,
5,,1,UNTERDRÜCKEN,,Stimuli/9409.jpg,,Trials/StimuliNegative.xlsx,25,"Unterdrücken Sie alle aufkommenden Emotionen. Wenn Sie also die Bilder ansehen, verhalten Sie sich so, dass eine außenstehende Person nicht sehen kann, welche Emotionen Sie gerade empfinden.",,,,,,,,,0,0,0,2,0,1,1,17,,,,,3.6,,,,,,,,645.3825729359523,6.00020954804495,None,,,,,,,,,,B08A08,2022-12-05_10h57.21.661,t2_paradigm,2021.1.4,60.0488915646245,
5,,1,UNTERDRÜCKEN,,Stimuli/208.jpg,,Trials/StimuliNegative.xlsx,25,"Unterdrücken Sie alle aufkommenden Emotionen. Wenn Sie also die Bilder ansehen, verhalten Sie sich so, dass eine außenstehende Person nicht sehen kann, welche Emotionen Sie gerade empfinden.",,,,,,,,,0,0,0,2,0,2,2,0,,,,,4.8,,,,,,,,656.2232109344914,6.0003821716527455,None,,,,,,,,,,B08A08,2022-12-05_10h57.21.661,t2_paradigm,2021.1.4,60.0488915646245,
5,,1,UNTERDRÜCKEN,,Stimuli/9570.jpg,,Trials/StimuliNegative.xlsx,25,"Unterdrücken Sie alle aufkommenden Emotionen. Wenn Sie also die Bilder ansehen, verhalten Sie sich so, dass eine außenstehende Person nicht sehen kann, welche Emotionen Sie gerade empfinden.",,,,,,,,,0,0,0,2,0,3,3,18,,,,,4.6,,,,,,,,666.8652101607295,6.016981790657155,None,,,,,,,,,,B08A08,2022-12-05_10h57.21.661,t2_paradigm,2021.1.4,60.0488915646245,
5,,1,UNTERDRÜCKEN,,Stimuli/326.jpg,,Trials/StimuliNegative.xlsx,25,"Unterdrücken Sie alle aufkommenden Emotionen. Wenn Sie also die Bilder ansehen, verhalten Sie sich so, dass eine außenstehende Person nicht sehen kann, welche Emotionen Sie gerade empfinden.",,,,,,,,,0,0,0,2,0,4,4,5,,,,,4.8,,,,,,,,677.7098732638988,6.01023336435901,None,,,,,,,,,,B08A08,2022-12-05_10h57.21.661,t2_paradigm,2021.1.4,60.0488915646245,
5,,1,UNTERDRÜCKEN,,Stimuli/219.jpg,,Trials/StimuliNegative.xlsx,25,"Unterdrücken Sie alle aufkommenden Emotionen. Wenn Sie also die Bilder ansehen, verhalten Sie sich so, dass eine außenstehende Person nicht sehen kann, welche Emotionen Sie gerade empfinden.",,,,,,,,,0,0,0,2,0,5,5,1,,,,,4.1,,,,,,,,687.849201812176,6.015245577262249,None,,,,,,,,,,B08A08,2022-12-05_10h57.21.661,t2_paradigm,2021.1.4,60.0488915646245,
5,,1,UNTERDRÜCKEN,,Stimuli/253.jpg,,Trials/StimuliNegative.xlsx,25,"Unterdrücken Sie alle aufkommenden Emotionen. Wenn Sie also die Bilder ansehen, verhalten Sie sich so, dass eine außenstehende Person nicht sehen kann, welche Emotionen Sie gerade empfinden.",,,,,,,,,0,0,0,2,0,6,6,3,,,,,3.5,,,,,,,,697.3791936060297,6.004679926089011,None,,,,,,,,,,B08A08,2022-12-05_10h57.21.661,t2_paradigm,2021.1.4,60.0488915646245,
5,,1,UNTERDRÜCKEN,,Stimuli/1301.jpg,,Trials/StimuliNegative.xlsx,25,"Unterdrücken Sie alle aufkommenden Emotionen. Wenn Sie also die Bilder ansehen, verhalten Sie sich so, dass eine außenstehende Person nicht sehen kann, welche Emotionen Sie gerade empfinden.",,,,,,,,,0,0,0,2,0,7,7,6,,,,,4.0,,,,,,,,707.4242367956322,5.997778541292064,None,,,,,,,,,,B08A08,2022-12-05_10h57.21.661,t2_paradigm,2021.1.4,60.0488915646245,
5,,1,UNTERDRÜCKEN,,Stimuli/6410.jpg,,Trials/StimuliNegative.xlsx,25,"Unterdrücken Sie alle aufkommenden Emotionen. Wenn Sie also die Bilder ansehen, verhalten Sie sich so, dass eine außenstehende Person nicht sehen kann, welche Emotionen Sie gerade empfinden.",,,,,,,,,0,0,0,2,0,8,8,9,,,,,4.1,,,,,,,,717.5575714763254,5.998471153201535,None,,,,,,,,,,B08A08,2022-12-05_10h57.21.661,t2_paradigm,2021.1.4,60.0488915646245,
5,,1,UNTERDRÜCKEN,,Stimuli/9340.jpg,,Trials/StimuliNegative.xlsx,25,"Unterdrücken Sie alle aufkommenden Emotionen. Wenn Sie also die Bilder ansehen, verhalten Sie sich so, dass eine außenstehende Person nicht sehen kann, welche Emotionen Sie gerade empfinden.",,,,,,,,,0,0,0,2,0,9,9,16,,,,,4.7,,,,,,,,728.2939683419536,6.01044766017003,None,,,,,,,,,,B08A08,2022-12-05_10h57.21.661,t2_paradigm,2021.1.4,60.0488915646245,
5,,1,UNTERDRÜCKEN,,Stimuli/6555.jpg,,Trials/StimuliNegative.xlsx,25,"Unterdrücken Sie alle aufkommenden Emotionen. Wenn Sie also die Bilder ansehen, verhalten Sie sich so, dass eine außenstehende Person nicht sehen kann, welche Emotionen Sie gerade empfinden.",,,,,,,,,0,0,0,2,0,10,10,10,,,,,4.2,,,,,,,,738.5390701742144,6.001449480361771,None,,,,,,,,,,B08A08,2022-12-05_10h57.21.661,t2_paradigm,2021.1.4,60.0488915646245,
5,,1,UNTERDRÜCKEN,,Stimuli/6940.jpg,,Trials/StimuliNegative.xlsx,25,"Unterdrücken Sie alle aufkommenden Emotionen. Wenn Sie also die Bilder ansehen, verhalten Sie sich so, dass eine außenstehende Person nicht sehen kann, welche Emotionen Sie gerade empfinden.",,,,,,,,,0,0,0,2,0,11,11,12,,,,,4.5,,,,,,,,749.0736667622696,6.0002362065715715,None,,,,,,,,,,B08A08,2022-12-05_10h57.21.661,t2_paradigm,2021.1.4,60.0488915646245,
5,,1,UNTERDRÜCKEN,,Stimuli/226.jpg,,Trials/StimuliNegative.xlsx,25,"Unterdrücken Sie alle aufkommenden Emotionen. Wenn Sie also die Bilder ansehen, verhalten Sie sich so, dass eine außenstehende Person nicht sehen kann, welche Emotionen Sie gerade empfinden.",,,,,,,,,0,0,0,2,0,12,12,2,,,,,3.8,,,,,,,,758.900887210446,6.0108813846018165,None,,,,,,,,,,B08A08,2022-12-05_10h57.21.661,t2_paradigm,2021.1.4,60.0488915646245,
5,,1,UNTERDRÜCKEN,,Stimuli/9041.jpg,,Trials/StimuliNegative.xlsx,25,"Unterdrücken Sie alle aufkommenden Emotionen. Wenn Sie also die Bilder ansehen, verhalten Sie sich so, dass eine außenstehende Person nicht sehen kann, welche Emotionen Sie gerade empfinden.",,,,,,,,,0,0,0,2,0,13,13,14,,,,,3.6,,,,,,,,768.5421665566391,5.996104916441254,None,,,,,,,,,,B08A08,2022-12-05_10h57.21.661,t2_paradigm,2021.1.4,60.0488915646245,
5,,1,UNTERDRÜCKEN,,Stimuli/6825.jpg,,Trials/StimuliNegative.xlsx,25,"Unterdrücken Sie alle aufkommenden Emotionen. Wenn Sie also die Bilder ansehen, verhalten Sie sich so, dass eine außenstehende Person nicht sehen kann, welche Emotionen Sie gerade empfinden.",,,,,,,,,0,0,0,2,0,14,14,11,,,,,3.8,,,,,,,,778.3759910380468,6.012026006763335,None,,,,,,,,,,B08A08,2022-12-05_10h57.21.661,t2_paradigm,2021.1.4,60.0488915646245,
5,,1,UNTERDRÜCKEN,,Stimuli/8230.jpg,,Trials/StimuliNegative.xlsx,25,"Unterdrücken Sie alle aufkommenden Emotionen. Wenn Sie also die Bilder ansehen, verhalten Sie sich so, dass eine außenstehende Person nicht sehen kann, welche Emotionen Sie gerade empfinden.",,,,,,,,,0,0,0,2,0,15,15,13,,,,,4.2,,,,,,,,788.6180609691073,6.009775579615962,None,,,,,,,,,,B08A08,2022-12-05_10h57.21.661,t2_paradigm,2021.1.4,60.0488915646245,
5,,1,UNTERDRÜCKEN,,Stimuli/9800.jpg,,Trials/StimuliNegative.xlsx,25,"Unterdrücken Sie alle aufkommenden Emotionen. Wenn Sie also die Bilder ansehen, verhalten Sie sich so, dass eine außenstehende Person nicht sehen kann, welche Emotionen Sie gerade empfinden.",,,,,,,,,0,0,0,2,0,16,16,19,,,,,4.4,,,,,,,,799.0570222630049,6.0001454196171835,None,,,,,,,,,,B08A08,2022-12-05_10h57.21.661,t2_paradigm,2021.1.4,60.0488915646245,
5,,1,UNTERDRÜCKEN,,Stimuli/6242.jpg,,Trials/StimuliNegative.xlsx,25,"Unterdrücken Sie alle aufkommenden Emotionen. Wenn Sie also die Bilder ansehen, verhalten Sie sich so, dass eine außenstehende Person nicht sehen kann, welche Emotionen Sie gerade empfinden.",,,,,,,,,0,0,0,2,0,17,17,8,,,,,3.1,,,,,,,,808.1821081578382,6.015750199090689,None,,,,,,,,,,B08A08,2022-12-05_10h57.21.661,t2_paradigm,2021.1.4,60.0488915646245,
5,,1,UNTERDRÜCKEN,,Stimuli/3350.jpg,,Trials/StimuliNegative.xlsx,25,"Unterdrücken Sie alle aufkommenden Emotionen. Wenn Sie also die Bilder ansehen, verhalten Sie sich so, dass eine außenstehende Person nicht sehen kann, welche Emotionen Sie gerade empfinden.",,,,,,,,,0,0,0,2,0,18,18,7,,,,,3.9,,,,,,,,818.1210928703076,6.0051903543644585,None,,,,,,,,,,B08A08,2022-12-05_10h57.21.661,t2_paradigm,2021.1.4,60.0488915646245,
5,,1,UNTERDRÜCKEN,,Stimuli/254.jpg,,Trials/StimuliNegative.xlsx,25,"Unterdrücken Sie alle aufkommenden Emotionen. Wenn Sie also die Bilder ansehen, verhalten Sie sich so, dass eine außenstehende Person nicht sehen kann, welche Emotionen Sie gerade empfinden.",,,,,,,,,0,0,0,2,0,19,19,4,,,,,3.7,,,,,,,,827.850276820187,6.012699049722869,None,,,,,,,,,,B08A08,2022-12-05_10h57.21.661,t2_paradigm,2021.1.4,60.0488915646245,
5,,1,UNTERDRÜCKEN,,,,Trials/StimuliNegative.xlsx,25,"Unterdrücken Sie alle aufkommenden Emotionen. Wenn Sie also die Bilder ansehen, verhalten Sie sich so, dass eine außenstehende Person nicht sehen kann, welche Emotionen Sie gerade empfinden.",,,,,,,,,0,0,0,2,,,,,,,,,,,,,96.66666666666666,13.600430644815788,111.85185185185185,7.351792931207456,,,,292.96296296296293,5.831694996741135,,,,,,,,B08A08,2022-12-05_10h57.21.661,t2_paradigm,2021.1.4,60.0488915646245,
3,,1,ABLENKEN,,Stimuli/9254.jpg,,Trials/StimuliNegative.xlsx,23,"Denken Sie während des Betrachtens der Bilder an etwas Neutrales, das mit dem Bild nichts zu tun hat. Das könnten geometrische Figuren, Alltagstätigkeiten oder bekannte Orte sein.",,,,,,,,,0,1,1,0,0,0,0,12,,,,,4.2,,,,,,,,885.3705008299439,6.00663688336499,None,,,,,,,,,,B08A08,2022-12-05_10h57.21.661,t2_paradigm,2021.1.4,60.0488915646245,
3,,1,ABLENKEN,,Stimuli/6838.jpg,,Trials/StimuliNegative.xlsx,23,"Denken Sie während des Betrachtens der Bilder an etwas Neutrales, das mit dem Bild nichts zu tun hat. Das könnten geometrische Figuren, Alltagstätigkeiten oder bekannte Orte sein.",,,,,,,,,0,1,1,0,0,1,1,7,,,,,4.4,,,,,,,,895.8018283156562,6.009926998231094,None,,,,,,,,,,B08A08,2022-12-05_10h57.21.661,t2_paradigm,2021.1.4,60.0488915646245,
3,,1,ABLENKEN,,Stimuli/227.jpg,,Trials/StimuliNegative.xlsx,23,"Denken Sie während des Betrachtens der Bilder an etwas Neutrales, das mit dem Bild nichts zu tun hat. Das könnten geometrische Figuren, Alltagstätigkeiten oder bekannte Orte sein.",,,,,,,,,0,1,1,0,0,2,2,0,,,,,3.0,,,,,,,,904.8387956317165,6.002803265466355,None,,,,,,,,,,B08A08,2022-12-05_10h57.21.661,t2_paradigm,2021.1.4,60.0488915646245,
3,,1,ABLENKEN,,Stimuli/3061.jpg,,Trials/StimuliNegative.xlsx,23,"Denken Sie während des Betrachtens der Bilder an etwas Neutrales, das mit dem Bild nichts zu tun hat. Das könnten geometrische Figuren, Alltagstätigkeiten oder bekannte Orte sein.",,,,,,,,,0,1,1,0,0,3,3,4,,,,,4.4,,,,,,,,915.279634259874,6.003973231010605,None,,,,,,,,,,B08A08,2022-12-05_10h57.21.661,t2_paradigm,2021.1.4,60.0488915646245,
3,,1,ABLENKEN,,Stimuli/3230.jpg,,Trials/StimuliNegative.xlsx,23,"Denken Sie während des Betrachtens der Bilder an etwas Neutrales, das mit dem Bild nichts zu tun hat. Das könnten geometrische Figuren, Alltagstätigkeiten oder bekannte Orte sein.",,,,,,,,,0,1,1,0,0,4,4,5,,,,,3.8,,,,,,,,925.1201317470404,6.007827348192222,None,,,,,,,,,,B08A08,2022-12-05_10h57.21.661,t2_paradigm,2021.1.4,60.0488915646245,
3,,1,ABLENKEN,,Stimuli/9295.jpg,,Trials/StimuliNegative.xlsx,23,"Denken Sie während des Betrachtens der Bilder an etwas Neutrales, das mit dem Bild nichts zu tun hat. Das könnten geometrische Figuren, Alltagstätigkeiten oder bekannte Orte sein.",,,,,,,,,0,1,1,0,0,5,5,13,,,,,3.3,,,,,,,,934.4618662472931,6.008270055113826,None,,,,,,,,,,B08A08,2022-12-05_10h57.21.661,t2_paradigm,2021.1.4,60.0488915646245,
3,,1,ABLENKEN,,Stimuli/9599.jpg,,Trials/StimuliNegative.xlsx,23,"Denken Sie während des Betrachtens der Bilder an etwas Neutrales, das mit dem Bild nichts zu tun hat. Das könnten geometrische Figuren, Alltagstätigkeiten oder bekannte Orte sein.",,,,,,,,,0,1,1,0,0,6,6,18,,,,,4.4,,,,,,,,944.9083282165229,5.997459022386465,None,,,,,,,,,,B08A08,2022-12-05_10h57.21.661,t2_paradigm,2021.1.4,60.0488915646245,
3,,1,ABLENKEN,,Stimuli/9420.jpg,,Trials/StimuliNegative.xlsx,23,"Denken Sie während des Betrachtens der Bilder an etwas Neutrales, das mit dem Bild nichts zu tun hat. Das könnten geometrische Figuren, Alltagstätigkeiten oder bekannte Orte sein.",,,,,,,,,0,1,1,0,0,7,7,16,,,,,4.3,,,,,,,,955.2497618044144,6.014390318654478,None,,,,,,,,,,B08A08,2022-12-05_10h57.21.661,t2_paradigm,2021.1.4,60.0488915646245,
3,,1,ABLENKEN,,Stimuli/9421.jpg,,Trials/StimuliNegative.xlsx,23,"Denken Sie während des Betrachtens der Bilder an etwas Neutrales, das mit dem Bild nichts zu tun hat. Das könnten geometrische Figuren, Alltagstätigkeiten oder bekannte Orte sein.",,,,,,,,,0,1,1,0,0,8,8,17,,,,,4.3,,,,,,,,965.5838737245649,6.01239685411565,None,,,,,,,,,,B08A08,2022-12-05_10h57.21.661,t2_paradigm,2021.1.4,60.0488915646245,
3,,1,ABLENKEN,,Stimuli/9181.jpg,,Trials/StimuliNegative.xlsx,23,"Denken Sie während des Betrachtens der Bilder an etwas Neutrales, das mit dem Bild nichts zu tun hat. Das könnten geometrische Figuren, Alltagstätigkeiten oder bekannte Orte sein.",,,,,,,,,0,1,1,0,0,9,9,9,,,,,3.9,,,,,,,,975.5162701231311,6.015938830736559,None,,,,,,,,,,B08A08,2022-12-05_10h57.21.661,t2_paradigm,2021.1.4,60.0488915646245,
3,,1,ABLENKEN,,Stimuli/9185.jpg,,Trials/StimuliNegative.xlsx,23,"Denken Sie während des Betrachtens der Bilder an etwas Neutrales, das mit dem Bild nichts zu tun hat. Das könnten geometrische Figuren, Alltagstätigkeiten oder bekannte Orte sein.",,,,,,,,,0,1,1,0,0,10,10,10,,,,,3.9,,,,,,,,985.4577413731604,5.999975715298206,None,,,,,,,,,,B08A08,2022-12-05_10h57.21.661,t2_paradigm,2021.1.4,60.0488915646245,
3,,1,ABLENKEN,,Stimuli/252.jpg,,Trials/StimuliNegative.xlsx,23,"Denken Sie während des Betrachtens der Bilder an etwas Neutrales, das mit dem Bild nichts zu tun hat. Das könnten geometrische Figuren, Alltagstätigkeiten oder bekannte Orte sein.",,,,,,,,,0,1,1,0,0,11,11,1,,,,,3.4,,,,,,,,994.8803869900876,6.002203012641985,None,,,,,,,,,,B08A08,2022-12-05_10h57.21.661,t2_paradigm,2021.1.4,60.0488915646245,
3,,1,ABLENKEN,,Stimuli/9332.jpg,,Trials/StimuliNegative.xlsx,23,"Denken Sie während des Betrachtens der Bilder an etwas Neutrales, das mit dem Bild nichts zu tun hat. Das könnten geometrische Figuren, Alltagstätigkeiten oder bekannte Orte sein.",,,,,,,,,0,1,1,0,0,12,12,14,,,,,4.6,,,,,,,,1005.531714180659,6.017119414755143,None,,,,,,,,,,B08A08,2022-12-05_10h57.21.661,t2_paradigm,2021.1.4,60.0488915646245,
3,,1,ABLENKEN,,Stimuli/9120.jpg,,Trials/StimuliNegative.xlsx,23,"Denken Sie während des Betrachtens der Bilder an etwas Neutrales, das mit dem Bild nichts zu tun hat. Das könnten geometrische Figuren, Alltagstätigkeiten oder bekannte Orte sein.",,,,,,,,,0,1,1,0,0,13,13,8,,,,,4.9,,,,,,,,1016.4719179413514,6.002500428294297,None,,,,,,,,,,B08A08,2022-12-05_10h57.21.661,t2_paradigm,2021.1.4,60.0488915646245,
3,,1,ABLENKEN,,Stimuli/9230.jpg,,Trials/StimuliNegative.xlsx,23,"Denken Sie während des Betrachtens der Bilder an etwas Neutrales, das mit dem Bild nichts zu tun hat. Das könnten geometrische Figuren, Alltagstätigkeiten oder bekannte Orte sein.",,,,,,,,,0,1,1,0,0,14,14,11,,,,,4.4,,,,,,,,1026.90364899626,6.0070888615446165,None,,,,,,,,,,B08A08,2022-12-05_10h57.21.661,t2_paradigm,2021.1.4,60.0488915646245,
3,,1,ABLENKEN,,Stimuli/9411.jpg,,Trials/StimuliNegative.xlsx,23,"Denken Sie während des Betrachtens der Bilder an etwas Neutrales, das mit dem Bild nichts zu tun hat. Das könnten geometrische Figuren, Alltagstätigkeiten oder bekannte Orte sein.",,,,,,,,,0,1,1,0,0,15,15,15,,,,,3.5,,,,,,,,1036.4313079168205,6.000580395339057,None,,,,,,,,,,B08A08,2022-12-05_10h57.21.661,t2_paradigm,2021.1.4,60.0488915646245,
3,,1,ABLENKEN,,Stimuli/2800.jpg,,Trials/StimuliNegative.xlsx,23,"Denken Sie während des Betrachtens der Bilder an etwas Neutrales, das mit dem Bild nichts zu tun hat. Das könnten geometrische Figuren, Alltagstätigkeiten oder bekannte Orte sein.",,,,,,,,,0,1,1,0,0,16,16,3,,,,,3.2,,,,,,,,1045.6716650851304,6.004546825250145,None,,,,,,,,,,B08A08,2022-12-05_10h57.21.661,t2_paradigm,2021.1.4,60.0488915646245,
3,,1,ABLENKEN,,Stimuli/9905.jpg,,Trials/StimuliNegative.xlsx,23,"Denken Sie während des Betrachtens der Bilder an etwas Neutrales, das mit dem Bild nichts zu tun hat. Das könnten geometrische Figuren, Alltagstätigkeiten oder bekannte Orte sein.",,,,,,,,,0,1,1,0,0,17,17,19,,,,,4.8,,,,,,,,1056.5103051277692,6.010209945729002,None,,,,,,,,,,B08A08,2022-12-05_10h57.21.661,t2_paradigm,2021.1.4,60.0488915646245,
3,,1,ABLENKEN,,Stimuli/6561.jpg,,Trials/StimuliNegative.xlsx,23,"Denken Sie während des Betrachtens der Bilder an etwas Neutrales, das mit dem Bild nichts zu tun hat. Das könnten geometrische Figuren, Alltagstätigkeiten oder bekannte Orte sein.",,,,,,,,,0,1,1,0,0,18,18,6,,,,,3.6,,,,,,,,1066.1482789284782,6.017075753596146,None,,,,,,,,,,B08A08,2022-12-05_10h57.21.661,t2_paradigm,2021.1.4,60.0488915646245,
3,,1,ABLENKEN,,Stimuli/1051.jpg,,Trials/StimuliNegative.xlsx,23,"Denken Sie während des Betrachtens der Bilder an etwas Neutrales, das mit dem Bild nichts zu tun hat. Das könnten geometrische Figuren, Alltagstätigkeiten oder bekannte Orte sein.",,,,,,,,,0,1,1,0,0,19,19,2,,,,,4.4,,,,,,,,1076.5873662976664,6.004658464400563,None,,,,,,,,,,B08A08,2022-12-05_10h57.21.661,t2_paradigm,2021.1.4,60.0488915646245,
3,,1,ABLENKEN,,,,Trials/StimuliNegative.xlsx,23,"Denken Sie während des Betrachtens der Bilder an etwas Neutrales, das mit dem Bild nichts zu tun hat. Das könnten geometrische Figuren, Alltagstätigkeiten oder bekannte Orte sein.",,,,,,,,,0,1,1,0,,,,,,,,,,,,,114.44444444444444,12.33482730895048,197.40740740740742,3.601541582727805,,,,205.1851851851852,4.636140416376293,,,,,,,,B08A08,2022-12-05_10h57.21.661,t2_paradigm,2021.1.4,60.0488915646245,
4,,1,DISTANZIEREN,,Stimuli/1111.jpg,,Trials/StimuliNegative.xlsx,24,Nehmen Sie die Position eines uninvolvierten Beobachters ein. Denken Sie über das Bild in einer neutralen Weise nach.,,,,,,,,,0,2,2,1,0,0,0,4,,,,,3.9,,,,,,,,1118.5854376350762,6.010060131142382,None,,,,,,,,,,B08A08,2022-12-05_10h57.21.661,t2_paradigm,2021.1.4,60.0488915646245,
4,,1,DISTANZIEREN,,Stimuli/9326.jpg,,Trials/StimuliNegative.xlsx,24,Nehmen Sie die Position eines uninvolvierten Beobachters ein. Denken Sie über das Bild in einer neutralen Weise nach.,,,,,,,,,0,2,2,1,0,1,1,16,,,,,3.2,,,,,,,,1127.8240550932824,6.000857921200804,None,,,,,,,,,,B08A08,2022-12-05_10h57.21.661,t2_paradigm,2021.1.4,60.0488915646245,
4,,1,DISTANZIEREN,,Stimuli/230.jpg,,Trials/StimuliNegative.xlsx,24,Nehmen Sie die Position eines uninvolvierten Beobachters ein. Denken Sie über das Bild in einer neutralen Weise nach.,,,,,,,,,0,2,2,1,0,2,2,1,,,,,4.1,,,,,,,,1137.9518674855935,6.009539790044073,None,,,,,,,,,,B08A08,2022-12-05_10h57.21.661,t2_paradigm,2021.1.4,60.0488915646245,
4,,1,DISTANZIEREN,,Stimuli/6836.jpg,,Trials/StimuliNegative.xlsx,24,Nehmen Sie die Position eines uninvolvierten Beobachters ein. Denken Sie über das Bild in einer neutralen Weise nach.,,,,,,,,,0,2,2,1,0,3,3,11,,,,,3.0,,,,,,,,1146.9826930442941,6.015381276607513,None,,,,,,,,,,B08A08,2022-12-05_10h57.21.661,t2_paradigm,2021.1.4,60.0488915646245,
4,,1,DISTANZIEREN,,Stimuli/9300.jpg,,Trials/StimuliNegative.xlsx,24,Nehmen Sie die Position eines uninvolvierten Beobachters ein. Denken Sie über das Bild in einer neutralen Weise nach.,,,,,,,,,0,2,2,1,0,4,4,15,,,,,3.3,,,,,,,,1156.3172393306158,6.01352479448542,None,,,,,,,,,,B08A08,2022-12-05_10h57.21.661,t2_paradigm,2021.1.4,60.0488915646245,
4,,1,DISTANZIEREN,,Stimuli/255.jpg,,Trials/StimuliNegative.xlsx,24,Nehmen Sie die Position eines uninvolvierten Beobachters ein. Denken Sie über das Bild in einer neutralen Weise nach.,,,,,,,,,0,2,2,1,0,5,5,2,,,,,4.7,,,,,,,,1167.050546229817,6.012474809074774,None,,,,,,,,,,B08A08,2022-12-05_10h57.21.661,t2_paradigm,2021.1.4,60.0488915646245,
4,,1,DISTANZIEREN,,Stimuli/6190.jpg,,Trials/StimuliNegative.xlsx,24,Nehmen Sie die Position eines uninvolvierten Beobachters ein. Denken Sie über das Bild in einer neutralen Weise nach.,,,,,,,,,0,2,2,1,0,6,6,9,,,,,4.9,,,,,,,,1177.988910190179,6.0029534008936025,None,,,,,,,,,,B08A08,2022-12-05_10h57.21.661,t2_paradigm,2021.1.4,60.0488915646245,
4,,1,DISTANZIEREN,,Stimuli/9180.jpg,,Trials/StimuliNegative.xlsx,24,Nehmen Sie die Position eines uninvolvierten Beobachters ein. Denken Sie über das Bild in einer neutralen Weise nach.,,,,,,,,,0,2,2,1,0,7,7,12,,,,,3.5,,,,,,,,1187.5135291894549,6.003208406560589,None,,,,,,,,,,B08A08,2022-12-05_10h57.21.661,t2_paradigm,2021.1.4,60.0488915646245,
4,,1,DISTANZIEREN,,Stimuli/9253.jpg,,Trials/StimuliNegative.xlsx,24,Nehmen Sie die Position eines uninvolvierten Beobachters ein. Denken Sie über das Bild in einer neutralen Weise nach.,,,,,,,,,0,2,2,1,0,8,8,14,,,,,4.0,,,,,,,,1197.5555696708616,6.00360238365829,None,,,,,,,,,,B08A08,2022-12-05_10h57.21.661,t2_paradigm,2021.1.4,60.0488915646245,
4,,1,DISTANZIEREN,,Stimuli/327.jpg,,Trials/StimuliNegative.xlsx,24,Nehmen Sie die Position eines uninvolvierten Beobachters ein. Denken Sie über das Bild in einer neutralen Weise nach.,,,,,,,,,0,2,2,1,0,9,9,3,,,,,3.7,,,,,,,,1207.2845072446507,6.010791880893521,None,,,,,,,,,,B08A08,2022-12-05_10h57.21.661,t2_paradigm,2021.1.4,60.0488915646245,
4,,1,DISTANZIEREN,,Stimuli/9920.jpg,,Trials/StimuliNegative.xlsx,24,Nehmen Sie die Position eines uninvolvierten Beobachters ein. Denken Sie über das Bild in einer neutralen Weise nach.,,,,,,,,,0,2,2,1,0,10,10,19,,,,,3.4,,,,,,,,1216.7213153145276,6.005354925873689,None,,,,,,,,,,B08A08,2022-12-05_10h57.21.661,t2_paradigm,2021.1.4,60.0488915646245,
4,,1,DISTANZIEREN,,Stimuli/9182.jpg,,Trials/StimuliNegative.xlsx,24,Nehmen Sie die Position eines uninvolvierten Beobachters ein. Denken Sie über das Bild in einer neutralen Weise nach.,,,,,,,,,0,2,2,1,0,11,11,13,,,,,4.2,,,,,,,,1226.9542821634677,6.006697162112687,None,,,,,,,,,,B08A08,2022-12-05_10h57.21.661,t2_paradigm,2021.1.4,60.0488915646245,
4,,1,DISTANZIEREN,,Stimuli/3017.jpg,,Trials/StimuliNegative.xlsx,24,Nehmen Sie die Position eines uninvolvierten Beobachters ein. Denken Sie über das Bild in einer neutralen Weise nach.,,,,,,,,,0,2,2,1,0,12,12,5,,,,,3.7,,,,,,,,1236.6887567825615,6.002049701171927,None,,,,,,,,,,B08A08,2022-12-05_10h57.21.661,t2_paradigm,2021.1.4,60.0488915646245,
4,,1,DISTANZIEREN,,Stimuli/225.jpg,,Trials/StimuliNegative.xlsx,24,Nehmen Sie die Position eines uninvolvierten Beobachters ein. Denken Sie über das Bild in einer neutralen Weise nach.,,,,,,,,,0,2,2,1,0,13,13,0,,,,,4.1,,,,,,,,1246.8214107211097,6.003511275921483,None,,,,,,,,,,B08A08,2022-12-05_10h57.21.661,t2_paradigm,2021.1.4,60.0488915646245,
4,,1,DISTANZIEREN,,Stimuli/3280.jpg,,Trials/StimuliNegative.xlsx,24,Nehmen Sie die Position eines uninvolvierten Beobachters ein. Denken Sie über das Bild in einer neutralen Weise nach.,,,,,,,,,0,2,2,1,0,14,14,8,,,,,4.2,,,,,,,,1257.0662960118498,6.013963042350952,None,,,,,,,,,,B08A08,2022-12-05_10h57.21.661,t2_paradigm,2021.1.4,60.0488915646245,
4,,1,DISTANZIEREN,,Stimuli/9424.jpg,,Trials/StimuliNegative.xlsx,24,Nehmen Sie die Position eines uninvolvierten Beobachters ein. Denken Sie über das Bild in einer neutralen Weise nach.,,,,,,,,,0,2,2,1,0,15,15,17,,,,,3.7,,,,,,,,1266.7997078134213,6.014531471708324,None,,,,,,,,,,B08A08,2022-12-05_10h57.21.661,t2_paradigm,2021.1.4,60.0488915646245,
4,,1,DISTANZIEREN,,Stimuli/3180.jpg,,Trials/StimuliNegative.xlsx,24,Nehmen Sie die Position eines uninvolvierten Beobachters ein. Denken Sie über das Bild in einer neutralen Weise nach.,,,,,,,,,0,2,2,1,0,16,16,7,,,,,3.7,,,,,,,,1276.5370959577267,6.0064029865316115,None,,,,,,,,,,B08A08,2022-12-05_10h57.21.661,t2_paradigm,2021.1.4,60.0488915646245,
4,,1,DISTANZIEREN,,Stimuli/6244.jpg,,Trials/StimuliNegative.xlsx,24,Nehmen Sie die Position eines uninvolvierten Beobachters ein. Denken Sie über das Bild in einer neutralen Weise nach.,,,,,,,,,0,2,2,1,0,17,17,10,,,,,3.4,,,,,,,,1285.9656016676454,6.015271241427399,None,,,,,,,,,,B08A08,2022-12-05_10h57.21.661,t2_paradigm,2021.1.4,60.0488915646245,
4,,1,DISTANZIEREN,,Stimuli/9425.jpg,,Trials/StimuliNegative.xlsx,24,Nehmen Sie die Position eines uninvolvierten Beobachters ein. Denken Sie über das Bild in einer neutralen Weise nach.,,,,,,,,,0,2,2,1,0,18,18,18,,,,,3.3,,,,,,,,1295.3093966802116,6.011500853637699,None,,,,,,,,,,B08A08,2022-12-05_10h57.21.661,t2_paradigm,2021.1.4,60.0488915646245,
4,,1,DISTANZIEREN,,Stimuli/3022.jpg,,Trials/StimuliNegative.xlsx,24,Nehmen Sie die Position eines uninvolvierten Beobachters ein. Denken Sie über das Bild in einer neutralen Weise nach.,,,,,,,,,0,2,2,1,0,19,19,6,,,,,4.6,,,,,,,,1305.957238034578,5.999253589601722,None,,,,,,,,,,B08A08,2022-12-05_10h57.21.661,t2_paradigm,2021.1.4,60.0488915646245,
4,,1,DISTANZIEREN,,,,Trials/StimuliNegative.xlsx,24,Nehmen Sie die Position eines uninvolvierten Beobachters ein. Denken Sie über das Bild in einer neutralen Weise nach.,,,,,,,,,0,2,2,1,,,,,,,,,,,,,206.29629629629628,6.001456120982766,310.3703703703704,3.6501219368656166,,,,208.8888888888889,3.6526957326568663,,,,,,,,B08A08,2022-12-05_10h57.21.661,t2_paradigm,2021.1.4,60.0488915646245,
,,,,,,,,,,,,,,,,,,,,,,,,,,,,,,,,,,,,,,,,,,,3,14.898932883690577,,,,,,B08A08,2022-12-05_10h57.21.661,t2_paradigm,2021.1.4,60.0488915646245,
,,,,,,,,,,,,,,,,,,,,,,,,,,,,,,,,,,,,,,,,,,,,,space,7.397502426872961,,,,B08A08,2022-12-05_10h57.21.661,t2_paradigm,2021.1.4,60.0488915646245,
,,,,,Stimuli/3185.jpg,,,,,,,,,,,,,,,,,,,,,0,0,0,9,4.3,,,,,,,,,,,,,,,,,1477.7569474519696,6.000552549667191,None,B08A08,2022-12-05_10h57.21.661,t2_paradigm,2021.1.4,60.0488915646245,
,,,,,Stimuli/246.jpg,,,,,,,,,,,,,,,,,,,,,0,1,1,4,4.4,,,,,,,,,,,,,,,,,1488.187851799652,6.003895596892107,None,B08A08,2022-12-05_10h57.21.661,t2_paradigm,2021.1.4,60.0488915646245,
,,,,,Stimuli/3160.jpg,,,,,,,,,,,,,,,,,,,,,0,2,2,8,4.5,,,,,,,,,,,,,,,,,1498.7290200199932,6.00623649021145,None,B08A08,2022-12-05_10h57.21.661,t2_paradigm,2021.1.4,60.0488915646245,
,,,,,Stimuli/9145.jpg,,,,,,,,,,,,,,,,,,,,,0,3,3,16,4.8,,,,,,,,,,,,,,,,,1509.5793526597554,6.005123306706082,None,B08A08,2022-12-05_10h57.21.661,t2_paradigm,2021.1.4,60.0488915646245,
,,,,,Stimuli/228.jpg,,,,,,,,,,,,,,,,,,,,,0,4,4,3,4.2,,,,,,,,,,,,,,,,,1519.8236707723117,5.999956146348268,None,B08A08,2022-12-05_10h57.21.661,t2_paradigm,2021.1.4,60.0488915646245,
,,,,,Stimuli/9031.jpg,,,,,,,,,,,,,,,,,,,,,0,5,5,12,3.2,,,,,,,,,,,,,,,,,1529.0664371647872,6.015379704651423,None,B08A08,2022-12-05_10h57.21.661,t2_paradigm,2021.1.4,60.0488915646245,
,,,,,Stimuli/6562.jpg,,,,,,,,,,,,,,,,,,,,,0,6,6,11,3.0,,,,,,,,,,,,,,,,,1538.098990243103,6.01612906641094,None,B08A08,2022-12-05_10h57.21.661,t2_paradigm,2021.1.4,60.0488915646245,
,,,,,Stimuli/9160.jpg,,,,,,,,,,,,,,,,,,,,,0,7,7,17,4.4,,,,,,,,,,,,,,,,,1548.5407418742543,5.999152536969632,None,B08A08,2022-12-05_10h57.21.661,t2_paradigm,2021.1.4,60.0488915646245,
,,,,,Stimuli/9904.jpg,,,,,,,,,,,,,,,,,,,,,0,8,8,19,4.2,,,,,,,,,,,,,,,,,1558.7797365957522,6.004421070800163,None,B08A08,2022-12-05_10h57.21.661,t2_paradigm,2021.1.4,60.0488915646245,
,,,,,Stimuli/222.jpg,,,,,,,,,,,,,,,,,,,,,0,9,9,2,3.5,,,,,,,,,,,,,,,,,1568.315924683353,6.014945627190173,None,B08A08,2022-12-05_10h57.21.661,t2_paradigm,2021.1.4,60.0488915646245,
,,,,,Stimuli/218.jpg,,,,,,,,,,,,,,,,,,,,,0,10,10,1,4.7,,,,,,,,,,,,,,,,,1579.0469830802758,6.003319724928588,None,B08A08,2022-12-05_10h57.21.661,t2_paradigm,2021.1.4,60.0488915646245,
,,,,,Stimuli/251.jpg,,,,,,,,,,,,,,,,,,,,,0,11,11,5,3.9,,,,,,,,,,,,,,,,,1588.9868121440522,6.006986846507061,None,B08A08,2022-12-05_10h57.21.661,t2_paradigm,2021.1.4,60.0488915646245,
,,,,,Stimuli/2703.jpg,,,,,,,,,,,,,,,,,,,,,0,12,12,6,4.7,,,,,,,,,,,,,,,,,1599.734971220838,6.0113815473159775,None,B08A08,2022-12-05_10h57.21.661,t2_paradigm,2021.1.4,60.0488915646245,
,,,,,Stimuli/210.jpg,,,,,,,,,,,,,,,,,,,,,0,13,13,0,3.0,,,,,,,,,,,,,,,,,1608.7619227726827,6.006088568305131,None,B08A08,2022-12-05_10h57.21.661,t2_paradigm,2021.1.4,60.0488915646245,
,,,,,Stimuli/9042.jpg,,,,,,,,,,,,,,,,,,,,,0,14,14,14,4.8,,,,,,,,,,,,,,,,,1619.615553900192,6.016754662676249,None,B08A08,2022-12-05_10h57.21.661,t2_paradigm,2021.1.4,60.0488915646245,
,,,,,Stimuli/9043.jpg,,,,,,,,,,,,,,,,,,,,,0,15,15,15,4.6,,,,,,,,,,,,,,,,,1630.2621729983366,6.006691387621686,None,B08A08,2022-12-05_10h57.21.661,t2_paradigm,2021.1.4,60.0488915646245,
,,,,,Stimuli/9184.jpg,,,,,,,,,,,,,,,,,,,,,0,16,16,18,4.6,,,,,,,,,,,,,,,,,1640.9040140691213,6.006710956571624,None,B08A08,2022-12-05_10h57.21.661,t2_paradigm,2021.1.4,60.0488915646245,
,,,,,Stimuli/3051.jpg,,,,,,,,,,,,,,,,,,,,,0,17,17,7,3.2,,,,,,,,,,,,,,,,,1650.1445268264506,6.010272822983097,None,B08A08,2022-12-05_10h57.21.661,t2_paradigm,2021.1.4,60.0488915646245,
,,,,,Stimuli/9040.jpg,,,,,,,,,,,,,,,,,,,,,0,18,18,13,4.5,,,,,,,,,,,,,,,,,1660.6888328126515,6.005116569926031,None,B08A08,2022-12-05_10h57.21.661,t2_paradigm,2021.1.4,60.0488915646245,
,,,,,Stimuli/3301.jpg,,,,,,,,,,,,,,,,,,,,,0,19,19,10,4.1,,,,,,,,,,,,,,,,,1670.8121106664767,6.00453011150239,None,B08A08,2022-12-05_10h57.21.661,t2_paradigm,2021.1.4,60.0488915646245,
,,,,,,,,,,,,,,,,,,,,,,,,,,,,,,,,,,42.59259259259258,3.568194839870557,4.444444444444451,3.6464420153643005,,,,388.88888888888886,3.6019862144603394,,,,,,,,,,,,,
