Block,conds_view_File,n_reps,instr_1,TriggerBlockView,ImageFile,Trigger,conds_reg_File,TriggerBlockReg,instr_2,blocks_view.thisRepN,blocks_view.thisTrialN,blocks_view.thisN,blocks_view.thisIndex,trials_view.thisRepN,trials_view.thisTrialN,trials_view.thisN,trials_view.thisIndex,blocks_reg.thisRepN,blocks_reg.thisTrialN,blocks_reg.thisN,blocks_reg.thisIndex,trials_reg.thisRepN,trials_reg.thisTrialN,trials_reg.thisN,trials_reg.thisIndex,trials_choice.thisRepN,trials_choice.thisTrialN,trials_choice.thisN,trials_choice.thisIndex,Fix_jitter,image_view.started,image_view.lasted,image_view.stopped,slider_arousal.response,slider_arousal.rt,slider_effort.response,slider_effort.rt,image_reg.started,image_reg.lasted,image_reg.stopped,slider_utility.response,slider_utility.rt,resp_choice.keys,resp_choice.rt,key_resp.keys,key_resp.rt,image.started,image.lased,image.stopped,participant,date,expName,psychopyVersion,frameRate,
,,,,,,,,,,,,,,,,,,,,,,,,,,,,,,,,,,,,,,,,,,,,,,,,,,B09N05,2022-11-17_16h55.10.515,t2_paradigm,2021.1.4,59.974526306718744,
1,Trials/StimuliNeutral.xlsx,1,ANSCHAUEN,21,Stimuli/7185.jpg,1,,,,0,0,0,0,0,0,0,15,,,,,,,,,,,,,4.1,138.69891132652992,6.021385941363405,None,,,,,,,,,,,,,,,,,B09N05,2022-11-17_16h55.10.515,t2_paradigm,2021.1.4,59.974526306718744,
1,Trials/StimuliNeutral.xlsx,1,ANSCHAUEN,21,Stimuli/7150.jpg,1,,,,0,0,0,0,0,1,1,14,,,,,,,,,,,,,3.8,148.52795949426945,6.000428270664997,None,,,,,,,,,,,,,,,,,B09N05,2022-11-17_16h55.10.515,t2_paradigm,2021.1.4,59.974526306718744,
1,Trials/StimuliNeutral.xlsx,1,ANSCHAUEN,21,Stimuli/7006.jpg,1,,,,0,0,0,0,0,2,2,8,,,,,,,,,,,,,4.1,158.6651700186194,6.009300850622822,None,,,,,,,,,,,,,,,,,B09N05,2022-11-17_16h55.10.515,t2_paradigm,2021.1.4,59.974526306718744,
1,Trials/StimuliNeutral.xlsx,1,ANSCHAUEN,21,Stimuli/7233.jpg,1,,,,0,0,0,0,0,3,3,18,,,,,,,,,,,,,4.1,168.8001644430915,6.006157633091789,None,,,,,,,,,,,,,,,,,B09N05,2022-11-17_16h55.10.515,t2_paradigm,2021.1.4,59.974526306718744,
1,Trials/StimuliNeutral.xlsx,1,ANSCHAUEN,21,Stimuli/143.jpg,1,,,,0,0,0,0,0,4,4,4,,,,,,,,,,,,,4.5,179.3360916954698,5.999776561395265,None,,,,,,,,,,,,,,,,,B09N05,2022-11-17_16h55.10.515,t2_paradigm,2021.1.4,59.974526306718744,
1,Trials/StimuliNeutral.xlsx,1,ANSCHAUEN,21,Stimuli/107.jpg,1,,,,0,0,0,0,0,5,5,1,,,,,,,,,,,,,3.3,188.65427750907838,5.997174376389012,None,,,,,,,,,,,,,,,,,B09N05,2022-11-17_16h55.10.515,t2_paradigm,2021.1.4,59.974526306718744,
1,Trials/StimuliNeutral.xlsx,1,ANSCHAUEN,21,Stimuli/140.jpg,1,,,,0,0,0,0,0,6,6,3,,,,,,,,,,,,,4.7,199.37977208947996,6.0127222035080194,None,,,,,,,,,,,,,,,,,B09N05,2022-11-17_16h55.10.515,t2_paradigm,2021.1.4,59.974526306718744,
1,Trials/StimuliNeutral.xlsx,1,ANSCHAUEN,21,Stimuli/124.jpg,1,,,,0,0,0,0,0,7,7,2,,,,,,,,,,,,,4.5,209.91048887651414,6.000732711690944,None,,,,,,,,,,,,,,,,,B09N05,2022-11-17_16h55.10.515,t2_paradigm,2021.1.4,59.974526306718744,
1,Trials/StimuliNeutral.xlsx,1,ANSCHAUEN,21,Stimuli/7041.jpg,1,,,,0,0,0,0,0,8,8,12,,,,,,,,,,,,,4.1,220.05724325898336,6.008488580118865,None,,,,,,,,,,,,,,,,,B09N05,2022-11-17_16h55.10.515,t2_paradigm,2021.1.4,59.974526306718744,
1,Trials/StimuliNeutral.xlsx,1,ANSCHAUEN,21,Stimuli/7000.jpg,1,,,,0,0,0,0,0,9,9,5,,,,,,,,,,,,,4.1,230.20129777223337,6.003115147352219,None,,,,,,,,,,,,,,,,,B09N05,2022-11-17_16h55.10.515,t2_paradigm,2021.1.4,59.974526306718744,
1,Trials/StimuliNeutral.xlsx,1,ANSCHAUEN,21,Stimuli/7002.jpg,1,,,,0,0,0,0,0,10,10,6,,,,,,,,,,,,,4.0,240.2299331962131,6.012770965404343,None,,,,,,,,,,,,,,,,,B09N05,2022-11-17_16h55.10.515,t2_paradigm,2021.1.4,59.974526306718744,
1,Trials/StimuliNeutral.xlsx,1,ANSCHAUEN,21,Stimuli/7211.jpg,1,,,,0,0,0,0,0,11,11,16,,,,,,,,,,,,,5.0,251.27850934880553,6.015431215520948,None,,,,,,,,,,,,,,,,,B09N05,2022-11-17_16h55.10.515,t2_paradigm,2021.1.4,59.974526306718744,
1,Trials/StimuliNeutral.xlsx,1,ANSCHAUEN,21,Stimuli/7021.jpg,1,,,,0,0,0,0,0,12,12,10,,,,,,,,,,,,,3.9,261.21877153386595,6.001569202751853,None,,,,,,,,,,,,,,,,,B09N05,2022-11-17_16h55.10.515,t2_paradigm,2021.1.4,59.974526306718744,
1,Trials/StimuliNeutral.xlsx,1,ANSCHAUEN,21,Stimuli/083.jpg,1,,,,0,0,0,0,0,13,13,0,,,,,,,,,,,,,3.3,270.5430442437646,6.002481403120328,None,,,,,,,,,,,,,,,,,B09N05,2022-11-17_16h55.10.515,t2_paradigm,2021.1.4,59.974526306718744,
1,Trials/StimuliNeutral.xlsx,1,ANSCHAUEN,21,Stimuli/7100.jpg,1,,,,0,0,0,0,0,14,14,13,,,,,,,,,,,,,3.0,279.59618187934393,6.01300563197583,None,,,,,,,,,,,,,,,,,B09N05,2022-11-17_16h55.10.515,t2_paradigm,2021.1.4,59.974526306718744,
1,Trials/StimuliNeutral.xlsx,1,ANSCHAUEN,21,Stimuli/7004.jpg,1,,,,0,0,0,0,0,15,15,7,,,,,,,,,,,,,4.6,290.23528770159464,6.002874866651837,None,,,,,,,,,,,,,,,,,B09N05,2022-11-17_16h55.10.515,t2_paradigm,2021.1.4,59.974526306718744,
1,Trials/StimuliNeutral.xlsx,1,ANSCHAUEN,21,Stimuli/7235.jpg,1,,,,0,0,0,0,0,16,16,19,,,,,,,,,,,,,4.7,300.9691773483064,6.000157032511197,None,,,,,,,,,,,,,,,,,B09N05,2022-11-17_16h55.10.515,t2_paradigm,2021.1.4,59.974526306718744,
1,Trials/StimuliNeutral.xlsx,1,ANSCHAUEN,21,Stimuli/7009.jpg,1,,,,0,0,0,0,0,17,17,9,,,,,,,,,,,,,3.0,309.996728140919,6.013422193238512,None,,,,,,,,,,,,,,,,,B09N05,2022-11-17_16h55.10.515,t2_paradigm,2021.1.4,59.974526306718744,
1,Trials/StimuliNeutral.xlsx,1,ANSCHAUEN,21,Stimuli/7025.jpg,1,,,,0,0,0,0,0,18,18,11,,,,,,,,,,,,,4.5,320.5347399643506,6.002455257752445,None,,,,,,,,,,,,,,,,,B09N05,2022-11-17_16h55.10.515,t2_paradigm,2021.1.4,59.974526306718744,
1,Trials/StimuliNeutral.xlsx,1,ANSCHAUEN,21,Stimuli/7224.jpg,1,,,,0,0,0,0,0,19,19,17,,,,,,,,,,,,,4.5,331.0619420452276,6.014643165515736,None,,,,,,,,,,,,,,,,,B09N05,2022-11-17_16h55.10.515,t2_paradigm,2021.1.4,59.974526306718744,
1,Trials/StimuliNeutral.xlsx,1,ANSCHAUEN,21,,,,,,0,0,0,0,,,,,,,,,,,,,,,,,,,,,3.703703703703698,5.251158095023129,5.555555555555558,2.7366276913671754,,,,,,,,,,,,,B09N05,2022-11-17_16h55.10.515,t2_paradigm,2021.1.4,59.974526306718744,
2,Trials/StimuliNegative.xlsx,1,ANSCHAUEN,22,Stimuli/9182.jpg,,,,,0,1,1,1,0,0,0,13,,,,,,,,,,,,,4.3,359.4817794114351,6.009987527213525,None,,,,,,,,,,,,,,,,,B09N05,2022-11-17_16h55.10.515,t2_paradigm,2021.1.4,59.974526306718744,
2,Trials/StimuliNegative.xlsx,1,ANSCHAUEN,22,Stimuli/9425.jpg,,,,,0,1,1,1,0,1,1,18,,,,,,,,,,,,,3.3,368.8162170520518,6.007806234294549,None,,,,,,,,,,,,,,,,,B09N05,2022-11-17_16h55.10.515,t2_paradigm,2021.1.4,59.974526306718744,
2,Trials/StimuliNegative.xlsx,1,ANSCHAUEN,22,Stimuli/9300.jpg,,,,,0,1,1,1,0,2,2,15,,,,,,,,,,,,,4.8,379.64995726919733,6.005491969001014,None,,,,,,,,,,,,,,,,,B09N05,2022-11-17_16h55.10.515,t2_paradigm,2021.1.4,59.974526306718744,
2,Trials/StimuliNegative.xlsx,1,ANSCHAUEN,22,Stimuli/327.jpg,,,,,0,1,1,1,0,3,3,3,,,,,,,,,,,,,4.2,389.8851320485119,6.001994906924665,None,,,,,,,,,,,,,,,,,B09N05,2022-11-17_16h55.10.515,t2_paradigm,2021.1.4,59.974526306718744,
2,Trials/StimuliNegative.xlsx,1,ANSCHAUEN,22,Stimuli/1111.jpg,,,,,0,1,1,1,0,4,4,4,,,,,,,,,,,,,4.3,400.24009427730925,6.009811727737542,None,,,,,,,,,,,,,,,,,B09N05,2022-11-17_16h55.10.515,t2_paradigm,2021.1.4,59.974526306718744,
2,Trials/StimuliNegative.xlsx,1,ANSCHAUEN,22,Stimuli/3180.jpg,,,,,0,1,1,1,0,5,5,7,,,,,,,,,,,,,4.8,411.0829324378283,6.0059539237990975,None,,,,,,,,,,,,,,,,,B09N05,2022-11-17_16h55.10.515,t2_paradigm,2021.1.4,59.974526306718744,
2,Trials/StimuliNegative.xlsx,1,ANSCHAUEN,22,Stimuli/9326.jpg,,,,,0,1,1,1,0,6,6,16,,,,,,,,,,,,,3.7,420.82239024405135,6.0109930809703656,None,,,,,,,,,,,,,,,,,B09N05,2022-11-17_16h55.10.515,t2_paradigm,2021.1.4,59.974526306718744,
2,Trials/StimuliNegative.xlsx,1,ANSCHAUEN,22,Stimuli/225.jpg,,,,,0,1,1,1,0,7,7,0,,,,,,,,,,,,,4.1,430.9614479460288,6.0152764286031015,None,,,,,,,,,,,,,,,,,B09N05,2022-11-17_16h55.10.515,t2_paradigm,2021.1.4,59.974526306718744,
2,Trials/StimuliNegative.xlsx,1,ANSCHAUEN,22,Stimuli/6244.jpg,,,,,0,1,1,1,0,8,8,10,,,,,,,,,,,,,3.3,440.3115586868953,6.014730904891621,None,,,,,,,,,,,,,,,,,B09N05,2022-11-17_16h55.10.515,t2_paradigm,2021.1.4,59.974526306718744,
2,Trials/StimuliNegative.xlsx,1,ANSCHAUEN,22,Stimuli/9180.jpg,,,,,0,1,1,1,0,9,9,12,,,,,,,,,,,,,4.3,450.65391628612997,5.997462616942357,None,,,,,,,,,,,,,,,,,B09N05,2022-11-17_16h55.10.515,t2_paradigm,2021.1.4,59.974526306718744,
2,Trials/StimuliNegative.xlsx,1,ANSCHAUEN,22,Stimuli/9253.jpg,,,,,0,1,1,1,0,10,10,14,,,,,,,,,,,,,5.0,461.69886513100937,6.009197392035276,None,,,,,,,,,,,,,,,,,B09N05,2022-11-17_16h55.10.515,t2_paradigm,2021.1.4,59.974526306718744,
2,Trials/StimuliNegative.xlsx,1,ANSCHAUEN,22,Stimuli/3280.jpg,,,,,0,1,1,1,0,11,11,8,,,,,,,,,,,,,3.8,471.52793767972616,6.015790032513905,None,,,,,,,,,,,,,,,,,B09N05,2022-11-17_16h55.10.515,t2_paradigm,2021.1.4,59.974526306718744,
2,Trials/StimuliNegative.xlsx,1,ANSCHAUEN,22,Stimuli/6836.jpg,,,,,0,1,1,1,0,12,12,11,,,,,,,,,,,,,4.2,481.76232521107886,6.014787526451983,None,,,,,,,,,,,,,,,,,B09N05,2022-11-17_16h55.10.515,t2_paradigm,2021.1.4,59.974526306718744,
2,Trials/StimuliNegative.xlsx,1,ANSCHAUEN,22,Stimuli/6190.jpg,,,,,0,1,1,1,0,13,13,9,,,,,,,,,,,,,4.5,492.2966224687407,6.012427386420313,None,,,,,,,,,,,,,,,,,B09N05,2022-11-17_16h55.10.515,t2_paradigm,2021.1.4,59.974526306718744,
2,Trials/StimuliNegative.xlsx,1,ANSCHAUEN,22,Stimuli/9424.jpg,,,,,0,1,1,1,0,14,14,17,,,,,,,,,,,,,4.9,503.2356710599852,6.0011669170926325,None,,,,,,,,,,,,,,,,,B09N05,2022-11-17_16h55.10.515,t2_paradigm,2021.1.4,59.974526306718744,
2,Trials/StimuliNegative.xlsx,1,ANSCHAUEN,22,Stimuli/3022.jpg,,,,,0,1,1,1,0,15,15,6,,,,,,,,,,,,,4.1,513.3631975357421,6.012617622036487,None,,,,,,,,,,,,,,,,,B09N05,2022-11-17_16h55.10.515,t2_paradigm,2021.1.4,59.974526306718744,
2,Trials/StimuliNegative.xlsx,1,ANSCHAUEN,22,Stimuli/9920.jpg,,,,,0,1,1,1,0,16,16,19,,,,,,,,,,,,,4.2,523.6152657459606,6.009865622443613,None,,,,,,,,,,,,,,,,,B09N05,2022-11-17_16h55.10.515,t2_paradigm,2021.1.4,59.974526306718744,
2,Trials/StimuliNegative.xlsx,1,ANSCHAUEN,22,Stimuli/255.jpg,,,,,0,1,1,1,0,17,17,2,,,,,,,,,,,,,3.6,533.2433950086124,6.001556210278068,None,,,,,,,,,,,,,,,,,B09N05,2022-11-17_16h55.10.515,t2_paradigm,2021.1.4,59.974526306718744,
2,Trials/StimuliNegative.xlsx,1,ANSCHAUEN,22,Stimuli/3017.jpg,,,,,0,1,1,1,0,18,18,5,,,,,,,,,,,,,4.9,544.1887053331593,6.010838775197044,None,,,,,,,,,,,,,,,,,B09N05,2022-11-17_16h55.10.515,t2_paradigm,2021.1.4,59.974526306718744,
2,Trials/StimuliNegative.xlsx,1,ANSCHAUEN,22,Stimuli/230.jpg,,,,,0,1,1,1,0,19,19,1,,,,,,,,,,,,,3.8,554.022568417422,6.0099888104596175,None,,,,,,,,,,,,,,,,,B09N05,2022-11-17_16h55.10.515,t2_paradigm,2021.1.4,59.974526306718744,
2,Trials/StimuliNegative.xlsx,1,ANSCHAUEN,22,,,,,,0,1,1,1,,,,,,,,,,,,,,,,,,,,,121.11111111111113,8.233232644270174,29.259259259259252,9.885436810378451,,,,,,,,,,,,,B09N05,2022-11-17_16h55.10.515,t2_paradigm,2021.1.4,59.974526306718744,
3,,1,ABLENKEN,,Stimuli/3301.jpg,,Trials/StimuliNegative.xlsx,23,"Denken Sie während des Betrachtens der Bilder an etwas Neutrales, das mit dem Bild nichts zu tun hat. Das könnten geometrische Figuren, Alltagstätigkeiten oder bekannte Orte sein.",,,,,,,,,0,0,0,0,0,0,0,10,,,,,3.3,,,,,,,,601.3890759877395,6.010111517156474,None,,,,,,,,,,B09N05,2022-11-17_16h55.10.515,t2_paradigm,2021.1.4,59.974526306718744,
3,,1,ABLENKEN,,Stimuli/9145.jpg,,Trials/StimuliNegative.xlsx,23,"Denken Sie während des Betrachtens der Bilder an etwas Neutrales, das mit dem Bild nichts zu tun hat. Das könnten geometrische Figuren, Alltagstätigkeiten oder bekannte Orte sein.",,,,,,,,,0,0,0,0,0,1,1,16,,,,,4.8,,,,,,,,612.2384905883227,6.0120879779569805,None,,,,,,,,,,B09N05,2022-11-17_16h55.10.515,t2_paradigm,2021.1.4,59.974526306718744,
3,,1,ABLENKEN,,Stimuli/251.jpg,,Trials/StimuliNegative.xlsx,23,"Denken Sie während des Betrachtens der Bilder an etwas Neutrales, das mit dem Bild nichts zu tun hat. Das könnten geometrische Figuren, Alltagstätigkeiten oder bekannte Orte sein.",,,,,,,,,0,0,0,0,0,2,2,5,,,,,4.0,,,,,,,,622.2859445756767,5.999608140438795,None,,,,,,,,,,B09N05,2022-11-17_16h55.10.515,t2_paradigm,2021.1.4,59.974526306718744,
3,,1,ABLENKEN,,Stimuli/210.jpg,,Trials/StimuliNegative.xlsx,23,"Denken Sie während des Betrachtens der Bilder an etwas Neutrales, das mit dem Bild nichts zu tun hat. Das könnten geometrische Figuren, Alltagstätigkeiten oder bekannte Orte sein.",,,,,,,,,0,0,0,0,0,3,3,0,,,,,4.1,,,,,,,,632.4219447142677,6.0109359782072715,None,,,,,,,,,,B09N05,2022-11-17_16h55.10.515,t2_paradigm,2021.1.4,59.974526306718744,
3,,1,ABLENKEN,,Stimuli/2703.jpg,,Trials/StimuliNegative.xlsx,23,"Denken Sie während des Betrachtens der Bilder an etwas Neutrales, das mit dem Bild nichts zu tun hat. Das könnten geometrische Figuren, Alltagstätigkeiten oder bekannte Orte sein.",,,,,,,,,0,0,0,0,0,4,4,6,,,,,4.7,,,,,,,,643.1762967135874,6.003454555815551,None,,,,,,,,,,B09N05,2022-11-17_16h55.10.515,t2_paradigm,2021.1.4,59.974526306718744,
3,,1,ABLENKEN,,Stimuli/3185.jpg,,Trials/StimuliNegative.xlsx,23,"Denken Sie während des Betrachtens der Bilder an etwas Neutrales, das mit dem Bild nichts zu tun hat. Das könnten geometrische Figuren, Alltagstätigkeiten oder bekannte Orte sein.",,,,,,,,,0,0,0,0,0,5,5,9,,,,,3.1,,,,,,,,652.3162276385119,6.0071858033770695,None,,,,,,,,,,B09N05,2022-11-17_16h55.10.515,t2_paradigm,2021.1.4,59.974526306718744,
3,,1,ABLENKEN,,Stimuli/6562.jpg,,Trials/StimuliNegative.xlsx,23,"Denken Sie während des Betrachtens der Bilder an etwas Neutrales, das mit dem Bild nichts zu tun hat. Das könnten geometrische Figuren, Alltagstätigkeiten oder bekannte Orte sein.",,,,,,,,,0,0,0,0,0,6,6,11,,,,,4.5,,,,,,,,662.8641272198292,6.010490223823581,None,,,,,,,,,,B09N05,2022-11-17_16h55.10.515,t2_paradigm,2021.1.4,59.974526306718744,
3,,1,ABLENKEN,,Stimuli/9043.jpg,,Trials/StimuliNegative.xlsx,23,"Denken Sie während des Betrachtens der Bilder an etwas Neutrales, das mit dem Bild nichts zu tun hat. Das könnten geometrische Figuren, Alltagstätigkeiten oder bekannte Orte sein.",,,,,,,,,0,0,0,0,0,7,7,15,,,,,4.8,,,,,,,,673.7119339610217,6.0155633859103546,None,,,,,,,,,,B09N05,2022-11-17_16h55.10.515,t2_paradigm,2021.1.4,59.974526306718744,
3,,1,ABLENKEN,,Stimuli/9040.jpg,,Trials/StimuliNegative.xlsx,23,"Denken Sie während des Betrachtens der Bilder an etwas Neutrales, das mit dem Bild nichts zu tun hat. Das könnten geometrische Figuren, Alltagstätigkeiten oder bekannte Orte sein.",,,,,,,,,0,0,0,0,0,8,8,13,,,,,4.1,,,,,,,,683.8491043851245,6.008593482314609,None,,,,,,,,,,B09N05,2022-11-17_16h55.10.515,t2_paradigm,2021.1.4,59.974526306718744,
3,,1,ABLENKEN,,Stimuli/218.jpg,,Trials/StimuliNegative.xlsx,23,"Denken Sie während des Betrachtens der Bilder an etwas Neutrales, das mit dem Bild nichts zu tun hat. Das könnten geometrische Figuren, Alltagstätigkeiten oder bekannte Orte sein.",,,,,,,,,0,0,0,0,0,9,9,1,,,,,3.7,,,,,,,,693.5756149452645,6.003715528175235,None,,,,,,,,,,B09N05,2022-11-17_16h55.10.515,t2_paradigm,2021.1.4,59.974526306718744,
3,,1,ABLENKEN,,Stimuli/9031.jpg,,Trials/StimuliNegative.xlsx,23,"Denken Sie während des Betrachtens der Bilder an etwas Neutrales, das mit dem Bild nichts zu tun hat. Das könnten geometrische Figuren, Alltagstätigkeiten oder bekannte Orte sein.",,,,,,,,,0,0,0,0,0,10,10,12,,,,,3.6,,,,,,,,703.2324129953049,6.00785194861237,None,,,,,,,,,,B09N05,2022-11-17_16h55.10.515,t2_paradigm,2021.1.4,59.974526306718744,
3,,1,ABLENKEN,,Stimuli/3051.jpg,,Trials/StimuliNegative.xlsx,23,"Denken Sie während des Betrachtens der Bilder an etwas Neutrales, das mit dem Bild nichts zu tun hat. Das könnten geometrische Figuren, Alltagstätigkeiten oder bekannte Orte sein.",,,,,,,,,0,0,0,0,0,11,11,7,,,,,4.9,,,,,,,,714.1780701067764,6.016171305614989,None,,,,,,,,,,B09N05,2022-11-17_16h55.10.515,t2_paradigm,2021.1.4,59.974526306718744,
3,,1,ABLENKEN,,Stimuli/9160.jpg,,Trials/StimuliNegative.xlsx,23,"Denken Sie während des Betrachtens der Bilder an etwas Neutrales, das mit dem Bild nichts zu tun hat. Das könnten geometrische Figuren, Alltagstätigkeiten oder bekannte Orte sein.",,,,,,,,,0,0,0,0,0,12,12,17,,,,,4.1,,,,,,,,724.3148542853305,6.008932890777942,None,,,,,,,,,,B09N05,2022-11-17_16h55.10.515,t2_paradigm,2021.1.4,59.974526306718744,
3,,1,ABLENKEN,,Stimuli/222.jpg,,Trials/StimuliNegative.xlsx,23,"Denken Sie während des Betrachtens der Bilder an etwas Neutrales, das mit dem Bild nichts zu tun hat. Das könnten geometrische Figuren, Alltagstätigkeiten oder bekannte Orte sein.",,,,,,,,,0,0,0,0,0,13,13,2,,,,,4.5,,,,,,,,734.8626168842311,6.0129077874007635,None,,,,,,,,,,B09N05,2022-11-17_16h55.10.515,t2_paradigm,2021.1.4,59.974526306718744,
3,,1,ABLENKEN,,Stimuli/3160.jpg,,Trials/StimuliNegative.xlsx,23,"Denken Sie während des Betrachtens der Bilder an etwas Neutrales, das mit dem Bild nichts zu tun hat. Das könnten geometrische Figuren, Alltagstätigkeiten oder bekannte Orte sein.",,,,,,,,,0,0,0,0,0,14,14,8,,,,,4.5,,,,,,,,745.403573990392,5.998435609275475,None,,,,,,,,,,B09N05,2022-11-17_16h55.10.515,t2_paradigm,2021.1.4,59.974526306718744,
3,,1,ABLENKEN,,Stimuli/9184.jpg,,Trials/StimuliNegative.xlsx,23,"Denken Sie während des Betrachtens der Bilder an etwas Neutrales, das mit dem Bild nichts zu tun hat. Das könnten geometrische Figuren, Alltagstätigkeiten oder bekannte Orte sein.",,,,,,,,,0,0,0,0,0,15,15,18,,,,,4.4,,,,,,,,755.849483893835,6.007763728033751,None,,,,,,,,,,B09N05,2022-11-17_16h55.10.515,t2_paradigm,2021.1.4,59.974526306718744,
3,,1,ABLENKEN,,Stimuli/228.jpg,,Trials/StimuliNegative.xlsx,23,"Denken Sie während des Betrachtens der Bilder an etwas Neutrales, das mit dem Bild nichts zu tun hat. Das könnten geometrische Figuren, Alltagstätigkeiten oder bekannte Orte sein.",,,,,,,,,0,0,0,0,0,16,16,3,,,,,3.4,,,,,,,,765.278060867684,6.015201040136162,None,,,,,,,,,,B09N05,2022-11-17_16h55.10.515,t2_paradigm,2021.1.4,59.974526306718744,
3,,1,ABLENKEN,,Stimuli/246.jpg,,Trials/StimuliNegative.xlsx,23,"Denken Sie während des Betrachtens der Bilder an etwas Neutrales, das mit dem Bild nichts zu tun hat. Das könnten geometrische Figuren, Alltagstätigkeiten oder bekannte Orte sein.",,,,,,,,,0,0,0,0,0,17,17,4,,,,,4.0,,,,,,,,775.3007165432791,6.002938225050457,None,,,,,,,,,,B09N05,2022-11-17_16h55.10.515,t2_paradigm,2021.1.4,59.974526306718744,
3,,1,ABLENKEN,,Stimuli/9904.jpg,,Trials/StimuliNegative.xlsx,23,"Denken Sie während des Betrachtens der Bilder an etwas Neutrales, das mit dem Bild nichts zu tun hat. Das könnten geometrische Figuren, Alltagstätigkeiten oder bekannte Orte sein.",,,,,,,,,0,0,0,0,0,18,18,19,,,,,4.6,,,,,,,,785.9638870033086,6.01042365754256,None,,,,,,,,,,B09N05,2022-11-17_16h55.10.515,t2_paradigm,2021.1.4,59.974526306718744,
3,,1,ABLENKEN,,Stimuli/9042.jpg,,Trials/StimuliNegative.xlsx,23,"Denken Sie während des Betrachtens der Bilder an etwas Neutrales, das mit dem Bild nichts zu tun hat. Das könnten geometrische Figuren, Alltagstätigkeiten oder bekannte Orte sein.",,,,,,,,,0,0,0,0,0,19,19,14,,,,,3.2,,,,,,,,795.192018896516,6.00545491639059,None,,,,,,,,,,B09N05,2022-11-17_16h55.10.515,t2_paradigm,2021.1.4,59.974526306718744,
3,,1,ABLENKEN,,,,Trials/StimuliNegative.xlsx,23,"Denken Sie während des Betrachtens der Bilder an etwas Neutrales, das mit dem Bild nichts zu tun hat. Das könnten geometrische Figuren, Alltagstätigkeiten oder bekannte Orte sein.",,,,,,,,,0,0,0,0,,,,,,,,,,,,,133.33333333333334,13.067917943990324,116.66666666666666,8.285199673555326,,,,252.96296296296296,12.919929436349776,,,,,,,,B09N05,2022-11-17_16h55.10.515,t2_paradigm,2021.1.4,59.974526306718744,
5,,1,UNTERDRÜCKEN,,Stimuli/6571.jpg,,Trials/StimuliNegative.xlsx,25,"Unterdrücken Sie alle aufkommenden Emotionen. Wenn Sie also die Bilder ansehen, verhalten Sie sich so, dass eine außenstehende Person nicht sehen kann, welche Emotionen Sie gerade empfinden.",,,,,,,,,0,1,1,2,0,0,0,11,,,,,3.2,,,,,,,,867.8987725476036,6.008062875887845,None,,,,,,,,,,B09N05,2022-11-17_16h55.10.515,t2_paradigm,2021.1.4,59.974526306718744,
5,,1,UNTERDRÜCKEN,,Stimuli/238.jpg,,Trials/StimuliNegative.xlsx,25,"Unterdrücken Sie alle aufkommenden Emotionen. Wenn Sie also die Bilder ansehen, verhalten Sie sich so, dass eine außenstehende Person nicht sehen kann, welche Emotionen Sie gerade empfinden.",,,,,,,,,0,1,1,2,0,1,1,1,,,,,3.9,,,,,,,,877.8378214596305,5.995982757536694,None,,,,,,,,,,B09N05,2022-11-17_16h55.10.515,t2_paradigm,2021.1.4,59.974526306718744,
5,,1,UNTERDRÜCKEN,,Stimuli/6831.jpg,,Trials/StimuliNegative.xlsx,25,"Unterdrücken Sie alle aufkommenden Emotionen. Wenn Sie also die Bilder ansehen, verhalten Sie sich so, dass eine außenstehende Person nicht sehen kann, welche Emotionen Sie gerade empfinden.",,,,,,,,,0,1,1,2,0,2,2,12,,,,,3.6,,,,,,,,887.4662237247103,6.005722304864321,None,,,,,,,,,,B09N05,2022-11-17_16h55.10.515,t2_paradigm,2021.1.4,59.974526306718744,
5,,1,UNTERDRÜCKEN,,Stimuli/3101.jpg,,Trials/StimuliNegative.xlsx,25,"Unterdrücken Sie alle aufkommenden Emotionen. Wenn Sie also die Bilder ansehen, verhalten Sie sich so, dass eine außenstehende Person nicht sehen kann, welche Emotionen Sie gerade empfinden.",,,,,,,,,0,1,1,2,0,3,3,5,,,,,4.8,,,,,,,,898.3113132733852,6.015156609064434,None,,,,,,,,,,B09N05,2022-11-17_16h55.10.515,t2_paradigm,2021.1.4,59.974526306718744,
5,,1,UNTERDRÜCKEN,,Stimuli/245.jpg,,Trials/StimuliNegative.xlsx,25,"Unterdrücken Sie alle aufkommenden Emotionen. Wenn Sie also die Bilder ansehen, verhalten Sie sich so, dass eine außenstehende Person nicht sehen kann, welche Emotionen Sie gerade empfinden.",,,,,,,,,0,1,1,2,0,4,4,2,,,,,3.3,,,,,,,,907.6431014106493,6.001636731612962,None,,,,,,,,,,B09N05,2022-11-17_16h55.10.515,t2_paradigm,2021.1.4,59.974526306718744,
5,,1,UNTERDRÜCKEN,,Stimuli/9423.jpg,,Trials/StimuliNegative.xlsx,25,"Unterdrücken Sie alle aufkommenden Emotionen. Wenn Sie also die Bilder ansehen, verhalten Sie sich so, dass eine außenstehende Person nicht sehen kann, welche Emotionen Sie gerade empfinden.",,,,,,,,,0,1,1,2,0,5,5,19,,,,,4.2,,,,,,,,917.894159415504,6.001693353115115,None,,,,,,,,,,B09N05,2022-11-17_16h55.10.515,t2_paradigm,2021.1.4,59.974526306718744,
5,,1,UNTERDRÜCKEN,,Stimuli/6020.jpg,,Trials/StimuliNegative.xlsx,25,"Unterdrücken Sie alle aufkommenden Emotionen. Wenn Sie also die Bilder ansehen, verhalten Sie sich so, dass eine außenstehende Person nicht sehen kann, welche Emotionen Sie gerade empfinden.",,,,,,,,,0,1,1,2,0,6,6,10,,,,,4.1,,,,,,,,928.0280817198218,6.014545641781297,None,,,,,,,,,,B09N05,2022-11-17_16h55.10.515,t2_paradigm,2021.1.4,59.974526306718744,
5,,1,UNTERDRÜCKEN,,Stimuli/223.jpg,,Trials/StimuliNegative.xlsx,25,"Unterdrücken Sie alle aufkommenden Emotionen. Wenn Sie also die Bilder ansehen, verhalten Sie sich so, dass eine außenstehende Person nicht sehen kann, welche Emotionen Sie gerade empfinden.",,,,,,,,,0,1,1,2,0,7,7,0,,,,,3.5,,,,,,,,937.5787806189619,6.01393307041144,None,,,,,,,,,,B09N05,2022-11-17_16h55.10.515,t2_paradigm,2021.1.4,59.974526306718744,
5,,1,UNTERDRÜCKEN,,Stimuli/8231.jpg,,Trials/StimuliNegative.xlsx,25,"Unterdrücken Sie alle aufkommenden Emotionen. Wenn Sie also die Bilder ansehen, verhalten Sie sich so, dass eine außenstehende Person nicht sehen kann, welche Emotionen Sie gerade empfinden.",,,,,,,,,0,1,1,2,0,8,8,13,,,,,3.5,,,,,,,,947.1148349089199,6.009305021027103,None,,,,,,,,,,B09N05,2022-11-17_16h55.10.515,t2_paradigm,2021.1.4,59.974526306718744,
5,,1,UNTERDRÜCKEN,,Stimuli/3220.jpg,,Trials/StimuliNegative.xlsx,25,"Unterdrücken Sie alle aufkommenden Emotionen. Wenn Sie also die Bilder ansehen, verhalten Sie sich so, dass eine außenstehende Person nicht sehen kann, welche Emotionen Sie gerade empfinden.",,,,,,,,,0,1,1,2,0,9,9,8,,,,,3.0,,,,,,,,956.1429259319557,6.002227969584055,None,,,,,,,,,,B09N05,2022-11-17_16h55.10.515,t2_paradigm,2021.1.4,59.974526306718744,
5,,1,UNTERDRÜCKEN,,Stimuli/3215.jpg,,Trials/StimuliNegative.xlsx,25,"Unterdrücken Sie alle aufkommenden Emotionen. Wenn Sie also die Bilder ansehen, verhalten Sie sich so, dass eine außenstehende Person nicht sehen kann, welche Emotionen Sie gerade empfinden.",,,,,,,,,0,1,1,2,0,10,10,7,,,,,4.5,,,,,,,,966.6825241211336,6.005467908864375,None,,,,,,,,,,B09N05,2022-11-17_16h55.10.515,t2_paradigm,2021.1.4,59.974526306718744,
5,,1,UNTERDRÜCKEN,,Stimuli/9402.jpg,,Trials/StimuliNegative.xlsx,25,"Unterdrücken Sie alle aufkommenden Emotionen. Wenn Sie also die Bilder ansehen, verhalten Sie sich so, dass eine außenstehende Person nicht sehen kann, welche Emotionen Sie gerade empfinden.",,,,,,,,,0,1,1,2,0,11,11,16,,,,,3.6,,,,,,,,976.3128428570926,6.0141093510901555,None,,,,,,,,,,B09N05,2022-11-17_16h55.10.515,t2_paradigm,2021.1.4,59.974526306718744,
5,,1,UNTERDRÜCKEN,,Stimuli/9373.jpg,,Trials/StimuliNegative.xlsx,25,"Unterdrücken Sie alle aufkommenden Emotionen. Wenn Sie also die Bilder ansehen, verhalten Sie sich so, dass eine außenstehende Person nicht sehen kann, welche Emotionen Sie gerade empfinden.",,,,,,,,,0,1,1,2,0,12,12,14,,,,,3.8,,,,,,,,986.1469452596502,6.011719055764843,None,,,,,,,,,,B09N05,2022-11-17_16h55.10.515,t2_paradigm,2021.1.4,59.974526306718744,
5,,1,UNTERDRÜCKEN,,Stimuli/9403.jpg,,Trials/StimuliNegative.xlsx,25,"Unterdrücken Sie alle aufkommenden Emotionen. Wenn Sie also die Bilder ansehen, verhalten Sie sich so, dass eine außenstehende Person nicht sehen kann, welche Emotionen Sie gerade empfinden.",,,,,,,,,0,1,1,2,0,13,13,17,,,,,4.8,,,,,,,,996.9932230587583,6.003058686212171,None,,,,,,,,,,B09N05,2022-11-17_16h55.10.515,t2_paradigm,2021.1.4,59.974526306718744,
5,,1,UNTERDRÜCKEN,,Stimuli/9400.jpg,,Trials/StimuliNegative.xlsx,25,"Unterdrücken Sie alle aufkommenden Emotionen. Wenn Sie also die Bilder ansehen, verhalten Sie sich so, dass eine außenstehende Person nicht sehen kann, welche Emotionen Sie gerade empfinden.",,,,,,,,,0,1,1,2,0,14,14,15,,,,,4.2,,,,,,,,1007.2339297469589,6.003860370256007,None,,,,,,,,,,B09N05,2022-11-17_16h55.10.515,t2_paradigm,2021.1.4,59.974526306718744,
5,,1,UNTERDRÜCKEN,,Stimuli/3225.jpg,,Trials/StimuliNegative.xlsx,25,"Unterdrücken Sie alle aufkommenden Emotionen. Wenn Sie also die Bilder ansehen, verhalten Sie sich so, dass eine außenstehende Person nicht sehen kann, welche Emotionen Sie gerade empfinden.",,,,,,,,,0,1,1,2,0,15,15,9,,,,,4.4,,,,,,,,1017.6716749198386,6.0115073263878,None,,,,,,,,,,B09N05,2022-11-17_16h55.10.515,t2_paradigm,2021.1.4,59.974526306718744,
5,,1,UNTERDRÜCKEN,,Stimuli/3181.jpg,,Trials/StimuliNegative.xlsx,25,"Unterdrücken Sie alle aufkommenden Emotionen. Wenn Sie also die Bilder ansehen, verhalten Sie sich so, dass eine außenstehende Person nicht sehen kann, welche Emotionen Sie gerade empfinden.",,,,,,,,,0,1,1,2,0,16,16,6,,,,,4.7,,,,,,,,1028.4166501988657,6.004869613272604,None,,,,,,,,,,B09N05,2022-11-17_16h55.10.515,t2_paradigm,2021.1.4,59.974526306718744,
5,,1,UNTERDRÜCKEN,,Stimuli/3016.jpg,,Trials/StimuliNegative.xlsx,25,"Unterdrücken Sie alle aufkommenden Emotionen. Wenn Sie also die Bilder ansehen, verhalten Sie sich so, dass eine außenstehende Person nicht sehen kann, welche Emotionen Sie gerade empfinden.",,,,,,,,,0,1,1,2,0,17,17,4,,,,,3.8,,,,,,,,1038.2451196399052,6.014383315923624,None,,,,,,,,,,B09N05,2022-11-17_16h55.10.515,t2_paradigm,2021.1.4,59.974526306718744,
5,,1,UNTERDRÜCKEN,,Stimuli/2981.jpg,,Trials/StimuliNegative.xlsx,25,"Unterdrücken Sie alle aufkommenden Emotionen. Wenn Sie also die Bilder ansehen, verhalten Sie sich so, dass eine außenstehende Person nicht sehen kann, welche Emotionen Sie gerade empfinden.",,,,,,,,,0,1,1,2,0,18,18,3,,,,,4.0,,,,,,,,1048.2797611180576,6.012822293618228,None,,,,,,,,,,B09N05,2022-11-17_16h55.10.515,t2_paradigm,2021.1.4,59.974526306718744,
5,,1,UNTERDRÜCKEN,,Stimuli/9405.jpg,,Trials/StimuliNegative.xlsx,25,"Unterdrücken Sie alle aufkommenden Emotionen. Wenn Sie also die Bilder ansehen, verhalten Sie sich so, dass eine außenstehende Person nicht sehen kann, welche Emotionen Sie gerade empfinden.",,,,,,,,,0,1,1,2,0,19,19,18,,,,,3.1,,,,,,,,1057.4146554523031,6.010199096112046,None,,,,,,,,,,B09N05,2022-11-17_16h55.10.515,t2_paradigm,2021.1.4,59.974526306718744,
5,,1,UNTERDRÜCKEN,,,,Trials/StimuliNegative.xlsx,25,"Unterdrücken Sie alle aufkommenden Emotionen. Wenn Sie also die Bilder ansehen, verhalten Sie sich so, dass eine außenstehende Person nicht sehen kann, welche Emotionen Sie gerade empfinden.",,,,,,,,,0,1,1,2,,,,,,,,,,,,,231.4814814814815,16.3491319741006,50.74074074074073,5.335150141676422,,,,107.40740740740739,4.75134961376898,,,,,,,,B09N05,2022-11-17_16h55.10.515,t2_paradigm,2021.1.4,59.974526306718744,
4,,1,DISTANZIEREN,,Stimuli/6561.jpg,,Trials/StimuliNegative.xlsx,24,Nehmen Sie die Position eines uninvolvierten Beobachters ein. Denken Sie über das Bild in einer neutralen Weise nach.,,,,,,,,,0,2,2,1,0,0,0,6,,,,,3.7,,,,,,,,1121.5974990921677,6.010657842853107,None,,,,,,,,,,B09N05,2022-11-17_16h55.10.515,t2_paradigm,2021.1.4,59.974526306718744,
4,,1,DISTANZIEREN,,Stimuli/227.jpg,,Trials/StimuliNegative.xlsx,24,Nehmen Sie die Position eines uninvolvierten Beobachters ein. Denken Sie über das Bild in einer neutralen Weise nach.,,,,,,,,,0,2,2,1,0,1,1,0,,,,,3.7,,,,,,,,1131.342760526517,6.0030384756973945,None,,,,,,,,,,B09N05,2022-11-17_16h55.10.515,t2_paradigm,2021.1.4,59.974526306718744,
4,,1,DISTANZIEREN,,Stimuli/9181.jpg,,Trials/StimuliNegative.xlsx,24,Nehmen Sie die Position eines uninvolvierten Beobachters ein. Denken Sie über das Bild in einer neutralen Weise nach.,,,,,,,,,0,2,2,1,0,2,2,9,,,,,4.1,,,,,,,,1141.4945110785775,6.016466122644488,None,,,,,,,,,,B09N05,2022-11-17_16h55.10.515,t2_paradigm,2021.1.4,59.974526306718744,
4,,1,DISTANZIEREN,,Stimuli/9295.jpg,,Trials/StimuliNegative.xlsx,24,Nehmen Sie die Position eines uninvolvierten Beobachters ein. Denken Sie über das Bild in einer neutralen Weise nach.,,,,,,,,,0,2,2,1,0,3,3,13,,,,,3.4,,,,,,,,1150.9406872476102,6.00871602864936,None,,,,,,,,,,B09N05,2022-11-17_16h55.10.515,t2_paradigm,2021.1.4,59.974526306718744,
4,,1,DISTANZIEREN,,Stimuli/9599.jpg,,Trials/StimuliNegative.xlsx,24,Nehmen Sie die Position eines uninvolvierten Beobachters ein. Denken Sie über das Bild in einer neutralen Weise nach.,,,,,,,,,0,2,2,1,0,4,4,18,,,,,3.1,,,,,,,,1160.0992137785652,6.007543016283307,None,,,,,,,,,,B09N05,2022-11-17_16h55.10.515,t2_paradigm,2021.1.4,59.974526306718744,
4,,1,DISTANZIEREN,,Stimuli/9254.jpg,,Trials/StimuliNegative.xlsx,24,Nehmen Sie die Position eines uninvolvierten Beobachters ein. Denken Sie über das Bild in einer neutralen Weise nach.,,,,,,,,,0,2,2,1,0,5,5,12,,,,,3.2,,,,,,,,1169.3525363244116,6.000792060047388,None,,,,,,,,,,B09N05,2022-11-17_16h55.10.515,t2_paradigm,2021.1.4,59.974526306718744,
4,,1,DISTANZIEREN,,Stimuli/9905.jpg,,Trials/StimuliNegative.xlsx,24,Nehmen Sie die Position eines uninvolvierten Beobachters ein. Denken Sie über das Bild in einer neutralen Weise nach.,,,,,,,,,0,2,2,1,0,6,6,19,,,,,4.3,,,,,,,,1179.6910632275394,6.0064922295860015,None,,,,,,,,,,B09N05,2022-11-17_16h55.10.515,t2_paradigm,2021.1.4,59.974526306718744,
4,,1,DISTANZIEREN,,Stimuli/9421.jpg,,Trials/StimuliNegative.xlsx,24,Nehmen Sie die Position eines uninvolvierten Beobachters ein. Denken Sie über das Bild in einer neutralen Weise nach.,,,,,,,,,0,2,2,1,0,7,7,17,,,,,4.6,,,,,,,,1190.3485519641545,6.008633261721116,None,,,,,,,,,,B09N05,2022-11-17_16h55.10.515,t2_paradigm,2021.1.4,59.974526306718744,
4,,1,DISTANZIEREN,,Stimuli/9411.jpg,,Trials/StimuliNegative.xlsx,24,Nehmen Sie die Position eines uninvolvierten Beobachters ein. Denken Sie über das Bild in einer neutralen Weise nach.,,,,,,,,,0,2,2,1,0,8,8,15,,,,,4.2,,,,,,,,1200.58178557083,6.007044650497846,None,,,,,,,,,,B09N05,2022-11-17_16h55.10.515,t2_paradigm,2021.1.4,59.974526306718744,
4,,1,DISTANZIEREN,,Stimuli/3230.jpg,,Trials/StimuliNegative.xlsx,24,Nehmen Sie die Position eines uninvolvierten Beobachters ein. Denken Sie über das Bild in einer neutralen Weise nach.,,,,,,,,,0,2,2,1,0,9,9,5,,,,,3.3,,,,,,,,1209.9113977084635,6.016012348292861,None,,,,,,,,,,B09N05,2022-11-17_16h55.10.515,t2_paradigm,2021.1.4,59.974526306718744,
4,,1,DISTANZIEREN,,Stimuli/9420.jpg,,Trials/StimuliNegative.xlsx,24,Nehmen Sie die Position eines uninvolvierten Beobachters ein. Denken Sie über das Bild in einer neutralen Weise nach.,,,,,,,,,0,2,2,1,0,10,10,16,,,,,3.2,,,,,,,,1219.1630379688577,6.012675205944106,None,,,,,,,,,,B09N05,2022-11-17_16h55.10.515,t2_paradigm,2021.1.4,59.974526306718744,
4,,1,DISTANZIEREN,,Stimuli/3061.jpg,,Trials/StimuliNegative.xlsx,24,Nehmen Sie die Position eines uninvolvierten Beobachters ein. Denken Sie über das Bild in einer neutralen Weise nach.,,,,,,,,,0,2,2,1,0,11,11,4,,,,,4.4,,,,,,,,1229.600836074038,6.002449804102071,None,,,,,,,,,,B09N05,2022-11-17_16h55.10.515,t2_paradigm,2021.1.4,59.974526306718744,
4,,1,DISTANZIEREN,,Stimuli/9332.jpg,,Trials/StimuliNegative.xlsx,24,Nehmen Sie die Position eines uninvolvierten Beobachters ein. Denken Sie über das Bild in einer neutralen Weise nach.,,,,,,,,,0,2,2,1,0,12,12,14,,,,,4.1,,,,,,,,1239.7513544258545,6.002839097287506,None,,,,,,,,,,B09N05,2022-11-17_16h55.10.515,t2_paradigm,2021.1.4,59.974526306718744,
4,,1,DISTANZIEREN,,Stimuli/1051.jpg,,Trials/StimuliNegative.xlsx,24,Nehmen Sie die Position eines uninvolvierten Beobachters ein. Denken Sie über das Bild in einer neutralen Weise nach.,,,,,,,,,0,2,2,1,0,13,13,2,,,,,4.0,,,,,,,,1249.7962359023513,6.011264960572589,None,,,,,,,,,,B09N05,2022-11-17_16h55.10.515,t2_paradigm,2021.1.4,59.974526306718744,
4,,1,DISTANZIEREN,,Stimuli/9230.jpg,,Trials/StimuliNegative.xlsx,24,Nehmen Sie die Position eines uninvolvierten Beobachters ein. Denken Sie über das Bild in einer neutralen Weise nach.,,,,,,,,,0,2,2,1,0,14,14,11,,,,,3.5,,,,,,,,1259.3331666232552,6.005467908864375,None,,,,,,,,,,B09N05,2022-11-17_16h55.10.515,t2_paradigm,2021.1.4,59.974526306718744,
4,,1,DISTANZIEREN,,Stimuli/9185.jpg,,Trials/StimuliNegative.xlsx,24,Nehmen Sie die Position eines uninvolvierten Beobachters ein. Denken Sie über das Bild in einer neutralen Weise nach.,,,,,,,,,0,2,2,1,0,15,15,10,,,,,4.4,,,,,,,,1269.7841403855127,6.004237793851644,None,,,,,,,,,,B09N05,2022-11-17_16h55.10.515,t2_paradigm,2021.1.4,59.974526306718744,
4,,1,DISTANZIEREN,,Stimuli/252.jpg,,Trials/StimuliNegative.xlsx,24,Nehmen Sie die Position eines uninvolvierten Beobachters ein. Denken Sie über das Bild in einer neutralen Weise nach.,,,,,,,,,0,2,2,1,0,16,16,1,,,,,3.6,,,,,,,,1279.4097885658848,6.001369182718918,None,,,,,,,,,,B09N05,2022-11-17_16h55.10.515,t2_paradigm,2021.1.4,59.974526306718744,
4,,1,DISTANZIEREN,,Stimuli/2800.jpg,,Trials/StimuliNegative.xlsx,24,Nehmen Sie die Position eines uninvolvierten Beobachters ein. Denken Sie über das Bild in einer neutralen Weise nach.,,,,,,,,,0,2,2,1,0,17,17,3,,,,,3.1,,,,,,,,1288.550977034436,6.003159097221214,None,,,,,,,,,,B09N05,2022-11-17_16h55.10.515,t2_paradigm,2021.1.4,59.974526306718744,
4,,1,DISTANZIEREN,,Stimuli/6838.jpg,,Trials/StimuliNegative.xlsx,24,Nehmen Sie die Position eines uninvolvierten Beobachters ein. Denken Sie über das Bild in einer neutralen Weise nach.,,,,,,,,,0,2,2,1,0,18,18,7,,,,,3.4,,,,,,,,1297.9908417458646,6.008017321990337,None,,,,,,,,,,B09N05,2022-11-17_16h55.10.515,t2_paradigm,2021.1.4,59.974526306718744,
4,,1,DISTANZIEREN,,Stimuli/9120.jpg,,Trials/StimuliNegative.xlsx,24,Nehmen Sie die Position eines uninvolvierten Beobachters ein. Denken Sie über das Bild in einer neutralen Weise nach.,,,,,,,,,0,2,2,1,0,19,19,8,,,,,4.4,,,,,,,,1308.4332523415214,6.004154866444878,None,,,,,,,,,,B09N05,2022-11-17_16h55.10.515,t2_paradigm,2021.1.4,59.974526306718744,
4,,1,DISTANZIEREN,,,,Trials/StimuliNegative.xlsx,24,Nehmen Sie die Position eines uninvolvierten Beobachters ein. Denken Sie über das Bild in einer neutralen Weise nach.,,,,,,,,,0,2,2,1,,,,,,,,,,,,,203.70370370370372,12.610303581343032,80.74074074074073,7.384271978458855,,,,116.66666666666666,2.6180387579952367,,,,,,,,B09N05,2022-11-17_16h55.10.515,t2_paradigm,2021.1.4,59.974526306718744,
,,,,,,,,,,,,,,,,,,,,,,,,,,,,,,,,,,,,,,,,,,,1,16.271056157012936,,,,,,B09N05,2022-11-17_16h55.10.515,t2_paradigm,2021.1.4,59.974526306718744,
,,,,,,,,,,,,,,,,,,,,,,,,,,,,,,,,,,,,,,,,,,,,,space,1.64270586182829,,,,B09N05,2022-11-17_16h55.10.515,t2_paradigm,2021.1.4,59.974526306718744,
,,,,,Stimuli/253.jpg,,,,,,,,,,,,,,,,,,,,,0,0,0,3,3.3,,,,,,,,,,,,,,,,,1548.7839219194138,6.003921322640963,None,B09N05,2022-11-17_16h55.10.515,t2_paradigm,2021.1.4,59.974526306718744,
,,,,,Stimuli/9340.jpg,,,,,,,,,,,,,,,,,,,,,0,1,1,16,3.9,,,,,,,,,,,,,,,,,1558.7289804143948,6.014072619203944,None,B09N05,2022-11-17_16h55.10.515,t2_paradigm,2021.1.4,59.974526306718744,
,,,,,Stimuli/208.jpg,,,,,,,,,,,,,,,,,,,,,0,2,2,0,3.7,,,,,,,,,,,,,,,,,1568.4771941891522,6.016456498589832,None,B09N05,2022-11-17_16h55.10.515,t2_paradigm,2021.1.4,59.974526306718744,
,,,,,Stimuli/9409.jpg,,,,,,,,,,,,,,,,,,,,,0,3,3,17,4.5,,,,,,,,,,,,,,,,,1579.0191695207614,6.000567979877815,None,B09N05,2022-11-17_16h55.10.515,t2_paradigm,2021.1.4,59.974526306718744,
,,,,,Stimuli/8230.jpg,,,,,,,,,,,,,,,,,,,,,0,4,4,13,3.6,,,,,,,,,,,,,,,,,1588.6468490190455,6.010107988375239,None,B09N05,2022-11-17_16h55.10.515,t2_paradigm,2021.1.4,59.974526306718744,
,,,,,Stimuli/9140.jpg,,,,,,,,,,,,,,,,,,,,,0,5,5,15,4.7,,,,,,,,,,,,,,,,,1599.3866709354916,5.998734917433467,None,B09N05,2022-11-17_16h55.10.515,t2_paradigm,2021.1.4,59.974526306718744,
,,,,,Stimuli/3350.jpg,,,,,,,,,,,,,,,,,,,,,0,6,6,7,3.1,,,,,,,,,,,,,,,,,1608.5137293612352,6.010730344103649,None,B09N05,2022-11-17_16h55.10.515,t2_paradigm,2021.1.4,59.974526306718744,
,,,,,Stimuli/226.jpg,,,,,,,,,,,,,,,,,,,,,0,7,7,2,4.5,,,,,,,,,,,,,,,,,1619.0504951899056,6.003114826511592,None,B09N05,2022-11-17_16h55.10.515,t2_paradigm,2021.1.4,59.974526306718744,
,,,,,Stimuli/6242.jpg,,,,,,,,,,,,,,,,,,,,,0,8,8,8,4.6,,,,,,,,,,,,,,,,,1629.693256229686,6.001060731650796,None,B09N05,2022-11-17_16h55.10.515,t2_paradigm,2021.1.4,59.974526306718744,
,,,,,Stimuli/1301.jpg,,,,,,,,,,,,,,,,,,,,,0,9,9,6,3.1,,,,,,,,,,,,,,,,,1638.828570814454,6.014455496449955,None,B09N05,2022-11-17_16h55.10.515,t2_paradigm,2021.1.4,59.974526306718744,
,,,,,Stimuli/326.jpg,,,,,,,,,,,,,,,,,,,,,0,10,10,5,4.7,,,,,,,,,,,,,,,,,1649.570536650368,5.997245434031356,None,B09N05,2022-11-17_16h55.10.515,t2_paradigm,2021.1.4,59.974526306718744,
,,,,,Stimuli/6940.jpg,,,,,,,,,,,,,,,,,,,,,0,11,11,12,4.0,,,,,,,,,,,,,,,,,1659.6070997322095,6.009189211530611,None,B09N05,2022-11-17_16h55.10.515,t2_paradigm,2021.1.4,59.974526306718744,
,,,,,Stimuli/6825.jpg,,,,,,,,,,,,,,,,,,,,,0,12,12,11,3.0,,,,,,,,,,,,,,,,,1668.6587016888661,6.003767337708268,None,B09N05,2022-11-17_16h55.10.515,t2_paradigm,2021.1.4,59.974526306718744,
,,,,,Stimuli/219.jpg,,,,,,,,,,,,,,,,,,,,,0,13,13,1,4.0,,,,,,,,,,,,,,,,,1678.6921228363644,6.002570265321992,None,B09N05,2022-11-17_16h55.10.515,t2_paradigm,2021.1.4,59.974526306718744,
,,,,,Stimuli/9570.jpg,,,,,,,,,,,,,,,,,,,,,0,14,14,18,4.7,,,,,,,,,,,,,,,,,1689.4395031676395,6.0097563894232735,None,B09N05,2022-11-17_16h55.10.515,t2_paradigm,2021.1.4,59.974526306718744,
,,,,,Stimuli/9800.jpg,,,,,,,,,,,,,,,,,,,,,0,15,15,19,3.3,,,,,,,,,,,,,,,,,1698.7892475526314,6.009639617463108,None,B09N05,2022-11-17_16h55.10.515,t2_paradigm,2021.1.4,59.974526306718744,
,,,,,Stimuli/254.jpg,,,,,,,,,,,,,,,,,,,,,0,16,16,4,4.7,,,,,,,,,,,,,,,,,1709.5298990628798,6.011062694946304,None,B09N05,2022-11-17_16h55.10.515,t2_paradigm,2021.1.4,59.974526306718744,
,,,,,Stimuli/9041.jpg,,,,,,,,,,,,,,,,,,,,,0,17,17,14,3.6,,,,,,,,,,,,,,,,,1719.1691069002263,5.999785223044455,None,B09N05,2022-11-17_16h55.10.515,t2_paradigm,2021.1.4,59.974526306718744,
,,,,,Stimuli/6410.jpg,,,,,,,,,,,,,,,,,,,,,0,18,18,9,4.5,,,,,,,,,,,,,,,,,1729.7006645092042,6.003214275173377,None,B09N05,2022-11-17_16h55.10.515,t2_paradigm,2021.1.4,59.974526306718744,
,,,,,Stimuli/6555.jpg,,,,,,,,,,,,,,,,,,,,,0,19,19,10,4.3,,,,,,,,,,,,,,,,,1740.0272495595273,6.01549361157231,None,B09N05,2022-11-17_16h55.10.515,t2_paradigm,2021.1.4,59.974526306718744,
,,,,,,,,,,,,,,,,,,,,,,,,,,,,,,,,,,178.14814814814815,6.110590057447553,233.7037037037037,9.397736998856999,,,,198.5185185185185,4.101689407252707,,,,,,,,B09N05,2022-11-17_16h55.10.515,t2_paradigm,2021.1.4,59.974526306718744,
