Block,conds_view_File,n_reps,instr_1,TriggerBlockView,ImageFile,Trigger,conds_reg_File,TriggerBlockReg,instr_2,blocks_view.thisRepN,blocks_view.thisTrialN,blocks_view.thisN,blocks_view.thisIndex,trials_view.thisRepN,trials_view.thisTrialN,trials_view.thisN,trials_view.thisIndex,blocks_reg.thisRepN,blocks_reg.thisTrialN,blocks_reg.thisN,blocks_reg.thisIndex,trials_reg.thisRepN,trials_reg.thisTrialN,trials_reg.thisN,trials_reg.thisIndex,trials_choice.thisRepN,trials_choice.thisTrialN,trials_choice.thisN,trials_choice.thisIndex,Fix_jitter,image_view.started,image_view.lasted,image_view.stopped,slider_arousal.response,slider_arousal.rt,slider_effort.response,slider_effort.rt,image_reg.started,image_reg.lasted,image_reg.stopped,slider_utility.response,slider_utility.rt,resp_choice.keys,resp_choice.rt,key_resp.keys,key_resp.rt,image.started,image.lased,image.stopped,participant,date,expName,psychopyVersion,frameRate,
,,,,,,,,,,,,,,,,,,,,,,,,,,,,,,,,,,,,,,,,,,,,,,,,,,B21L11,2022-11-24_12h41.47.649,t2_paradigm,2021.1.4,60.072961894320485,
1,Trials/StimuliNeutral.xlsx,1,ANSCHAUEN,21,Stimuli/7224.jpg,1,,,,0,0,0,0,0,0,0,17,,,,,,,,,,,,,4.2,92.59691895782998,6.0263844832115865,None,,,,,,,,,,,,,,,,,B21L11,2022-11-24_12h41.47.649,t2_paradigm,2021.1.4,60.072961894320485,
1,Trials/StimuliNeutral.xlsx,1,ANSCHAUEN,21,Stimuli/7004.jpg,1,,,,0,0,0,0,0,1,1,7,,,,,,,,,,,,,3.6,102.22730200770275,6.0016178021742235,None,,,,,,,,,,,,,,,,,B21L11,2022-11-24_12h41.47.649,t2_paradigm,2021.1.4,60.072961894320485,
1,Trials/StimuliNeutral.xlsx,1,ANSCHAUEN,21,Stimuli/7185.jpg,1,,,,0,0,0,0,0,2,2,15,,,,,,,,,,,,,3.9,112.15699995380419,6.004958308629284,None,,,,,,,,,,,,,,,,,B21L11,2022-11-24_12h41.47.649,t2_paradigm,2021.1.4,60.072961894320485,
1,Trials/StimuliNeutral.xlsx,1,ANSCHAUEN,21,Stimuli/7211.jpg,1,,,,0,0,0,0,0,3,3,16,,,,,,,,,,,,,4.9,123.09147816368022,6.01550546132421,None,,,,,,,,,,,,,,,,,B21L11,2022-11-24_12h41.47.649,t2_paradigm,2021.1.4,60.072961894320485,
1,Trials/StimuliNeutral.xlsx,1,ANSCHAUEN,21,Stimuli/7006.jpg,1,,,,0,0,0,0,0,4,4,8,,,,,,,,,,,,,4.8,133.9397781721491,6.01495336186963,None,,,,,,,,,,,,,,,,,B21L11,2022-11-24_12h41.47.649,t2_paradigm,2021.1.4,60.072961894320485,
1,Trials/StimuliNeutral.xlsx,1,ANSCHAUEN,21,Stimuli/140.jpg,1,,,,0,0,0,0,0,5,5,3,,,,,,,,,,,,,4.5,144.49594506850917,5.998357977307023,None,,,,,,,,,,,,,,,,,B21L11,2022-11-24_12h41.47.649,t2_paradigm,2021.1.4,60.072961894320485,
1,Trials/StimuliNeutral.xlsx,1,ANSCHAUEN,21,Stimuli/107.jpg,1,,,,0,0,0,0,0,6,6,1,,,,,,,,,,,,,4.6,155.11615389748113,6.0045252265481395,None,,,,,,,,,,,,,,,,,B21L11,2022-11-24_12h41.47.649,t2_paradigm,2021.1.4,60.072961894320485,
1,Trials/StimuliNeutral.xlsx,1,ANSCHAUEN,21,Stimuli/7021.jpg,1,,,,0,0,0,0,0,7,7,10,,,,,,,,,,,,,4.4,165.58170301989594,6.003547583852196,None,,,,,,,,,,,,,,,,,B21L11,2022-11-24_12h41.47.649,t2_paradigm,2021.1.4,60.072961894320485,
1,Trials/StimuliNeutral.xlsx,1,ANSCHAUEN,21,Stimuli/7025.jpg,1,,,,0,0,0,0,0,8,8,11,,,,,,,,,,,,,3.3,174.9121006983205,6.005050699473941,None,,,,,,,,,,,,,,,,,B21L11,2022-11-24_12h41.47.649,t2_paradigm,2021.1.4,60.072961894320485,
1,Trials/StimuliNeutral.xlsx,1,ANSCHAUEN,21,Stimuli/7000.jpg,1,,,,0,0,0,0,0,9,9,5,,,,,,,,,,,,,4.6,185.5556385362197,5.999494256369871,None,,,,,,,,,,,,,,,,,B21L11,2022-11-24_12h41.47.649,t2_paradigm,2021.1.4,60.072961894320485,
1,Trials/StimuliNeutral.xlsx,1,ANSCHAUEN,21,Stimuli/083.jpg,1,,,,0,0,0,0,0,10,10,0,,,,,,,,,,,,,4.9,196.49302449127208,6.003811763919657,None,,,,,,,,,,,,,,,,,B21L11,2022-11-24_12h41.47.649,t2_paradigm,2021.1.4,60.072961894320485,
1,Trials/StimuliNeutral.xlsx,1,ANSCHAUEN,21,Stimuli/7235.jpg,1,,,,0,0,0,0,0,11,11,19,,,,,,,,,,,,,4.4,206.93745011535975,6.011185868563189,None,,,,,,,,,,,,,,,,,B21L11,2022-11-24_12h41.47.649,t2_paradigm,2021.1.4,60.072961894320485,
1,Trials/StimuliNeutral.xlsx,1,ANSCHAUEN,21,Stimuli/7233.jpg,1,,,,0,0,0,0,0,12,12,18,,,,,,,,,,,,,3.5,216.4902617483931,6.003641418301413,None,,,,,,,,,,,,,,,,,B21L11,2022-11-24_12h41.47.649,t2_paradigm,2021.1.4,60.072961894320485,
1,Trials/StimuliNeutral.xlsx,1,ANSCHAUEN,21,Stimuli/143.jpg,1,,,,0,0,0,0,0,13,13,4,,,,,,,,,,,,,3.5,226.02132752810758,6.003293990230304,None,,,,,,,,,,,,,,,,,B21L11,2022-11-24_12h41.47.649,t2_paradigm,2021.1.4,60.072961894320485,
1,Trials/StimuliNeutral.xlsx,1,ANSCHAUEN,21,Stimuli/7002.jpg,1,,,,0,0,0,0,0,14,14,6,,,,,,,,,,,,,3.4,235.4633285341406,6.001045331822752,None,,,,,,,,,,,,,,,,,B21L11,2022-11-24_12h41.47.649,t2_paradigm,2021.1.4,60.072961894320485,
1,Trials/StimuliNeutral.xlsx,1,ANSCHAUEN,21,Stimuli/7100.jpg,1,,,,0,0,0,0,0,15,15,13,,,,,,,,,,,,,3.7,245.18566838359584,6.002914802809755,None,,,,,,,,,,,,,,,,,B21L11,2022-11-24_12h41.47.649,t2_paradigm,2021.1.4,60.072961894320485,
1,Trials/StimuliNeutral.xlsx,1,ANSCHAUEN,21,Stimuli/124.jpg,1,,,,0,0,0,0,0,16,16,2,,,,,,,,,,,,,4.1,255.33607073289022,6.014368219859534,None,,,,,,,,,,,,,,,,,B21L11,2022-11-24_12h41.47.649,t2_paradigm,2021.1.4,60.072961894320485,
1,Trials/StimuliNeutral.xlsx,1,ANSCHAUEN,21,Stimuli/7041.jpg,1,,,,0,0,0,0,0,17,17,12,,,,,,,,,,,,,4.3,265.6813635477047,6.00676426091195,None,,,,,,,,,,,,,,,,,B21L11,2022-11-24_12h41.47.649,t2_paradigm,2021.1.4,60.072961894320485,
1,Trials/StimuliNeutral.xlsx,1,ANSCHAUEN,21,Stimuli/7150.jpg,1,,,,0,0,0,0,0,18,18,14,,,,,,,,,,,,,4.3,276.03364213689747,6.012556974352265,None,,,,,,,,,,,,,,,,,B21L11,2022-11-24_12h41.47.649,t2_paradigm,2021.1.4,60.072961894320485,
1,Trials/StimuliNeutral.xlsx,1,ANSCHAUEN,21,Stimuli/7009.jpg,1,,,,0,0,0,0,0,19,19,9,,,,,,,,,,,,,4.5,286.56694518656514,6.009143325147306,None,,,,,,,,,,,,,,,,,B21L11,2022-11-24_12h41.47.649,t2_paradigm,2021.1.4,60.072961894320485,
1,Trials/StimuliNeutral.xlsx,1,ANSCHAUEN,21,,,,,,0,0,0,0,,,,,,,,,,,,,,,,,,,,,3.6666666666666625,4.9848527135964105,4.0000000000000036,4.439012098067906,,,,,,,,,,,,,B21L11,2022-11-24_12h41.47.649,t2_paradigm,2021.1.4,60.072961894320485,
2,Trials/StimuliNegative.xlsx,1,ANSCHAUEN,22,Stimuli/9421.jpg,,,,,0,1,1,1,0,0,0,17,,,,,,,,,,,,,3.8,313.6651043631573,6.004450960992472,None,,,,,,,,,,,,,,,,,B21L11,2022-11-24_12h41.47.649,t2_paradigm,2021.1.4,60.072961894320485,
2,Trials/StimuliNegative.xlsx,1,ANSCHAUEN,22,Stimuli/6838.jpg,,,,,0,1,1,1,0,1,1,7,,,,,,,,,,,,,3.7,323.388763990155,6.003523684134052,None,,,,,,,,,,,,,,,,,B21L11,2022-11-24_12h41.47.649,t2_paradigm,2021.1.4,60.072961894320485,
2,Trials/StimuliNegative.xlsx,1,ANSCHAUEN,22,Stimuli/227.jpg,,,,,0,1,1,1,0,2,2,0,,,,,,,,,,,,,3.4,332.8219763171455,5.9995441410083,None,,,,,,,,,,,,,,,,,B21L11,2022-11-24_12h41.47.649,t2_paradigm,2021.1.4,60.072961894320485,
2,Trials/StimuliNegative.xlsx,1,ANSCHAUEN,22,Stimuli/9120.jpg,,,,,0,1,1,1,0,3,3,8,,,,,,,,,,,,,3.0,341.8538890129312,6.000230335506785,None,,,,,,,,,,,,,,,,,B21L11,2022-11-24_12h41.47.649,t2_paradigm,2021.1.4,60.072961894320485,
2,Trials/StimuliNegative.xlsx,1,ANSCHAUEN,22,Stimuli/9420.jpg,,,,,0,1,1,1,0,4,4,16,,,,,,,,,,,,,4.0,351.90449930578507,6.011740855232347,None,,,,,,,,,,,,,,,,,B21L11,2022-11-24_12h41.47.649,t2_paradigm,2021.1.4,60.072961894320485,
2,Trials/StimuliNegative.xlsx,1,ANSCHAUEN,22,Stimuli/9411.jpg,,,,,0,1,1,1,0,5,5,15,,,,,,,,,,,,,4.0,361.93137862537696,6.0041162045836245,None,,,,,,,,,,,,,,,,,B21L11,2022-11-24_12h41.47.649,t2_paradigm,2021.1.4,60.072961894320485,
2,Trials/StimuliNegative.xlsx,1,ANSCHAUEN,22,Stimuli/6561.jpg,,,,,0,1,1,1,0,6,6,6,,,,,,,,,,,,,4.8,372.7685872413367,6.009757339295902,None,,,,,,,,,,,,,,,,,B21L11,2022-11-24_12h41.47.649,t2_paradigm,2021.1.4,60.072961894320485,
2,Trials/StimuliNegative.xlsx,1,ANSCHAUEN,22,Stimuli/9230.jpg,,,,,0,1,1,1,0,7,7,11,,,,,,,,,,,,,4.0,382.8112817561432,6.004331783218731,None,,,,,,,,,,,,,,,,,B21L11,2022-11-24_12h41.47.649,t2_paradigm,2021.1.4,60.072961894320485,
2,Trials/StimuliNegative.xlsx,1,ANSCHAUEN,22,Stimuli/1051.jpg,,,,,0,1,1,1,0,8,8,2,,,,,,,,,,,,,4.7,393.557260829617,6.0073957587464974,None,,,,,,,,,,,,,,,,,B21L11,2022-11-24_12h41.47.649,t2_paradigm,2021.1.4,60.072961894320485,
2,Trials/StimuliNegative.xlsx,1,ANSCHAUEN,22,Stimuli/9181.jpg,,,,,0,1,1,1,0,9,9,9,,,,,,,,,,,,,4.5,404.11269597766113,6.012079942460332,None,,,,,,,,,,,,,,,,,B21L11,2022-11-24_12h41.47.649,t2_paradigm,2021.1.4,60.072961894320485,
2,Trials/StimuliNegative.xlsx,1,ANSCHAUEN,22,Stimuli/2800.jpg,,,,,0,1,1,1,0,10,10,3,,,,,,,,,,,,,3.9,414.0593996134976,6.014327157261505,None,,,,,,,,,,,,,,,,,B21L11,2022-11-24_12h41.47.649,t2_paradigm,2021.1.4,60.072961894320485,
2,Trials/StimuliNegative.xlsx,1,ANSCHAUEN,22,Stimuli/9332.jpg,,,,,0,1,1,1,0,11,11,14,,,,,,,,,,,,,3.2,423.2924709161307,6.013611128220873,None,,,,,,,,,,,,,,,,,B21L11,2022-11-24_12h41.47.649,t2_paradigm,2021.1.4,60.072961894320485,
2,Trials/StimuliNegative.xlsx,1,ANSCHAUEN,22,Stimuli/9295.jpg,,,,,0,1,1,1,0,12,12,13,,,,,,,,,,,,,3.5,432.8436647469898,6.007376991854471,None,,,,,,,,,,,,,,,,,B21L11,2022-11-24_12h41.47.649,t2_paradigm,2021.1.4,60.072961894320485,
2,Trials/StimuliNegative.xlsx,1,ANSCHAUEN,22,Stimuli/252.jpg,,,,,0,1,1,1,0,13,13,1,,,,,,,,,,,,,4.9,443.7843276897911,6.003292386225439,None,,,,,,,,,,,,,,,,,B21L11,2022-11-24_12h41.47.649,t2_paradigm,2021.1.4,60.072961894320485,
2,Trials/StimuliNegative.xlsx,1,ANSCHAUEN,22,Stimuli/9599.jpg,,,,,0,1,1,1,0,14,14,18,,,,,,,,,,,,,4.2,454.034885563673,6.000198736555831,None,,,,,,,,,,,,,,,,,B21L11,2022-11-24_12h41.47.649,t2_paradigm,2021.1.4,60.072961894320485,
2,Trials/StimuliNegative.xlsx,1,ANSCHAUEN,22,Stimuli/3061.jpg,,,,,0,1,1,1,0,15,15,4,,,,,,,,,,,,,3.7,463.76553802268063,6.0016880577113625,None,,,,,,,,,,,,,,,,,B21L11,2022-11-24_12h41.47.649,t2_paradigm,2021.1.4,60.072961894320485,
2,Trials/StimuliNegative.xlsx,1,ANSCHAUEN,22,Stimuli/9185.jpg,,,,,0,1,1,1,0,16,16,10,,,,,,,,,,,,,4.1,473.9197521358965,6.008637421113235,None,,,,,,,,,,,,,,,,,B21L11,2022-11-24_12h41.47.649,t2_paradigm,2021.1.4,60.072961894320485,
2,Trials/StimuliNegative.xlsx,1,ANSCHAUEN,22,Stimuli/3230.jpg,,,,,0,1,1,1,0,17,17,5,,,,,,,,,,,,,3.3,483.24534132000736,6.003158611980325,None,,,,,,,,,,,,,,,,,B21L11,2022-11-24_12h41.47.649,t2_paradigm,2021.1.4,60.072961894320485,
2,Trials/StimuliNegative.xlsx,1,ANSCHAUEN,22,Stimuli/9905.jpg,,,,,0,1,1,1,0,18,18,19,,,,,,,,,,,,,4.0,493.29648093540527,6.01423925763811,None,,,,,,,,,,,,,,,,,B21L11,2022-11-24_12h41.47.649,t2_paradigm,2021.1.4,60.072961894320485,
2,Trials/StimuliNegative.xlsx,1,ANSCHAUEN,22,Stimuli/9254.jpg,,,,,0,1,1,1,0,19,19,12,,,,,,,,,,,,,4.5,503.8537863564379,6.012568523208756,None,,,,,,,,,,,,,,,,,B21L11,2022-11-24_12h41.47.649,t2_paradigm,2021.1.4,60.072961894320485,
2,Trials/StimuliNegative.xlsx,1,ANSCHAUEN,22,,,,,,0,1,1,1,,,,,,,,,,,,,,,,,,,,,139.66666666666666,5.08640853691395,4.0000000000000036,5.02545592315073,,,,,,,,,,,,,B21L11,2022-11-24_12h41.47.649,t2_paradigm,2021.1.4,60.072961894320485,
5,,1,UNTERDRÜCKEN,,Stimuli/6831.jpg,,Trials/StimuliNegative.xlsx,25,"Unterdrücken Sie alle aufkommenden Emotionen. Wenn Sie also die Bilder ansehen, verhalten Sie sich so, dass eine außenstehende Person nicht sehen kann, welche Emotionen Sie gerade empfinden.",,,,,,,,,0,0,0,2,0,0,0,12,,,,,3.4,,,,,,,,543.2962663191738,6.013830556474204,None,,,,,,,,,,B21L11,2022-11-24_12h41.47.649,t2_paradigm,2021.1.4,60.072961894320485,
5,,1,UNTERDRÜCKEN,,Stimuli/6020.jpg,,Trials/StimuliNegative.xlsx,25,"Unterdrücken Sie alle aufkommenden Emotionen. Wenn Sie also die Bilder ansehen, verhalten Sie sich so, dass eine außenstehende Person nicht sehen kann, welche Emotionen Sie gerade empfinden.",,,,,,,,,0,0,0,2,0,1,1,10,,,,,3.1,,,,,,,,552.4332097605784,6.003707503419719,None,,,,,,,,,,B21L11,2022-11-24_12h41.47.649,t2_paradigm,2021.1.4,60.072961894320485,
5,,1,UNTERDRÜCKEN,,Stimuli/9402.jpg,,Trials/StimuliNegative.xlsx,25,"Unterdrücken Sie alle aufkommenden Emotionen. Wenn Sie also die Bilder ansehen, verhalten Sie sich so, dass eine außenstehende Person nicht sehen kann, welche Emotionen Sie gerade empfinden.",,,,,,,,,0,0,0,2,0,2,2,16,,,,,4.2,,,,,,,,562.6883127507062,6.006805323506342,None,,,,,,,,,,B21L11,2022-11-24_12h41.47.649,t2_paradigm,2021.1.4,60.072961894320485,
5,,1,UNTERDRÜCKEN,,Stimuli/223.jpg,,Trials/StimuliNegative.xlsx,25,"Unterdrücken Sie alle aufkommenden Emotionen. Wenn Sie also die Bilder ansehen, verhalten Sie sich so, dass eine außenstehende Person nicht sehen kann, welche Emotionen Sie gerade empfinden.",,,,,,,,,0,0,0,2,0,3,3,0,,,,,4.5,,,,,,,,573.2356030684023,6.007230385550429,None,,,,,,,,,,B21L11,2022-11-24_12h41.47.649,t2_paradigm,2021.1.4,60.072961894320485,
5,,1,UNTERDRÜCKEN,,Stimuli/9403.jpg,,Trials/StimuliNegative.xlsx,25,"Unterdrücken Sie alle aufkommenden Emotionen. Wenn Sie also die Bilder ansehen, verhalten Sie sich so, dass eine außenstehende Person nicht sehen kann, welche Emotionen Sie gerade empfinden.",,,,,,,,,0,0,0,2,0,4,4,17,,,,,4.5,,,,,,,,583.7944983818761,6.004086851242391,None,,,,,,,,,,B21L11,2022-11-24_12h41.47.649,t2_paradigm,2021.1.4,60.072961894320485,
5,,1,UNTERDRÜCKEN,,Stimuli/245.jpg,,Trials/StimuliNegative.xlsx,25,"Unterdrücken Sie alle aufkommenden Emotionen. Wenn Sie also die Bilder ansehen, verhalten Sie sich so, dass eine außenstehende Person nicht sehen kann, welche Emotionen Sie gerade empfinden.",,,,,,,,,0,0,0,2,0,5,5,2,,,,,4.8,,,,,,,,594.6402537925151,6.007813121552317,None,,,,,,,,,,B21L11,2022-11-24_12h41.47.649,t2_paradigm,2021.1.4,60.072961894320485,
5,,1,UNTERDRÜCKEN,,Stimuli/3181.jpg,,Trials/StimuliNegative.xlsx,25,"Unterdrücken Sie alle aufkommenden Emotionen. Wenn Sie also die Bilder ansehen, verhalten Sie sich so, dass eine außenstehende Person nicht sehen kann, welche Emotionen Sie gerade empfinden.",,,,,,,,,0,0,0,2,0,6,6,6,,,,,4.4,,,,,,,,605.1012757635708,6.000295939422358,None,,,,,,,,,,B21L11,2022-11-24_12h41.47.649,t2_paradigm,2021.1.4,60.072961894320485,
5,,1,UNTERDRÜCKEN,,Stimuli/238.jpg,,Trials/StimuliNegative.xlsx,25,"Unterdrücken Sie alle aufkommenden Emotionen. Wenn Sie also die Bilder ansehen, verhalten Sie sich so, dass eine außenstehende Person nicht sehen kann, welche Emotionen Sie gerade empfinden.",,,,,,,,,0,0,0,2,0,7,7,1,,,,,4.5,,,,,,,,615.6414282469595,6.015279937841115,None,,,,,,,,,,B21L11,2022-11-24_12h41.47.649,t2_paradigm,2021.1.4,60.072961894320485,
5,,1,UNTERDRÜCKEN,,Stimuli/9373.jpg,,Trials/StimuliNegative.xlsx,25,"Unterdrücken Sie alle aufkommenden Emotionen. Wenn Sie also die Bilder ansehen, verhalten Sie sich so, dass eine außenstehende Person nicht sehen kann, welche Emotionen Sie gerade empfinden.",,,,,,,,,0,0,0,2,0,8,8,14,,,,,4.7,,,,,,,,626.4051781218477,6.001918553620271,None,,,,,,,,,,B21L11,2022-11-24_12h41.47.649,t2_paradigm,2021.1.4,60.072961894320485,
5,,1,UNTERDRÜCKEN,,Stimuli/3215.jpg,,Trials/StimuliNegative.xlsx,25,"Unterdrücken Sie alle aufkommenden Emotionen. Wenn Sie also die Bilder ansehen, verhalten Sie sich so, dass eine außenstehende Person nicht sehen kann, welche Emotionen Sie gerade empfinden.",,,,,,,,,0,0,0,2,0,9,9,7,,,,,3.2,,,,,,,,635.6507372661035,6.005756462865975,None,,,,,,,,,,B21L11,2022-11-24_12h41.47.649,t2_paradigm,2021.1.4,60.072961894320485,
5,,1,UNTERDRÜCKEN,,Stimuli/3225.jpg,,Trials/StimuliNegative.xlsx,25,"Unterdrücken Sie alle aufkommenden Emotionen. Wenn Sie also die Bilder ansehen, verhalten Sie sich so, dass eine außenstehende Person nicht sehen kann, welche Emotionen Sie gerade empfinden.",,,,,,,,,0,0,0,2,0,10,10,9,,,,,3.2,,,,,,,,644.8879895752325,6.012575901644595,None,,,,,,,,,,B21L11,2022-11-24_12h41.47.649,t2_paradigm,2021.1.4,60.072961894320485,
5,,1,UNTERDRÜCKEN,,Stimuli/3220.jpg,,Trials/StimuliNegative.xlsx,25,"Unterdrücken Sie alle aufkommenden Emotionen. Wenn Sie also die Bilder ansehen, verhalten Sie sich so, dass eine außenstehende Person nicht sehen kann, welche Emotionen Sie gerade empfinden.",,,,,,,,,0,0,0,2,0,11,11,8,,,,,4.7,,,,,,,,655.6233536464861,6.004303071482354,None,,,,,,,,,,B21L11,2022-11-24_12h41.47.649,t2_paradigm,2021.1.4,60.072961894320485,
5,,1,UNTERDRÜCKEN,,Stimuli/8231.jpg,,Trials/StimuliNegative.xlsx,25,"Unterdrücken Sie alle aufkommenden Emotionen. Wenn Sie also die Bilder ansehen, verhalten Sie sich so, dass eine außenstehende Person nicht sehen kann, welche Emotionen Sie gerade empfinden.",,,,,,,,,0,0,0,2,0,12,12,13,,,,,3.3,,,,,,,,664.9484256985124,6.0022937310259294,None,,,,,,,,,,B21L11,2022-11-24_12h41.47.649,t2_paradigm,2021.1.4,60.072961894320485,
5,,1,UNTERDRÜCKEN,,Stimuli/2981.jpg,,Trials/StimuliNegative.xlsx,25,"Unterdrücken Sie alle aufkommenden Emotionen. Wenn Sie also die Bilder ansehen, verhalten Sie sich so, dass eine außenstehende Person nicht sehen kann, welche Emotionen Sie gerade empfinden.",,,,,,,,,0,0,0,2,0,13,13,3,,,,,4.8,,,,,,,,675.8011280665414,6.010012376522354,None,,,,,,,,,,B21L11,2022-11-24_12h41.47.649,t2_paradigm,2021.1.4,60.072961894320485,
5,,1,UNTERDRÜCKEN,,Stimuli/9400.jpg,,Trials/StimuliNegative.xlsx,25,"Unterdrücken Sie alle aufkommenden Emotionen. Wenn Sie also die Bilder ansehen, verhalten Sie sich so, dass eine außenstehende Person nicht sehen kann, welche Emotionen Sie gerade empfinden.",,,,,,,,,0,0,0,2,0,14,14,15,,,,,4.0,,,,,,,,685.8349703836011,6.004915160825476,None,,,,,,,,,,B21L11,2022-11-24_12h41.47.649,t2_paradigm,2021.1.4,60.072961894320485,
5,,1,UNTERDRÜCKEN,,Stimuli/9423.jpg,,Trials/StimuliNegative.xlsx,25,"Unterdrücken Sie alle aufkommenden Emotionen. Wenn Sie also die Bilder ansehen, verhalten Sie sich so, dass eine außenstehende Person nicht sehen kann, welche Emotionen Sie gerade empfinden.",,,,,,,,,0,0,0,2,0,15,15,19,,,,,3.2,,,,,,,,695.0617603920437,6.0156819021722185,None,,,,,,,,,,B21L11,2022-11-24_12h41.47.649,t2_paradigm,2021.1.4,60.072961894320485,
5,,1,UNTERDRÜCKEN,,Stimuli/9405.jpg,,Trials/StimuliNegative.xlsx,25,"Unterdrücken Sie alle aufkommenden Emotionen. Wenn Sie also die Bilder ansehen, verhalten Sie sich so, dass eine außenstehende Person nicht sehen kann, welche Emotionen Sie gerade empfinden.",,,,,,,,,0,0,0,2,0,16,16,18,,,,,3.7,,,,,,,,704.7959836930149,6.01199364684544,None,,,,,,,,,,B21L11,2022-11-24_12h41.47.649,t2_paradigm,2021.1.4,60.072961894320485,
5,,1,UNTERDRÜCKEN,,Stimuli/3016.jpg,,Trials/StimuliNegative.xlsx,25,"Unterdrücken Sie alle aufkommenden Emotionen. Wenn Sie also die Bilder ansehen, verhalten Sie sich so, dass eine außenstehende Person nicht sehen kann, welche Emotionen Sie gerade empfinden.",,,,,,,,,0,0,0,2,0,17,17,4,,,,,3.9,,,,,,,,714.7385461017475,6.003562821922969,None,,,,,,,,,,B21L11,2022-11-24_12h41.47.649,t2_paradigm,2021.1.4,60.072961894320485,
5,,1,UNTERDRÜCKEN,,Stimuli/6571.jpg,,Trials/StimuliNegative.xlsx,25,"Unterdrücken Sie alle aufkommenden Emotionen. Wenn Sie also die Bilder ansehen, verhalten Sie sich so, dass eine außenstehende Person nicht sehen kann, welche Emotionen Sie gerade empfinden.",,,,,,,,,0,0,0,2,0,18,18,11,,,,,4.0,,,,,,,,724.7758415266035,6.009503906079772,None,,,,,,,,,,B21L11,2022-11-24_12h41.47.649,t2_paradigm,2021.1.4,60.072961894320485,
5,,1,UNTERDRÜCKEN,,Stimuli/3101.jpg,,Trials/StimuliNegative.xlsx,25,"Unterdrücken Sie alle aufkommenden Emotionen. Wenn Sie also die Bilder ansehen, verhalten Sie sich so, dass eine außenstehende Person nicht sehen kann, welche Emotionen Sie gerade empfinden.",,,,,,,,,0,0,0,2,0,19,19,5,,,,,3.6,,,,,,,,734.4015806533571,6.003790591019424,None,,,,,,,,,,B21L11,2022-11-24_12h41.47.649,t2_paradigm,2021.1.4,60.072961894320485,
5,,1,UNTERDRÜCKEN,,,,Trials/StimuliNegative.xlsx,25,"Unterdrücken Sie alle aufkommenden Emotionen. Wenn Sie also die Bilder ansehen, verhalten Sie sich so, dass eine außenstehende Person nicht sehen kann, welche Emotionen Sie gerade empfinden.",,,,,,,,,0,0,0,2,,,,,,,,,,,,,203.66666666666666,4.372943341315477,101.33333333333331,7.194137544303885,,,,244.66666666666669,6.62652444892592,,,,,,,,B21L11,2022-11-24_12h41.47.649,t2_paradigm,2021.1.4,60.072961894320485,
4,,1,DISTANZIEREN,,Stimuli/3301.jpg,,Trials/StimuliNegative.xlsx,24,Nehmen Sie die Position eines uninvolvierten Beobachters ein. Denken Sie über das Bild in einer neutralen Weise nach.,,,,,,,,,0,1,1,1,0,0,0,10,,,,,4.8,,,,,,,,776.8632686084129,6.015936618598062,None,,,,,,,,,,B21L11,2022-11-24_12h41.47.649,t2_paradigm,2021.1.4,60.072961894320485,
4,,1,DISTANZIEREN,,Stimuli/3051.jpg,,Trials/StimuliNegative.xlsx,24,Nehmen Sie die Position eines uninvolvierten Beobachters ein. Denken Sie über das Bild in einer neutralen Weise nach.,,,,,,,,,0,1,1,1,0,1,1,7,,,,,4.8,,,,,,,,787.7106046082499,6.00319021093128,None,,,,,,,,,,B21L11,2022-11-24_12h41.47.649,t2_paradigm,2021.1.4,60.072961894320485,
4,,1,DISTANZIEREN,,Stimuli/9904.jpg,,Trials/StimuliNegative.xlsx,24,Nehmen Sie die Position eines uninvolvierten Beobachters ein. Denken Sie über das Bild in einer neutralen Weise nach.,,,,,,,,,0,1,1,1,0,2,2,19,,,,,3.9,,,,,,,,797.667272339977,6.002245771194794,None,,,,,,,,,,B21L11,2022-11-24_12h41.47.649,t2_paradigm,2021.1.4,60.072961894320485,
4,,1,DISTANZIEREN,,Stimuli/246.jpg,,Trials/StimuliNegative.xlsx,24,Nehmen Sie die Position eines uninvolvierten Beobachters ein. Denken Sie über das Bild in einer neutralen Weise nach.,,,,,,,,,0,1,1,1,0,3,3,4,,,,,3.0,,,,,,,,806.6892555864379,6.004321517570133,None,,,,,,,,,,B21L11,2022-11-24_12h41.47.649,t2_paradigm,2021.1.4,60.072961894320485,
4,,1,DISTANZIEREN,,Stimuli/6562.jpg,,Trials/StimuliNegative.xlsx,24,Nehmen Sie die Position eines uninvolvierten Beobachters ein. Denken Sie über das Bild in einer neutralen Weise nach.,,,,,,,,,0,1,1,1,0,4,4,11,,,,,3.9,,,,,,,,816.6322520396552,6.000193924532141,None,,,,,,,,,,B21L11,2022-11-24_12h41.47.649,t2_paradigm,2021.1.4,60.072961894320485,
4,,1,DISTANZIEREN,,Stimuli/210.jpg,,Trials/StimuliNegative.xlsx,24,Nehmen Sie die Position eines uninvolvierten Beobachters ein. Denken Sie über das Bild in einer neutralen Weise nach.,,,,,,,,,0,1,1,1,0,5,5,0,,,,,3.3,,,,,,,,825.9490493367102,6.011708293872289,None,,,,,,,,,,B21L11,2022-11-24_12h41.47.649,t2_paradigm,2021.1.4,60.072961894320485,
4,,1,DISTANZIEREN,,Stimuli/251.jpg,,Trials/StimuliNegative.xlsx,24,Nehmen Sie die Position eines uninvolvierten Beobachters ein. Denken Sie über das Bild in einer neutralen Weise nach.,,,,,,,,,0,1,1,1,0,6,6,5,,,,,3.5,,,,,,,,835.49755966267,6.01191745648066,None,,,,,,,,,,B21L11,2022-11-24_12h41.47.649,t2_paradigm,2021.1.4,60.072961894320485,
4,,1,DISTANZIEREN,,Stimuli/9145.jpg,,Trials/StimuliNegative.xlsx,24,Nehmen Sie die Position eines uninvolvierten Beobachters ein. Denken Sie über das Bild in einer neutralen Weise nach.,,,,,,,,,0,1,1,1,0,7,7,16,,,,,4.9,,,,,,,,846.469057408076,6.015606674211085,None,,,,,,,,,,B21L11,2022-11-24_12h41.47.649,t2_paradigm,2021.1.4,60.072961894320485,
4,,1,DISTANZIEREN,,Stimuli/228.jpg,,Trials/StimuliNegative.xlsx,24,Nehmen Sie die Position eines uninvolvierten Beobachters ein. Denken Sie über das Bild in einer neutralen Weise nach.,,,,,,,,,0,1,1,1,0,8,8,3,,,,,4.4,,,,,,,,856.9011421176492,6.014717251935508,None,,,,,,,,,,B21L11,2022-11-24_12h41.47.649,t2_paradigm,2021.1.4,60.072961894320485,
4,,1,DISTANZIEREN,,Stimuli/3185.jpg,,Trials/StimuliNegative.xlsx,24,Nehmen Sie die Position eines uninvolvierten Beobachters ein. Denken Sie über das Bild in einer neutralen Weise nach.,,,,,,,,,0,1,1,1,0,9,9,9,,,,,4.6,,,,,,,,867.5548958806503,6.003201759787771,None,,,,,,,,,,B21L11,2022-11-24_12h41.47.649,t2_paradigm,2021.1.4,60.072961894320485,
4,,1,DISTANZIEREN,,Stimuli/9042.jpg,,Trials/StimuliNegative.xlsx,24,Nehmen Sie die Position eines uninvolvierten Beobachters ein. Denken Sie über das Bild in einer neutralen Weise nach.,,,,,,,,,0,1,1,1,0,10,10,14,,,,,4.5,,,,,,,,878.1010059694745,6.007846003711165,None,,,,,,,,,,B21L11,2022-11-24_12h41.47.649,t2_paradigm,2021.1.4,60.072961894320485,
4,,1,DISTANZIEREN,,Stimuli/9043.jpg,,Trials/StimuliNegative.xlsx,24,Nehmen Sie die Position eines uninvolvierten Beobachters ein. Denken Sie über das Bild in einer neutralen Weise nach.,,,,,,,,,0,1,1,1,0,11,11,15,,,,,3.3,,,,,,,,887.435572784736,6.0041211770058,None,,,,,,,,,,B21L11,2022-11-24_12h41.47.649,t2_paradigm,2021.1.4,60.072961894320485,
4,,1,DISTANZIEREN,,Stimuli/3160.jpg,,Trials/StimuliNegative.xlsx,24,Nehmen Sie die Position eines uninvolvierten Beobachters ein. Denken Sie über das Bild in einer neutralen Weise nach.,,,,,,,,,0,1,1,1,0,12,12,8,,,,,4.6,,,,,,,,898.082471018788,6.004825977996006,None,,,,,,,,,,B21L11,2022-11-24_12h41.47.649,t2_paradigm,2021.1.4,60.072961894320485,
4,,1,DISTANZIEREN,,Stimuli/2703.jpg,,Trials/StimuliNegative.xlsx,24,Nehmen Sie die Position eines uninvolvierten Beobachters ein. Denken Sie über das Bild in einer neutralen Weise nach.,,,,,,,,,0,1,1,1,0,13,13,6,,,,,4.2,,,,,,,,908.3088722157627,6.000219107450903,None,,,,,,,,,,B21L11,2022-11-24_12h41.47.649,t2_paradigm,2021.1.4,60.072961894320485,
4,,1,DISTANZIEREN,,Stimuli/9184.jpg,,Trials/StimuliNegative.xlsx,24,Nehmen Sie die Position eines uninvolvierten Beobachters ein. Denken Sie über das Bild in einer neutralen Weise nach.,,,,,,,,,0,1,1,1,0,14,14,18,,,,,4.4,,,,,,,,918.7631480511936,6.003250842424677,None,,,,,,,,,,B21L11,2022-11-24_12h41.47.649,t2_paradigm,2021.1.4,60.072961894320485,
4,,1,DISTANZIEREN,,Stimuli/9031.jpg,,Trials/StimuliNegative.xlsx,24,Nehmen Sie die Position eines uninvolvierten Beobachters ein. Denken Sie über das Bild in einer neutralen Weise nach.,,,,,,,,,0,1,1,1,0,15,15,12,,,,,4.0,,,,,,,,928.7907587983027,6.012692994208919,None,,,,,,,,,,B21L11,2022-11-24_12h41.47.649,t2_paradigm,2021.1.4,60.072961894320485,
4,,1,DISTANZIEREN,,Stimuli/9160.jpg,,Trials/StimuliNegative.xlsx,24,Nehmen Sie die Position eines uninvolvierten Beobachters ein. Denken Sie über das Bild in einer neutralen Weise nach.,,,,,,,,,0,1,1,1,0,16,16,17,,,,,3.3,,,,,,,,938.133708799458,6.005403581171777,None,,,,,,,,,,B21L11,2022-11-24_12h41.47.649,t2_paradigm,2021.1.4,60.072961894320485,
4,,1,DISTANZIEREN,,Stimuli/222.jpg,,Trials/StimuliNegative.xlsx,24,Nehmen Sie die Position eines uninvolvierten Beobachters ein. Denken Sie über das Bild in einer neutralen Weise nach.,,,,,,,,,0,1,1,1,0,17,17,2,,,,,4.8,,,,,,,,948.9818913945619,6.004292966232242,None,,,,,,,,,,B21L11,2022-11-24_12h41.47.649,t2_paradigm,2021.1.4,60.072961894320485,
4,,1,DISTANZIEREN,,Stimuli/9040.jpg,,Trials/StimuliNegative.xlsx,24,Nehmen Sie die Position eines uninvolvierten Beobachters ein. Denken Sie über das Bild in einer neutralen Weise nach.,,,,,,,,,0,1,1,1,0,18,18,13,,,,,3.5,,,,,,,,958.5404703977165,6.002592557661046,None,,,,,,,,,,B21L11,2022-11-24_12h41.47.649,t2_paradigm,2021.1.4,60.072961894320485,
4,,1,DISTANZIEREN,,Stimuli/218.jpg,,Trials/StimuliNegative.xlsx,24,Nehmen Sie die Position eines uninvolvierten Beobachters ein. Denken Sie über das Bild in einer neutralen Weise nach.,,,,,,,,,0,1,1,1,0,19,19,1,,,,,3.5,,,,,,,,968.0740679432001,6.013699188242754,None,,,,,,,,,,B21L11,2022-11-24_12h41.47.649,t2_paradigm,2021.1.4,60.072961894320485,
4,,1,DISTANZIEREN,,,,Trials/StimuliNegative.xlsx,24,Nehmen Sie die Position eines uninvolvierten Beobachters ein. Denken Sie über das Bild in einer neutralen Weise nach.,,,,,,,,,0,1,1,1,,,,,,,,,,,,,160.0,5.938486945944533,148.0,8.056245171937917,,,,300.3333333333333,4.970813154915959,,,,,,,,B21L11,2022-11-24_12h41.47.649,t2_paradigm,2021.1.4,60.072961894320485,
3,,1,ABLENKEN,,Stimuli/9326.jpg,,Trials/StimuliNegative.xlsx,23,"Denken Sie während des Betrachtens der Bilder an etwas Neutrales, das mit dem Bild nichts zu tun hat. Das könnten geometrische Figuren, Alltagstätigkeiten oder bekannte Orte sein.",,,,,,,,,0,2,2,0,0,0,0,16,,,,,3.1,,,,,,,,1008.3030862391533,6.0101269026727095,None,,,,,,,,,,B21L11,2022-11-24_12h41.47.649,t2_paradigm,2021.1.4,60.072961894320485,
3,,1,ABLENKEN,,Stimuli/9425.jpg,,Trials/StimuliNegative.xlsx,23,"Denken Sie während des Betrachtens der Bilder an etwas Neutrales, das mit dem Bild nichts zu tun hat. Das könnten geometrische Figuren, Alltagstätigkeiten oder bekannte Orte sein.",,,,,,,,,0,2,2,0,0,1,1,18,,,,,3.2,,,,,,,,1017.56071939104,6.008320789993377,None,,,,,,,,,,B21L11,2022-11-24_12h41.47.649,t2_paradigm,2021.1.4,60.072961894320485,
3,,1,ABLENKEN,,Stimuli/6190.jpg,,Trials/StimuliNegative.xlsx,23,"Denken Sie während des Betrachtens der Bilder an etwas Neutrales, das mit dem Bild nichts zu tun hat. Das könnten geometrische Figuren, Alltagstätigkeiten oder bekannte Orte sein.",,,,,,,,,0,2,2,0,0,2,2,9,,,,,4.7,,,,,,,,1028.2895596421386,6.013039139070315,None,,,,,,,,,,B21L11,2022-11-24_12h41.47.649,t2_paradigm,2021.1.4,60.072961894320485,
3,,1,ABLENKEN,,Stimuli/9253.jpg,,Trials/StimuliNegative.xlsx,23,"Denken Sie während des Betrachtens der Bilder an etwas Neutrales, das mit dem Bild nichts zu tun hat. Das könnten geometrische Figuren, Alltagstätigkeiten oder bekannte Orte sein.",,,,,,,,,0,2,2,0,0,3,3,14,,,,,3.7,,,,,,,,1038.0346828170987,6.004077387595316,None,,,,,,,,,,B21L11,2022-11-24_12h41.47.649,t2_paradigm,2021.1.4,60.072961894320485,
3,,1,ABLENKEN,,Stimuli/9424.jpg,,Trials/StimuliNegative.xlsx,23,"Denken Sie während des Betrachtens der Bilder an etwas Neutrales, das mit dem Bild nichts zu tun hat. Das könnten geometrische Figuren, Alltagstätigkeiten oder bekannte Orte sein.",,,,,,,,,0,2,2,0,0,4,4,17,,,,,4.2,,,,,,,,1048.2900665085745,6.0059535954133025,None,,,,,,,,,,B21L11,2022-11-24_12h41.47.649,t2_paradigm,2021.1.4,60.072961894320485,
3,,1,ABLENKEN,,Stimuli/9180.jpg,,Trials/StimuliNegative.xlsx,23,"Denken Sie während des Betrachtens der Bilder an etwas Neutrales, das mit dem Bild nichts zu tun hat. Das könnten geometrische Figuren, Alltagstätigkeiten oder bekannte Orte sein.",,,,,,,,,0,2,2,0,0,5,5,12,,,,,4.6,,,,,,,,1058.9343816486107,6.013953423464045,None,,,,,,,,,,B21L11,2022-11-24_12h41.47.649,t2_paradigm,2021.1.4,60.072961894320485,
3,,1,ABLENKEN,,Stimuli/327.jpg,,Trials/StimuliNegative.xlsx,23,"Denken Sie während des Betrachtens der Bilder an etwas Neutrales, das mit dem Bild nichts zu tun hat. Das könnten geometrische Figuren, Alltagstätigkeiten oder bekannte Orte sein.",,,,,,,,,0,2,2,0,0,6,6,3,,,,,3.2,,,,,,,,1068.1612675767155,6.005152714367796,None,,,,,,,,,,B21L11,2022-11-24_12h41.47.649,t2_paradigm,2021.1.4,60.072961894320485,
3,,1,ABLENKEN,,Stimuli/3280.jpg,,Trials/StimuliNegative.xlsx,23,"Denken Sie während des Betrachtens der Bilder an etwas Neutrales, das mit dem Bild nichts zu tun hat. Das könnten geometrische Figuren, Alltagstätigkeiten oder bekannte Orte sein.",,,,,,,,,0,2,2,0,0,7,7,8,,,,,3.3,,,,,,,,1077.51413740315,6.014363087033416,None,,,,,,,,,,B21L11,2022-11-24_12h41.47.649,t2_paradigm,2021.1.4,60.072961894320485,
3,,1,ABLENKEN,,Stimuli/255.jpg,,Trials/StimuliNegative.xlsx,23,"Denken Sie während des Betrachtens der Bilder an etwas Neutrales, das mit dem Bild nichts zu tun hat. Das könnten geometrische Figuren, Alltagstätigkeiten oder bekannte Orte sein.",,,,,,,,,0,2,2,0,0,8,8,2,,,,,4.3,,,,,,,,1087.8617313274244,6.015356288608018,None,,,,,,,,,,B21L11,2022-11-24_12h41.47.649,t2_paradigm,2021.1.4,60.072961894320485,
3,,1,ABLENKEN,,Stimuli/230.jpg,,Trials/StimuliNegative.xlsx,23,"Denken Sie während des Betrachtens der Bilder an etwas Neutrales, das mit dem Bild nichts zu tun hat. Das könnten geometrische Figuren, Alltagstätigkeiten oder bekannte Orte sein.",,,,,,,,,0,2,2,0,0,9,9,1,,,,,3.7,,,,,,,,1097.5873892272266,6.010410972441605,None,,,,,,,,,,B21L11,2022-11-24_12h41.47.649,t2_paradigm,2021.1.4,60.072961894320485,
3,,1,ABLENKEN,,Stimuli/3022.jpg,,Trials/StimuliNegative.xlsx,23,"Denken Sie während des Betrachtens der Bilder an etwas Neutrales, das mit dem Bild nichts zu tun hat. Das könnten geometrische Figuren, Alltagstätigkeiten oder bekannte Orte sein.",,,,,,,,,0,2,2,0,0,10,10,6,,,,,3.9,,,,,,,,1107.5323637427518,6.0019839971355395,None,,,,,,,,,,B21L11,2022-11-24_12h41.47.649,t2_paradigm,2021.1.4,60.072961894320485,
3,,1,ABLENKEN,,Stimuli/3017.jpg,,Trials/StimuliNegative.xlsx,23,"Denken Sie während des Betrachtens der Bilder an etwas Neutrales, das mit dem Bild nichts zu tun hat. Das könnten geometrische Figuren, Alltagstätigkeiten oder bekannte Orte sein.",,,,,,,,,0,2,2,0,0,11,11,5,,,,,3.4,,,,,,,,1116.9556969862606,6.000233543523791,None,,,,,,,,,,B21L11,2022-11-24_12h41.47.649,t2_paradigm,2021.1.4,60.072961894320485,
3,,1,ABLENKEN,,Stimuli/225.jpg,,Trials/StimuliNegative.xlsx,23,"Denken Sie während des Betrachtens der Bilder an etwas Neutrales, das mit dem Bild nichts zu tun hat. Das könnten geometrische Figuren, Alltagstätigkeiten oder bekannte Orte sein.",,,,,,,,,0,2,2,0,0,12,12,0,,,,,4.1,,,,,,,,1127.0855074053816,6.003450220583545,None,,,,,,,,,,B21L11,2022-11-24_12h41.47.649,t2_paradigm,2021.1.4,60.072961894320485,
3,,1,ABLENKEN,,Stimuli/9182.jpg,,Trials/StimuliNegative.xlsx,23,"Denken Sie während des Betrachtens der Bilder an etwas Neutrales, das mit dem Bild nichts zu tun hat. Das könnten geometrische Figuren, Alltagstätigkeiten oder bekannte Orte sein.",,,,,,,,,0,2,2,0,0,13,13,13,,,,,4.3,,,,,,,,1137.4335498102137,6.0057989690703835,None,,,,,,,,,,B21L11,2022-11-24_12h41.47.649,t2_paradigm,2021.1.4,60.072961894320485,
3,,1,ABLENKEN,,Stimuli/3180.jpg,,Trials/StimuliNegative.xlsx,23,"Denken Sie während des Betrachtens der Bilder an etwas Neutrales, das mit dem Bild nichts zu tun hat. Das könnten geometrische Figuren, Alltagstätigkeiten oder bekannte Orte sein.",,,,,,,,,0,2,2,0,0,14,14,7,,,,,4.6,,,,,,,,1148.086652025284,6.011143201956656,None,,,,,,,,,,B21L11,2022-11-24_12h41.47.649,t2_paradigm,2021.1.4,60.072961894320485,
3,,1,ABLENKEN,,Stimuli/6244.jpg,,Trials/StimuliNegative.xlsx,23,"Denken Sie während des Betrachtens der Bilder an etwas Neutrales, das mit dem Bild nichts zu tun hat. Das könnten geometrische Figuren, Alltagstätigkeiten oder bekannte Orte sein.",,,,,,,,,0,2,2,0,0,15,15,10,,,,,4.1,,,,,,,,1158.2355068279394,6.009652116392317,None,,,,,,,,,,B21L11,2022-11-24_12h41.47.649,t2_paradigm,2021.1.4,60.072961894320485,
3,,1,ABLENKEN,,Stimuli/6836.jpg,,Trials/StimuliNegative.xlsx,23,"Denken Sie während des Betrachtens der Bilder an etwas Neutrales, das mit dem Bild nichts zu tun hat. Das könnten geometrische Figuren, Alltagstätigkeiten oder bekannte Orte sein.",,,,,,,,,0,2,2,0,0,16,16,11,,,,,3.9,,,,,,,,1168.156276546326,5.999092131636644,None,,,,,,,,,,B21L11,2022-11-24_12h41.47.649,t2_paradigm,2021.1.4,60.072961894320485,
3,,1,ABLENKEN,,Stimuli/9300.jpg,,Trials/StimuliNegative.xlsx,23,"Denken Sie während des Betrachtens der Bilder an etwas Neutrales, das mit dem Bild nichts zu tun hat. Das könnten geometrische Figuren, Alltagstätigkeiten oder bekannte Orte sein.",,,,,,,,,0,2,2,0,0,17,17,15,,,,,3.4,,,,,,,,1177.5837298440383,6.007775106570989,None,,,,,,,,,,B21L11,2022-11-24_12h41.47.649,t2_paradigm,2021.1.4,60.072961894320485,
3,,1,ABLENKEN,,Stimuli/1111.jpg,,Trials/StimuliNegative.xlsx,23,"Denken Sie während des Betrachtens der Bilder an etwas Neutrales, das mit dem Bild nichts zu tun hat. Das könnten geometrische Figuren, Alltagstätigkeiten oder bekannte Orte sein.",,,,,,,,,0,2,2,0,0,18,18,4,,,,,4.2,,,,,,,,1187.8330856745415,6.006157945994346,None,,,,,,,,,,B21L11,2022-11-24_12h41.47.649,t2_paradigm,2021.1.4,60.072961894320485,
3,,1,ABLENKEN,,Stimuli/9920.jpg,,Trials/StimuliNegative.xlsx,23,"Denken Sie während des Betrachtens der Bilder an etwas Neutrales, das mit dem Bild nichts zu tun hat. Das könnten geometrische Figuren, Alltagstätigkeiten oder bekannte Orte sein.",,,,,,,,,0,2,2,0,0,19,19,19,,,,,4.7,,,,,,,,1198.5797794938517,6.009088788885492,None,,,,,,,,,,B21L11,2022-11-24_12h41.47.649,t2_paradigm,2021.1.4,60.072961894320485,
3,,1,ABLENKEN,,,,Trials/StimuliNegative.xlsx,23,"Denken Sie während des Betrachtens der Bilder an etwas Neutrales, das mit dem Bild nichts zu tun hat. Das könnten geometrische Figuren, Alltagstätigkeiten oder bekannte Orte sein.",,,,,,,,,0,2,2,0,,,,,,,,,,,,,95.33333333333334,6.954356677420947,216.66666666666666,7.141795243924207,,,,364.33333333333337,4.825538818269706,,,,,,,,B21L11,2022-11-24_12h41.47.649,t2_paradigm,2021.1.4,60.072961894320485,
,,,,,,,,,,,,,,,,,,,,,,,,,,,,,,,,,,,,,,,,,,,3,23.930245554331123,,,,,,B21L11,2022-11-24_12h41.47.649,t2_paradigm,2021.1.4,60.072961894320485,
,,,,,,,,,,,,,,,,,,,,,,,,,,,,,,,,,,,,,,,,,,,,,space,10.481628658098998,,,,B21L11,2022-11-24_12h41.47.649,t2_paradigm,2021.1.4,60.072961894320485,
,,,,,Stimuli/326.jpg,,,,,,,,,,,,,,,,,,,,,0,0,0,5,4.3,,,,,,,,,,,,,,,,,1483.2706432584182,6.0142562601195095,None,B21L11,2022-11-24_12h41.47.649,t2_paradigm,2021.1.4,60.072961894320485,
,,,,,Stimuli/219.jpg,,,,,,,,,,,,,,,,,,,,,0,1,1,1,4.0,,,,,,,,,,,,,,,,,1493.3209609802652,6.008541341052478,None,B21L11,2022-11-24_12h41.47.649,t2_paradigm,2021.1.4,60.072961894320485,
,,,,,Stimuli/9409.jpg,,,,,,,,,,,,,,,,,,,,,0,2,2,17,4.4,,,,,,,,,,,,,,,,,1503.7739686872028,6.000702394976543,None,B21L11,2022-11-24_12h41.47.649,t2_paradigm,2021.1.4,60.072961894320485,
,,,,,Stimuli/208.jpg,,,,,,,,,,,,,,,,,,,,,0,3,3,0,3.4,,,,,,,,,,,,,,,,,1513.208217203175,6.0114014471982955,None,B21L11,2022-11-24_12h41.47.649,t2_paradigm,2021.1.4,60.072961894320485,
,,,,,Stimuli/254.jpg,,,,,,,,,,,,,,,,,,,,,0,4,4,4,4.6,,,,,,,,,,,,,,,,,1523.8359780212431,6.002358532936341,None,B21L11,2022-11-24_12h41.47.649,t2_paradigm,2021.1.4,60.072961894320485,
,,,,,Stimuli/6242.jpg,,,,,,,,,,,,,,,,,,,,,0,5,5,8,3.2,,,,,,,,,,,,,,,,,1533.0829365018253,6.005743791205532,None,B21L11,2022-11-24_12h41.47.649,t2_paradigm,2021.1.4,60.072961894320485,
,,,,,Stimuli/226.jpg,,,,,,,,,,,,,,,,,,,,,0,6,6,2,3.3,,,,,,,,,,,,,,,,,1542.4153411146945,6.003750490828679,None,B21L11,2022-11-24_12h41.47.649,t2_paradigm,2021.1.4,60.072961894320485,
,,,,,Stimuli/8230.jpg,,,,,,,,,,,,,,,,,,,,,0,7,7,13,3.6,,,,,,,,,,,,,,,,,1552.06766634843,6.012052995130944,None,B21L11,2022-11-24_12h41.47.649,t2_paradigm,2021.1.4,60.072961894320485,
,,,,,Stimuli/6555.jpg,,,,,,,,,,,,,,,,,,,,,0,8,8,10,3.4,,,,,,,,,,,,,,,,,1561.5107978590986,6.00647634152665,None,B21L11,2022-11-24_12h41.47.649,t2_paradigm,2021.1.4,60.072961894320485,
,,,,,Stimuli/9570.jpg,,,,,,,,,,,,,,,,,,,,,0,9,9,18,4.3,,,,,,,,,,,,,,,,,1571.8670656154627,6.008577431226513,None,B21L11,2022-11-24_12h41.47.649,t2_paradigm,2021.1.4,60.072961894320485,
,,,,,Stimuli/9800.jpg,,,,,,,,,,,,,,,,,,,,,0,10,10,19,4.9,,,,,,,,,,,,,,,,,1582.8149706530749,6.008373401446079,None,B21L11,2022-11-24_12h41.47.649,t2_paradigm,2021.1.4,60.072961894320485,
,,,,,Stimuli/6825.jpg,,,,,,,,,,,,,,,,,,,,,0,11,11,11,3.4,,,,,,,,,,,,,,,,,1592.2684319733908,6.015186584592811,None,B21L11,2022-11-24_12h41.47.649,t2_paradigm,2021.1.4,60.072961894320485,
,,,,,Stimuli/9140.jpg,,,,,,,,,,,,,,,,,,,,,0,12,12,15,4.9,,,,,,,,,,,,,,,,,1603.2267049960337,6.011552544725419,None,B21L11,2022-11-24_12h41.47.649,t2_paradigm,2021.1.4,60.072961894320485,
,,,,,Stimuli/253.jpg,,,,,,,,,,,,,,,,,,,,,0,13,13,3,4.5,,,,,,,,,,,,,,,,,1613.758571496397,6.011191322189916,None,B21L11,2022-11-24_12h41.47.649,t2_paradigm,2021.1.4,60.072961894320485,
,,,,,Stimuli/3350.jpg,,,,,,,,,,,,,,,,,,,,,0,14,14,7,3.3,,,,,,,,,,,,,,,,,1623.0935742809543,6.004223512698445,None,B21L11,2022-11-24_12h41.47.649,t2_paradigm,2021.1.4,60.072961894320485,
,,,,,Stimuli/9041.jpg,,,,,,,,,,,,,,,,,,,,,0,15,15,14,3.3,,,,,,,,,,,,,,,,,1632.4182523886866,6.001849100088293,None,B21L11,2022-11-24_12h41.47.649,t2_paradigm,2021.1.4,60.072961894320485,
,,,,,Stimuli/1301.jpg,,,,,,,,,,,,,,,,,,,,,0,16,16,6,3.5,,,,,,,,,,,,,,,,,1641.9531629748817,6.01124810406327,None,B21L11,2022-11-24_12h41.47.649,t2_paradigm,2021.1.4,60.072961894320485,
,,,,,Stimuli/9340.jpg,,,,,,,,,,,,,,,,,,,,,0,17,17,16,4.5,,,,,,,,,,,,,,,,,1652.5048181183574,6.005882377474336,None,B21L11,2022-11-24_12h41.47.649,t2_paradigm,2021.1.4,60.072961894320485,
,,,,,Stimuli/6410.jpg,,,,,,,,,,,,,,,,,,,,,0,18,18,9,4.8,,,,,,,,,,,,,,,,,1663.3467300057218,6.000884770654011,None,B21L11,2022-11-24_12h41.47.649,t2_paradigm,2021.1.4,60.072961894320485,
,,,,,Stimuli/6940.jpg,,,,,,,,,,,,,,,,,,,,,0,19,19,12,3.6,,,,,,,,,,,,,,,,,1672.9835072719288,6.007491838809074,None,B21L11,2022-11-24_12h41.47.649,t2_paradigm,2021.1.4,60.072961894320485,
,,,,,,,,,,,,,,,,,,,,,,,,,,,,,,,,,,150.33333333333334,6.138727418778217,57.33333333333333,9.590607187494243,,,,346.6666666666667,5.226201337614839,,,,,,,,B21L11,2022-11-24_12h41.47.649,t2_paradigm,2021.1.4,60.072961894320485,
