Block,conds_view_File,n_reps,instr_1,TriggerBlockView,ImageFile,Trigger,conds_reg_File,TriggerBlockReg,instr_2,blocks_view.thisRepN,blocks_view.thisTrialN,blocks_view.thisN,blocks_view.thisIndex,trials_view.thisRepN,trials_view.thisTrialN,trials_view.thisN,trials_view.thisIndex,blocks_reg.thisRepN,blocks_reg.thisTrialN,blocks_reg.thisN,blocks_reg.thisIndex,trials_reg.thisRepN,trials_reg.thisTrialN,trials_reg.thisN,trials_reg.thisIndex,trials_choice.thisRepN,trials_choice.thisTrialN,trials_choice.thisN,trials_choice.thisIndex,Fix_jitter,image_view.started,image_view.lasted,image_view.stopped,slider_arousal.response,slider_arousal.rt,slider_effort.response,slider_effort.rt,image_reg.started,image_reg.lasted,image_reg.stopped,slider_utility.response,slider_utility.rt,resp_choice.keys,resp_choice.rt,key_resp.keys,key_resp.rt,image.started,image.lased,image.stopped,participant,date,expName,psychopyVersion,frameRate,
,,,,,,,,,,,,,,,,,,,,,,,,,,,,,,,,,,,,,,,,,,,,,,,,,,B25R08,2022-12-09_11h13.20.846,t2_paradigm,2021.1.4,59.96879575044744,
1,Trials/StimuliNeutral.xlsx,1,ANSCHAUEN,21,Stimuli/7021.jpg,1,,,,0,0,0,0,0,0,0,10,,,,,,,,,,,,,4.0,128.90023912608194,6.035782488295808,None,,,,,,,,,,,,,,,,,B25R08,2022-12-09_11h13.20.846,t2_paradigm,2021.1.4,59.96879575044744,
1,Trials/StimuliNeutral.xlsx,1,ANSCHAUEN,21,Stimuli/143.jpg,1,,,,0,0,0,0,0,1,1,4,,,,,,,,,,,,,3.6,138.5453280909951,5.997819570484353,None,,,,,,,,,,,,,,,,,B25R08,2022-12-09_11h13.20.846,t2_paradigm,2021.1.4,59.96879575044744,
1,Trials/StimuliNeutral.xlsx,1,ANSCHAUEN,21,Stimuli/7000.jpg,1,,,,0,0,0,0,0,2,2,5,,,,,,,,,,,,,5.0,149.58804003870137,6.013450473246849,None,,,,,,,,,,,,,,,,,B25R08,2022-12-09_11h13.20.846,t2_paradigm,2021.1.4,59.96879575044744,
1,Trials/StimuliNeutral.xlsx,1,ANSCHAUEN,21,Stimuli/124.jpg,1,,,,0,0,0,0,0,3,3,2,,,,,,,,,,,,,3.0,158.61856021332096,6.001890744983029,None,,,,,,,,,,,,,,,,,B25R08,2022-12-09_11h13.20.846,t2_paradigm,2021.1.4,59.96879575044744,
1,Trials/StimuliNeutral.xlsx,1,ANSCHAUEN,21,Stimuli/7211.jpg,1,,,,0,0,0,0,0,4,4,16,,,,,,,,,,,,,4.9,169.5709281197378,6.014906595182765,None,,,,,,,,,,,,,,,,,B25R08,2022-12-09_11h13.20.846,t2_paradigm,2021.1.4,59.96879575044744,
1,Trials/StimuliNeutral.xlsx,1,ANSCHAUEN,21,Stimuli/7100.jpg,1,,,,0,0,0,0,0,5,5,13,,,,,,,,,,,,,3.7,179.30753750821168,6.009006269759993,None,,,,,,,,,,,,,,,,,B25R08,2022-12-09_11h13.20.846,t2_paradigm,2021.1.4,59.96879575044744,
1,Trials/StimuliNeutral.xlsx,1,ANSCHAUEN,21,Stimuli/107.jpg,1,,,,0,0,0,0,0,6,6,1,,,,,,,,,,,,,4.6,189.9404619682373,6.0081340081287635,None,,,,,,,,,,,,,,,,,B25R08,2022-12-09_11h13.20.846,t2_paradigm,2021.1.4,59.96879575044744,
1,Trials/StimuliNeutral.xlsx,1,ANSCHAUEN,21,Stimuli/7006.jpg,1,,,,0,0,0,0,0,7,7,8,,,,,,,,,,,,,3.3,199.27761113877023,6.001670482075497,None,,,,,,,,,,,,,,,,,B25R08,2022-12-09_11h13.20.846,t2_paradigm,2021.1.4,59.96879575044744,
1,Trials/StimuliNeutral.xlsx,1,ANSCHAUEN,21,Stimuli/7009.jpg,1,,,,0,0,0,0,0,8,8,9,,,,,,,,,,,,,3.2,208.50570931969378,6.010928517533102,None,,,,,,,,,,,,,,,,,B25R08,2022-12-09_11h13.20.846,t2_paradigm,2021.1.4,59.96879575044744,
1,Trials/StimuliNeutral.xlsx,1,ANSCHAUEN,21,Stimuli/7150.jpg,1,,,,0,0,0,0,0,9,9,14,,,,,,,,,,,,,4.4,218.94573018467963,5.998020071960127,None,,,,,,,,,,,,,,,,,B25R08,2022-12-09_11h13.20.846,t2_paradigm,2021.1.4,59.96879575044744,
1,Trials/StimuliNeutral.xlsx,1,ANSCHAUEN,21,Stimuli/7235.jpg,1,,,,0,0,0,0,0,10,10,19,,,,,,,,,,,,,4.4,229.37803703599093,6.000147312446643,None,,,,,,,,,,,,,,,,,B25R08,2022-12-09_11h13.20.846,t2_paradigm,2021.1.4,59.96879575044744,
1,Trials/StimuliNeutral.xlsx,1,ANSCHAUEN,21,Stimuli/7224.jpg,1,,,,0,0,0,0,0,11,11,17,,,,,,,,,,,,,3.5,238.90770451792378,6.007350287953159,None,,,,,,,,,,,,,,,,,B25R08,2022-12-09_11h13.20.846,t2_paradigm,2021.1.4,59.96879575044744,
1,Trials/StimuliNeutral.xlsx,1,ANSCHAUEN,21,Stimuli/7041.jpg,1,,,,0,0,0,0,0,12,12,12,,,,,,,,,,,,,4.3,249.24552416540064,5.999404654969112,None,,,,,,,,,,,,,,,,,B25R08,2022-12-09_11h13.20.846,t2_paradigm,2021.1.4,59.96879575044744,
1,Trials/StimuliNeutral.xlsx,1,ANSCHAUEN,21,Stimuli/140.jpg,1,,,,0,0,0,0,0,13,13,3,,,,,,,,,,,,,4.9,260.1726840635638,6.010998773250321,None,,,,,,,,,,,,,,,,,B25R08,2022-12-09_11h13.20.846,t2_paradigm,2021.1.4,59.96879575044744,
1,Trials/StimuliNeutral.xlsx,1,ANSCHAUEN,21,Stimuli/7233.jpg,1,,,,0,0,0,0,0,14,14,18,,,,,,,,,,,,,4.9,271.1194420990214,6.001303484166783,None,,,,,,,,,,,,,,,,,B25R08,2022-12-09_11h13.20.846,t2_paradigm,2021.1.4,59.96879575044744,
1,Trials/StimuliNeutral.xlsx,1,ANSCHAUEN,21,Stimuli/7185.jpg,1,,,,0,0,0,0,0,15,15,15,,,,,,,,,,,,,3.4,280.55763727774684,6.008255913027824,None,,,,,,,,,,,,,,,,,B25R08,2022-12-09_11h13.20.846,t2_paradigm,2021.1.4,59.96879575044744,
1,Trials/StimuliNeutral.xlsx,1,ANSCHAUEN,21,Stimuli/083.jpg,1,,,,0,0,0,0,0,16,16,0,,,,,,,,,,,,,4.6,291.1924621709841,6.004765583293192,None,,,,,,,,,,,,,,,,,B25R08,2022-12-09_11h13.20.846,t2_paradigm,2021.1.4,59.96879575044744,
1,Trials/StimuliNeutral.xlsx,1,ANSCHAUEN,21,Stimuli/7025.jpg,1,,,,0,0,0,0,0,17,17,11,,,,,,,,,,,,,4.0,301.22316520295135,6.009553237794535,None,,,,,,,,,,,,,,,,,B25R08,2022-12-09_11h13.20.846,t2_paradigm,2021.1.4,59.96879575044744,
1,Trials/StimuliNeutral.xlsx,1,ANSCHAUEN,21,Stimuli/7004.jpg,1,,,,0,0,0,0,0,18,18,7,,,,,,,,,,,,,3.9,311.15521444996375,6.0137342550187896,None,,,,,,,,,,,,,,,,,B25R08,2022-12-09_11h13.20.846,t2_paradigm,2021.1.4,59.96879575044744,
1,Trials/StimuliNeutral.xlsx,1,ANSCHAUEN,21,Stimuli/7002.jpg,1,,,,0,0,0,0,0,19,19,6,,,,,,,,,,,,,3.2,320.3879315433405,6.015059168787047,None,,,,,,,,,,,,,,,,,B25R08,2022-12-09_11h13.20.846,t2_paradigm,2021.1.4,59.96879575044744,
1,Trials/StimuliNeutral.xlsx,1,ANSCHAUEN,21,,,,,,0,0,0,0,,,,,,,,,,,,,,,,,,,,,55.18518518518518,4.552226304254873,134.07407407407408,3.335706843099615,,,,,,,,,,,,,B25R08,2022-12-09_11h13.20.846,t2_paradigm,2021.1.4,59.96879575044744,
2,Trials/StimuliNegative.xlsx,1,ANSCHAUEN,22,Stimuli/3215.jpg,,,,,0,1,1,1,0,0,0,7,,,,,,,,,,,,,3.5,346.0930913927441,6.002664007000931,None,,,,,,,,,,,,,,,,,B25R08,2022-12-09_11h13.20.846,t2_paradigm,2021.1.4,59.96879575044744,
2,Trials/StimuliNegative.xlsx,1,ANSCHAUEN,22,Stimuli/9400.jpg,,,,,0,1,1,1,0,1,1,15,,,,,,,,,,,,,4.6,356.7215268652726,6.0136421847400925,None,,,,,,,,,,,,,,,,,B25R08,2022-12-09_11h13.20.846,t2_paradigm,2021.1.4,59.96879575044744,
2,Trials/StimuliNegative.xlsx,1,ANSCHAUEN,22,Stimuli/238.jpg,,,,,0,1,1,1,0,2,2,1,,,,,,,,,,,,,4.6,367.35528861947205,6.012114203074816,None,,,,,,,,,,,,,,,,,B25R08,2022-12-09_11h13.20.846,t2_paradigm,2021.1.4,59.96879575044744,
2,Trials/StimuliNegative.xlsx,1,ANSCHAUEN,22,Stimuli/2981.jpg,,,,,0,1,1,1,0,3,3,3,,,,,,,,,,,,,4.9,378.3064070006767,6.0109713125693816,None,,,,,,,,,,,,,,,,,B25R08,2022-12-09_11h13.20.846,t2_paradigm,2021.1.4,59.96879575044744,
2,Trials/StimuliNegative.xlsx,1,ANSCHAUEN,22,Stimuli/6020.jpg,,,,,0,1,1,1,0,4,4,10,,,,,,,,,,,,,3.4,387.73883190725974,6.012163927443908,None,,,,,,,,,,,,,,,,,B25R08,2022-12-09_11h13.20.846,t2_paradigm,2021.1.4,59.96879575044744,
2,Trials/StimuliNegative.xlsx,1,ANSCHAUEN,22,Stimuli/3181.jpg,,,,,0,1,1,1,0,5,5,6,,,,,,,,,,,,,4.8,398.57711960538654,6.002370472837356,None,,,,,,,,,,,,,,,,,B25R08,2022-12-09_11h13.20.846,t2_paradigm,2021.1.4,59.96879575044744,
2,Trials/StimuliNegative.xlsx,1,ANSCHAUEN,22,Stimuli/3016.jpg,,,,,0,1,1,1,0,6,6,4,,,,,,,,,,,,,3.1,407.70469949800827,6.013360520262722,None,,,,,,,,,,,,,,,,,B25R08,2022-12-09_11h13.20.846,t2_paradigm,2021.1.4,59.96879575044744,
2,Trials/StimuliNegative.xlsx,1,ANSCHAUEN,22,Stimuli/8231.jpg,,,,,0,1,1,1,0,7,7,13,,,,,,,,,,,,,3.2,416.94245511333247,6.005875559478227,None,,,,,,,,,,,,,,,,,B25R08,2022-12-09_11h13.20.846,t2_paradigm,2021.1.4,59.96879575044744,
2,Trials/StimuliNegative.xlsx,1,ANSCHAUEN,22,Stimuli/6571.jpg,,,,,0,1,1,1,0,8,8,11,,,,,,,,,,,,,3.9,426.8718875754512,6.01303779308364,None,,,,,,,,,,,,,,,,,B25R08,2022-12-09_11h13.20.846,t2_paradigm,2021.1.4,59.96879575044744,
2,Trials/StimuliNegative.xlsx,1,ANSCHAUEN,22,Stimuli/245.jpg,,,,,0,1,1,1,0,9,9,2,,,,,,,,,,,,,4.5,437.3995086590967,6.0067409559414955,None,,,,,,,,,,,,,,,,,B25R08,2022-12-09_11h13.20.846,t2_paradigm,2021.1.4,59.96879575044744,
2,Trials/StimuliNegative.xlsx,1,ANSCHAUEN,22,Stimuli/9423.jpg,,,,,0,1,1,1,0,10,10,19,,,,,,,,,,,,,3.7,447.1455865293792,5.999471702665687,None,,,,,,,,,,,,,,,,,B25R08,2022-12-09_11h13.20.846,t2_paradigm,2021.1.4,59.96879575044744,
2,Trials/StimuliNegative.xlsx,1,ANSCHAUEN,22,Stimuli/9402.jpg,,,,,0,1,1,1,0,11,11,16,,,,,,,,,,,,,4.3,457.47518882427175,6.007016653491519,None,,,,,,,,,,,,,,,,,B25R08,2022-12-09_11h13.20.846,t2_paradigm,2021.1.4,59.96879575044744,
2,Trials/StimuliNegative.xlsx,1,ANSCHAUEN,22,Stimuli/9403.jpg,,,,,0,1,1,1,0,12,12,17,,,,,,,,,,,,,4.7,468.2171238528099,6.006063870465368,None,,,,,,,,,,,,,,,,,B25R08,2022-12-09_11h13.20.846,t2_paradigm,2021.1.4,59.96879575044744,
2,Trials/StimuliNegative.xlsx,1,ANSCHAUEN,22,Stimuli/9405.jpg,,,,,0,1,1,1,0,13,13,18,,,,,,,,,,,,,4.8,479.0583468925797,6.007299601178602,None,,,,,,,,,,,,,,,,,B25R08,2022-12-09_11h13.20.846,t2_paradigm,2021.1.4,59.96879575044744,
2,Trials/StimuliNegative.xlsx,1,ANSCHAUEN,22,Stimuli/9373.jpg,,,,,0,1,1,1,0,14,14,14,,,,,,,,,,,,,3.3,488.3879636235779,6.015655861185223,None,,,,,,,,,,,,,,,,,B25R08,2022-12-09_11h13.20.846,t2_paradigm,2021.1.4,59.96879575044744,
2,Trials/StimuliNegative.xlsx,1,ANSCHAUEN,22,Stimuli/6831.jpg,,,,,0,1,1,1,0,15,15,12,,,,,,,,,,,,,4.2,498.62459386420414,6.007269124953382,None,,,,,,,,,,,,,,,,,B25R08,2022-12-09_11h13.20.846,t2_paradigm,2021.1.4,59.96879575044744,
2,Trials/StimuliNegative.xlsx,1,ANSCHAUEN,22,Stimuli/3225.jpg,,,,,0,1,1,1,0,16,16,9,,,,,,,,,,,,,3.3,507.9603626221615,6.002666252616109,None,,,,,,,,,,,,,,,,,B25R08,2022-12-09_11h13.20.846,t2_paradigm,2021.1.4,59.96879575044744,
2,Trials/StimuliNegative.xlsx,1,ANSCHAUEN,22,Stimuli/223.jpg,,,,,0,1,1,1,0,17,17,0,,,,,,,,,,,,,3.9,517.8874057482644,6.01472296790962,None,,,,,,,,,,,,,,,,,B25R08,2022-12-09_11h13.20.846,t2_paradigm,2021.1.4,59.96879575044744,
2,Trials/StimuliNegative.xlsx,1,ANSCHAUEN,22,Stimuli/3101.jpg,,,,,0,1,1,1,0,18,18,5,,,,,,,,,,,,,4.0,527.928932010429,5.998422037326236,None,,,,,,,,,,,,,,,,,B25R08,2022-12-09_11h13.20.846,t2_paradigm,2021.1.4,59.96879575044744,
2,Trials/StimuliNegative.xlsx,1,ANSCHAUEN,22,Stimuli/3220.jpg,,,,,0,1,1,1,0,19,19,8,,,,,,,,,,,,,3.1,537.0549479915207,6.012527075718026,None,,,,,,,,,,,,,,,,,B25R08,2022-12-09_11h13.20.846,t2_paradigm,2021.1.4,59.96879575044744,
2,Trials/StimuliNegative.xlsx,1,ANSCHAUEN,22,,,,,,0,1,1,1,,,,,,,,,,,,,,,,,,,,,262.22222222222223,4.234932554509214,107.03703703703704,4.185167446003106,,,,,,,,,,,,,B25R08,2022-12-09_11h13.20.846,t2_paradigm,2021.1.4,59.96879575044744,
3,,1,ABLENKEN,,Stimuli/3185.jpg,,Trials/StimuliNegative.xlsx,23,"Denken Sie während des Betrachtens der Bilder an etwas Neutrales, das mit dem Bild nichts zu tun hat. Das könnten geometrische Figuren, Alltagstätigkeiten oder bekannte Orte sein.",,,,,,,,,0,0,0,0,0,0,0,9,,,,,3.9,,,,,,,,570.5893380050711,6.01126612994085,None,,,,,,,,,,B25R08,2022-12-09_11h13.20.846,t2_paradigm,2021.1.4,59.96879575044744,
3,,1,ABLENKEN,,Stimuli/6562.jpg,,Trials/StimuliNegative.xlsx,23,"Denken Sie während des Betrachtens der Bilder an etwas Neutrales, das mit dem Bild nichts zu tun hat. Das könnten geometrische Figuren, Alltagstätigkeiten oder bekannte Orte sein.",,,,,,,,,0,0,0,0,0,1,1,11,,,,,3.4,,,,,,,,580.0225581807172,6.0125370205932995,None,,,,,,,,,,B25R08,2022-12-09_11h13.20.846,t2_paradigm,2021.1.4,59.96879575044744,
3,,1,ABLENKEN,,Stimuli/3301.jpg,,Trials/StimuliNegative.xlsx,23,"Denken Sie während des Betrachtens der Bilder an etwas Neutrales, das mit dem Bild nichts zu tun hat. Das könnten geometrische Figuren, Alltagstätigkeiten oder bekannte Orte sein.",,,,,,,,,0,0,0,0,0,2,2,10,,,,,3.7,,,,,,,,589.7615293162035,6.000005517800673,None,,,,,,,,,,B25R08,2022-12-09_11h13.20.846,t2_paradigm,2021.1.4,59.96879575044744,
3,,1,ABLENKEN,,Stimuli/222.jpg,,Trials/StimuliNegative.xlsx,23,"Denken Sie während des Betrachtens der Bilder an etwas Neutrales, das mit dem Bild nichts zu tun hat. Das könnten geometrische Figuren, Alltagstätigkeiten oder bekannte Orte sein.",,,,,,,,,0,0,0,0,0,3,3,2,,,,,5.0,,,,,,,,600.7920806086513,6.0057016845967155,None,,,,,,,,,,B25R08,2022-12-09_11h13.20.846,t2_paradigm,2021.1.4,59.96879575044744,
3,,1,ABLENKEN,,Stimuli/9040.jpg,,Trials/StimuliNegative.xlsx,23,"Denken Sie während des Betrachtens der Bilder an etwas Neutrales, das mit dem Bild nichts zu tun hat. Das könnten geometrische Figuren, Alltagstätigkeiten oder bekannte Orte sein.",,,,,,,,,0,0,0,0,0,4,4,13,,,,,4.2,,,,,,,,611.0362574041174,6.001791745369701,None,,,,,,,,,,B25R08,2022-12-09_11h13.20.846,t2_paradigm,2021.1.4,59.96879575044744,
3,,1,ABLENKEN,,Stimuli/3160.jpg,,Trials/StimuliNegative.xlsx,23,"Denken Sie während des Betrachtens der Bilder an etwas Neutrales, das mit dem Bild nichts zu tun hat. Das könnten geometrische Figuren, Alltagstätigkeiten oder bekannte Orte sein.",,,,,,,,,0,0,0,0,0,5,5,8,,,,,4.9,,,,,,,,621.9729621350543,6.010759775490442,None,,,,,,,,,,B25R08,2022-12-09_11h13.20.846,t2_paradigm,2021.1.4,59.96879575044744,
3,,1,ABLENKEN,,Stimuli/218.jpg,,Trials/StimuliNegative.xlsx,23,"Denken Sie während des Betrachtens der Bilder an etwas Neutrales, das mit dem Bild nichts zu tun hat. Das könnten geometrische Figuren, Alltagstätigkeiten oder bekannte Orte sein.",,,,,,,,,0,0,0,0,0,6,6,1,,,,,4.5,,,,,,,,632.5061799367631,6.011120357348773,None,,,,,,,,,,B25R08,2022-12-09_11h13.20.846,t2_paradigm,2021.1.4,59.96879575044744,
3,,1,ABLENKEN,,Stimuli/246.jpg,,Trials/StimuliNegative.xlsx,23,"Denken Sie während des Betrachtens der Bilder an etwas Neutrales, das mit dem Bild nichts zu tun hat. Das könnten geometrische Figuren, Alltagstätigkeiten oder bekannte Orte sein.",,,,,,,,,0,0,0,0,0,7,7,4,,,,,4.3,,,,,,,,642.8320067086188,6.008685018274264,None,,,,,,,,,,B25R08,2022-12-09_11h13.20.846,t2_paradigm,2021.1.4,59.96879575044744,
3,,1,ABLENKEN,,Stimuli/9184.jpg,,Trials/StimuliNegative.xlsx,23,"Denken Sie während des Betrachtens der Bilder an etwas Neutrales, das mit dem Bild nichts zu tun hat. Das könnten geometrische Figuren, Alltagstätigkeiten oder bekannte Orte sein.",,,,,,,,,0,0,0,0,0,8,8,18,,,,,4.1,,,,,,,,652.9894844192695,6.011905489056517,None,,,,,,,,,,B25R08,2022-12-09_11h13.20.846,t2_paradigm,2021.1.4,59.96879575044744,
3,,1,ABLENKEN,,Stimuli/9043.jpg,,Trials/StimuliNegative.xlsx,23,"Denken Sie während des Betrachtens der Bilder an etwas Neutrales, das mit dem Bild nichts zu tun hat. Das könnten geometrische Figuren, Alltagstätigkeiten oder bekannte Orte sein.",,,,,,,,,0,0,0,0,0,9,9,15,,,,,4.9,,,,,,,,663.9327380096893,6.009170841374726,None,,,,,,,,,,B25R08,2022-12-09_11h13.20.846,t2_paradigm,2021.1.4,59.96879575044744,
3,,1,ABLENKEN,,Stimuli/210.jpg,,Trials/StimuliNegative.xlsx,23,"Denken Sie während des Betrachtens der Bilder an etwas Neutrales, das mit dem Bild nichts zu tun hat. Das könnten geometrische Figuren, Alltagstätigkeiten oder bekannte Orte sein.",,,,,,,,,0,0,0,0,0,10,10,0,,,,,3.4,,,,,,,,673.3672182970258,6.005014718413804,None,,,,,,,,,,B25R08,2022-12-09_11h13.20.846,t2_paradigm,2021.1.4,59.96879575044744,
3,,1,ABLENKEN,,Stimuli/2703.jpg,,Trials/StimuliNegative.xlsx,23,"Denken Sie während des Betrachtens der Bilder an etwas Neutrales, das mit dem Bild nichts zu tun hat. Das könnten geometrische Figuren, Alltagstätigkeiten oder bekannte Orte sein.",,,,,,,,,0,0,0,0,0,11,11,6,,,,,5.0,,,,,,,,684.4221354915207,6.013586814253358,None,,,,,,,,,,B25R08,2022-12-09_11h13.20.846,t2_paradigm,2021.1.4,59.96879575044744,
3,,1,ABLENKEN,,Stimuli/9031.jpg,,Trials/StimuliNegative.xlsx,23,"Denken Sie während des Betrachtens der Bilder an etwas Neutrales, das mit dem Bild nichts zu tun hat. Das könnten geometrische Figuren, Alltagstätigkeiten oder bekannte Orte sein.",,,,,,,,,0,0,0,0,0,12,12,12,,,,,4.3,,,,,,,,694.7688638206782,6.003216107870685,None,,,,,,,,,,B25R08,2022-12-09_11h13.20.846,t2_paradigm,2021.1.4,59.96879575044744,
3,,1,ABLENKEN,,Stimuli/9904.jpg,,Trials/StimuliNegative.xlsx,23,"Denken Sie während des Betrachtens der Bilder an etwas Neutrales, das mit dem Bild nichts zu tun hat. Das könnten geometrische Figuren, Alltagstätigkeiten oder bekannte Orte sein.",,,,,,,,,0,0,0,0,0,13,13,19,,,,,4.6,,,,,,,,705.4209119512998,6.015056409889439,None,,,,,,,,,,B25R08,2022-12-09_11h13.20.846,t2_paradigm,2021.1.4,59.96879575044744,
3,,1,ABLENKEN,,Stimuli/251.jpg,,Trials/StimuliNegative.xlsx,23,"Denken Sie während des Betrachtens der Bilder an etwas Neutrales, das mit dem Bild nichts zu tun hat. Das könnten geometrische Figuren, Alltagstätigkeiten oder bekannte Orte sein.",,,,,,,,,0,0,0,0,0,14,14,5,,,,,4.2,,,,,,,,715.6602051723603,6.003029400893865,None,,,,,,,,,,B25R08,2022-12-09_11h13.20.846,t2_paradigm,2021.1.4,59.96879575044744,
3,,1,ABLENKEN,,Stimuli/3051.jpg,,Trials/StimuliNegative.xlsx,23,"Denken Sie während des Betrachtens der Bilder an etwas Neutrales, das mit dem Bild nichts zu tun hat. Das könnten geometrische Figuren, Alltagstätigkeiten oder bekannte Orte sein.",,,,,,,,,0,0,0,0,0,15,15,7,,,,,4.0,,,,,,,,725.7133691819272,5.997629783805678,None,,,,,,,,,,B25R08,2022-12-09_11h13.20.846,t2_paradigm,2021.1.4,59.96879575044744,
3,,1,ABLENKEN,,Stimuli/9042.jpg,,Trials/StimuliNegative.xlsx,23,"Denken Sie während des Betrachtens der Bilder an etwas Neutrales, das mit dem Bild nichts zu tun hat. Das könnten geometrische Figuren, Alltagstätigkeiten oder bekannte Orte sein.",,,,,,,,,0,0,0,0,0,16,16,14,,,,,4.7,,,,,,,,736.4425314642958,6.00645653256106,None,,,,,,,,,,B25R08,2022-12-09_11h13.20.846,t2_paradigm,2021.1.4,59.96879575044744,
3,,1,ABLENKEN,,Stimuli/9145.jpg,,Trials/StimuliNegative.xlsx,23,"Denken Sie während des Betrachtens der Bilder an etwas Neutrales, das mit dem Bild nichts zu tun hat. Das könnten geometrische Figuren, Alltagstätigkeiten oder bekannte Orte sein.",,,,,,,,,0,0,0,0,0,17,17,16,,,,,4.5,,,,,,,,746.9803065844044,5.996912341393909,None,,,,,,,,,,B25R08,2022-12-09_11h13.20.846,t2_paradigm,2021.1.4,59.96879575044744,
3,,1,ABLENKEN,,Stimuli/9160.jpg,,Trials/StimuliNegative.xlsx,23,"Denken Sie während des Betrachtens der Bilder an etwas Neutrales, das mit dem Bild nichts zu tun hat. Das könnten geometrische Figuren, Alltagstätigkeiten oder bekannte Orte sein.",,,,,,,,,0,0,0,0,0,18,18,17,,,,,4.7,,,,,,,,757.7098291278271,6.004644320000807,None,,,,,,,,,,B25R08,2022-12-09_11h13.20.846,t2_paradigm,2021.1.4,59.96879575044744,
3,,1,ABLENKEN,,Stimuli/228.jpg,,Trials/StimuliNegative.xlsx,23,"Denken Sie während des Betrachtens der Bilder an etwas Neutrales, das mit dem Bild nichts zu tun hat. Das könnten geometrische Figuren, Alltagstätigkeiten oder bekannte Orte sein.",,,,,,,,,0,0,0,0,0,19,19,3,,,,,4.5,,,,,,,,768.2393220932736,6.011280116925263,None,,,,,,,,,,B25R08,2022-12-09_11h13.20.846,t2_paradigm,2021.1.4,59.96879575044744,
3,,1,ABLENKEN,,,,Trials/StimuliNegative.xlsx,23,"Denken Sie während des Betrachtens der Bilder an etwas Neutrales, das mit dem Bild nichts zu tun hat. Das könnten geometrische Figuren, Alltagstätigkeiten oder bekannte Orte sein.",,,,,,,,,0,0,0,0,,,,,,,,,,,,,192.5925925925926,4.651085402721947,115.92592592592592,5.403189545437272,,,,291.1111111111111,6.103126411531775,,,,,,,,B25R08,2022-12-09_11h13.20.846,t2_paradigm,2021.1.4,59.96879575044744,
4,,1,DISTANZIEREN,,Stimuli/3061.jpg,,Trials/StimuliNegative.xlsx,24,Nehmen Sie die Position eines uninvolvierten Beobachters ein. Denken Sie über das Bild in einer neutralen Weise nach.,,,,,,,,,0,1,1,1,0,0,0,4,,,,,4.3,,,,,,,,810.6127309135427,5.99789560064346,None,,,,,,,,,,B25R08,2022-12-09_11h13.20.846,t2_paradigm,2021.1.4,59.96879575044744,
4,,1,DISTANZIEREN,,Stimuli/9120.jpg,,Trials/StimuliNegative.xlsx,24,Nehmen Sie die Position eines uninvolvierten Beobachters ein. Denken Sie über das Bild in einer neutralen Weise nach.,,,,,,,,,0,1,1,1,0,1,1,8,,,,,3.9,,,,,,,,820.5394715230159,6.0119672755899956,None,,,,,,,,,,B25R08,2022-12-09_11h13.20.846,t2_paradigm,2021.1.4,59.96879575044744,
4,,1,DISTANZIEREN,,Stimuli/9295.jpg,,Trials/StimuliNegative.xlsx,24,Nehmen Sie die Position eines uninvolvierten Beobachters ein. Denken Sie über das Bild in einer neutralen Weise nach.,,,,,,,,,0,1,1,1,0,2,2,13,,,,,4.8,,,,,,,,831.3889128777755,6.013659957192431,None,,,,,,,,,,B25R08,2022-12-09_11h13.20.846,t2_paradigm,2021.1.4,59.96879575044744,
4,,1,DISTANZIEREN,,Stimuli/9230.jpg,,Trials/StimuliNegative.xlsx,24,Nehmen Sie die Position eines uninvolvierten Beobachters ein. Denken Sie über das Bild in einer neutralen Weise nach.,,,,,,,,,0,1,1,1,0,3,3,11,,,,,3.4,,,,,,,,840.8185182523703,6.004110055744604,None,,,,,,,,,,B25R08,2022-12-09_11h13.20.846,t2_paradigm,2021.1.4,59.96879575044744,
4,,1,DISTANZIEREN,,Stimuli/9181.jpg,,Trials/StimuliNegative.xlsx,24,Nehmen Sie die Position eines uninvolvierten Beobachters ein. Denken Sie über das Bild in einer neutralen Weise nach.,,,,,,,,,0,1,1,1,0,4,4,9,,,,,3.1,,,,,,,,849.9547043100429,6.016445676610601,None,,,,,,,,,,B25R08,2022-12-09_11h13.20.846,t2_paradigm,2021.1.4,59.96879575044744,
4,,1,DISTANZIEREN,,Stimuli/9185.jpg,,Trials/StimuliNegative.xlsx,24,Nehmen Sie die Position eines uninvolvierten Beobachters ein. Denken Sie über das Bild in einer neutralen Weise nach.,,,,,,,,,0,1,1,1,0,5,5,10,,,,,3.4,,,,,,,,859.3941733949614,6.003331275920573,None,,,,,,,,,,B25R08,2022-12-09_11h13.20.846,t2_paradigm,2021.1.4,59.96879575044744,
4,,1,DISTANZIEREN,,Stimuli/9411.jpg,,Trials/StimuliNegative.xlsx,24,Nehmen Sie die Position eines uninvolvierten Beobachters ein. Denken Sie über das Bild in einer neutralen Weise nach.,,,,,,,,,0,1,1,1,0,6,6,15,,,,,3.1,,,,,,,,868.5245824436406,6.007359270419329,None,,,,,,,,,,B25R08,2022-12-09_11h13.20.846,t2_paradigm,2021.1.4,59.96879575044744,
4,,1,DISTANZIEREN,,Stimuli/9332.jpg,,Trials/StimuliNegative.xlsx,24,Nehmen Sie die Position eines uninvolvierten Beobachters ein. Denken Sie über das Bild in einer neutralen Weise nach.,,,,,,,,,0,1,1,1,0,7,7,14,,,,,3.2,,,,,,,,877.7605807036089,6.004301382272388,None,,,,,,,,,,B25R08,2022-12-09_11h13.20.846,t2_paradigm,2021.1.4,59.96879575044744,
4,,1,DISTANZIEREN,,Stimuli/1051.jpg,,Trials/StimuliNegative.xlsx,24,Nehmen Sie die Position eines uninvolvierten Beobachters ein. Denken Sie über das Bild in einer neutralen Weise nach.,,,,,,,,,0,1,1,1,0,8,8,2,,,,,4.6,,,,,,,,888.3937249132541,6.001768326796082,None,,,,,,,,,,B25R08,2022-12-09_11h13.20.846,t2_paradigm,2021.1.4,59.96879575044744,
4,,1,DISTANZIEREN,,Stimuli/252.jpg,,Trials/StimuliNegative.xlsx,24,Nehmen Sie die Position eines uninvolvierten Beobachters ein. Denken Sie über das Bild in einer neutralen Weise nach.,,,,,,,,,0,1,1,1,0,9,9,1,,,,,4.2,,,,,,,,898.6275474915819,6.002085600337523,None,,,,,,,,,,B25R08,2022-12-09_11h13.20.846,t2_paradigm,2021.1.4,59.96879575044744,
4,,1,DISTANZIEREN,,Stimuli/227.jpg,,Trials/StimuliNegative.xlsx,24,Nehmen Sie die Position eines uninvolvierten Beobachters ein. Denken Sie über das Bild in einer neutralen Weise nach.,,,,,,,,,0,1,1,1,0,10,10,0,,,,,3.1,,,,,,,,907.7540510922681,6.015549996403934,None,,,,,,,,,,B25R08,2022-12-09_11h13.20.846,t2_paradigm,2021.1.4,59.96879575044744,
4,,1,DISTANZIEREN,,Stimuli/6838.jpg,,Trials/StimuliNegative.xlsx,24,Nehmen Sie die Position eines uninvolvierten Beobachters ein. Denken Sie über das Bild in einer neutralen Weise nach.,,,,,,,,,0,1,1,1,0,11,11,7,,,,,3.4,,,,,,,,917.2040107353296,6.01641693271813,None,,,,,,,,,,B25R08,2022-12-09_11h13.20.846,t2_paradigm,2021.1.4,59.96879575044744,
4,,1,DISTANZIEREN,,Stimuli/9599.jpg,,Trials/StimuliNegative.xlsx,24,Nehmen Sie die Position eines uninvolvierten Beobachters ein. Denken Sie über das Bild in einer neutralen Weise nach.,,,,,,,,,0,1,1,1,0,12,12,18,,,,,3.7,,,,,,,,926.9441447793906,6.0028061224493285,None,,,,,,,,,,B25R08,2022-12-09_11h13.20.846,t2_paradigm,2021.1.4,59.96879575044744,
4,,1,DISTANZIEREN,,Stimuli/6561.jpg,,Trials/StimuliNegative.xlsx,24,Nehmen Sie die Position eines uninvolvierten Beobachters ein. Denken Sie über das Bild in einer neutralen Weise nach.,,,,,,,,,0,1,1,1,0,13,13,6,,,,,3.6,,,,,,,,936.5721391486677,6.013085913438772,None,,,,,,,,,,B25R08,2022-12-09_11h13.20.846,t2_paradigm,2021.1.4,59.96879575044744,
4,,1,DISTANZIEREN,,Stimuli/9420.jpg,,Trials/StimuliNegative.xlsx,24,Nehmen Sie die Position eines uninvolvierten Beobachters ein. Denken Sie über das Bild in einer neutralen Weise nach.,,,,,,,,,0,1,1,1,0,14,14,16,,,,,4.4,,,,,,,,947.0124535478171,5.9993802739900275,None,,,,,,,,,,B25R08,2022-12-09_11h13.20.846,t2_paradigm,2021.1.4,59.96879575044744,
4,,1,DISTANZIEREN,,Stimuli/3230.jpg,,Trials/StimuliNegative.xlsx,24,Nehmen Sie die Position eines uninvolvierten Beobachters ein. Denken Sie über das Bild in einer neutralen Weise nach.,,,,,,,,,0,1,1,1,0,15,15,5,,,,,4.2,,,,,,,,957.2448674829575,6.001555634829856,None,,,,,,,,,,B25R08,2022-12-09_11h13.20.846,t2_paradigm,2021.1.4,59.96879575044744,
4,,1,DISTANZIEREN,,Stimuli/9905.jpg,,Trials/StimuliNegative.xlsx,24,Nehmen Sie die Position eines uninvolvierten Beobachters ein. Denken Sie über das Bild in einer neutralen Weise nach.,,,,,,,,,0,1,1,1,0,16,16,19,,,,,3.4,,,,,,,,966.6812389002371,6.012614654764548,None,,,,,,,,,,B25R08,2022-12-09_11h13.20.846,t2_paradigm,2021.1.4,59.96879575044744,
4,,1,DISTANZIEREN,,Stimuli/2800.jpg,,Trials/StimuliNegative.xlsx,24,Nehmen Sie die Position eines uninvolvierten Beobachters ein. Denken Sie über das Bild in einer neutralen Weise nach.,,,,,,,,,0,1,1,1,0,17,17,3,,,,,4.6,,,,,,,,977.3234406438623,6.011647435634586,None,,,,,,,,,,B25R08,2022-12-09_11h13.20.846,t2_paradigm,2021.1.4,59.96879575044744,
4,,1,DISTANZIEREN,,Stimuli/9254.jpg,,Trials/StimuliNegative.xlsx,24,Nehmen Sie die Position eines uninvolvierten Beobachters ein. Denken Sie über das Bild in einer neutralen Weise nach.,,,,,,,,,0,1,1,1,0,18,18,12,,,,,3.8,,,,,,,,987.1626958819234,5.999443151253217,None,,,,,,,,,,B25R08,2022-12-09_11h13.20.846,t2_paradigm,2021.1.4,59.96879575044744,
4,,1,DISTANZIEREN,,Stimuli/9421.jpg,,Trials/StimuliNegative.xlsx,24,Nehmen Sie die Position eines uninvolvierten Beobachters ein. Denken Sie über das Bild in einer neutralen Weise nach.,,,,,,,,,0,1,1,1,0,19,19,17,,,,,3.4,,,,,,,,996.5910292751396,6.008917407505578,None,,,,,,,,,,B25R08,2022-12-09_11h13.20.846,t2_paradigm,2021.1.4,59.96879575044744,
4,,1,DISTANZIEREN,,,,Trials/StimuliNegative.xlsx,24,Nehmen Sie die Position eines uninvolvierten Beobachters ein. Denken Sie über das Bild in einer neutralen Weise nach.,,,,,,,,,0,1,1,1,,,,,,,,,,,,,207.4074074074074,5.217218489508014,192.22222222222223,7.520616043197151,,,,187.4074074074074,2.119172945838727,,,,,,,,B25R08,2022-12-09_11h13.20.846,t2_paradigm,2021.1.4,59.96879575044744,
5,,1,UNTERDRÜCKEN,,Stimuli/3350.jpg,,Trials/StimuliNegative.xlsx,25,"Unterdrücken Sie alle aufkommenden Emotionen. Wenn Sie also die Bilder ansehen, verhalten Sie sich so, dass eine außenstehende Person nicht sehen kann, welche Emotionen Sie gerade empfinden.",,,,,,,,,0,2,2,2,0,0,0,7,,,,,3.7,,,,,,,,1047.0142038455215,6.013254013880214,None,,,,,,,,,,B25R08,2022-12-09_11h13.20.846,t2_paradigm,2021.1.4,59.96879575044744,
5,,1,UNTERDRÜCKEN,,Stimuli/6825.jpg,,Trials/StimuliNegative.xlsx,25,"Unterdrücken Sie alle aufkommenden Emotionen. Wenn Sie also die Bilder ansehen, verhalten Sie sich so, dass eine außenstehende Person nicht sehen kann, welche Emotionen Sie gerade empfinden.",,,,,,,,,0,2,2,2,0,1,1,11,,,,,3.3,,,,,,,,1056.3555497525958,6.013462535416693,None,,,,,,,,,,B25R08,2022-12-09_11h13.20.846,t2_paradigm,2021.1.4,59.96879575044744,
5,,1,UNTERDRÜCKEN,,Stimuli/6410.jpg,,Trials/StimuliNegative.xlsx,25,"Unterdrücken Sie alle aufkommenden Emotionen. Wenn Sie also die Bilder ansehen, verhalten Sie sich so, dass eine außenstehende Person nicht sehen kann, welche Emotionen Sie gerade empfinden.",,,,,,,,,0,2,2,2,0,2,2,9,,,,,4.6,,,,,,,,1066.9954115637702,6.000863343322635,None,,,,,,,,,,B25R08,2022-12-09_11h13.20.846,t2_paradigm,2021.1.4,59.96879575044744,
5,,1,UNTERDRÜCKEN,,Stimuli/6940.jpg,,Trials/StimuliNegative.xlsx,25,"Unterdrücken Sie alle aufkommenden Emotionen. Wenn Sie also die Bilder ansehen, verhalten Sie sich so, dass eine außenstehende Person nicht sehen kann, welche Emotionen Sie gerade empfinden.",,,,,,,,,0,2,2,2,0,3,3,12,,,,,3.9,,,,,,,,1076.924759975669,6.0095349520579475,None,,,,,,,,,,B25R08,2022-12-09_11h13.20.846,t2_paradigm,2021.1.4,59.96879575044744,
5,,1,UNTERDRÜCKEN,,Stimuli/9340.jpg,,Trials/StimuliNegative.xlsx,25,"Unterdrücken Sie alle aufkommenden Emotionen. Wenn Sie also die Bilder ansehen, verhalten Sie sich so, dass eine außenstehende Person nicht sehen kann, welche Emotionen Sie gerade empfinden.",,,,,,,,,0,2,2,2,0,4,4,16,,,,,4.2,,,,,,,,1087.1623952901082,6.000248044389082,None,,,,,,,,,,B25R08,2022-12-09_11h13.20.846,t2_paradigm,2021.1.4,59.96879575044744,
5,,1,UNTERDRÜCKEN,,Stimuli/226.jpg,,Trials/StimuliNegative.xlsx,25,"Unterdrücken Sie alle aufkommenden Emotionen. Wenn Sie also die Bilder ansehen, verhalten Sie sich so, dass eine außenstehende Person nicht sehen kann, welche Emotionen Sie gerade empfinden.",,,,,,,,,0,2,2,2,0,5,5,2,,,,,4.8,,,,,,,,1097.9856120139193,6.00327629039748,None,,,,,,,,,,B25R08,2022-12-09_11h13.20.846,t2_paradigm,2021.1.4,59.96879575044744,
5,,1,UNTERDRÜCKEN,,Stimuli/254.jpg,,Trials/StimuliNegative.xlsx,25,"Unterdrücken Sie alle aufkommenden Emotionen. Wenn Sie also die Bilder ansehen, verhalten Sie sich so, dass eine außenstehende Person nicht sehen kann, welche Emotionen Sie gerade empfinden.",,,,,,,,,0,2,2,2,0,6,6,4,,,,,4.8,,,,,,,,1108.8199156674727,6.000665921548716,None,,,,,,,,,,B25R08,2022-12-09_11h13.20.846,t2_paradigm,2021.1.4,59.96879575044744,
5,,1,UNTERDRÜCKEN,,Stimuli/9570.jpg,,Trials/StimuliNegative.xlsx,25,"Unterdrücken Sie alle aufkommenden Emotionen. Wenn Sie also die Bilder ansehen, verhalten Sie sich so, dass eine außenstehende Person nicht sehen kann, welche Emotionen Sie gerade empfinden.",,,,,,,,,0,2,2,2,0,7,7,18,,,,,3.5,,,,,,,,1118.3722285883669,6.0143121484015865,None,,,,,,,,,,B25R08,2022-12-09_11h13.20.846,t2_paradigm,2021.1.4,59.96879575044744,
5,,1,UNTERDRÜCKEN,,Stimuli/219.jpg,,Trials/StimuliNegative.xlsx,25,"Unterdrücken Sie alle aufkommenden Emotionen. Wenn Sie also die Bilder ansehen, verhalten Sie sich so, dass eine außenstehende Person nicht sehen kann, welche Emotionen Sie gerade empfinden.",,,,,,,,,0,2,2,2,0,8,8,1,,,,,3.5,,,,,,,,1127.890833842339,6.009009670266096,None,,,,,,,,,,B25R08,2022-12-09_11h13.20.846,t2_paradigm,2021.1.4,59.96879575044744,
5,,1,UNTERDRÜCKEN,,Stimuli/9409.jpg,,Trials/StimuliNegative.xlsx,25,"Unterdrücken Sie alle aufkommenden Emotionen. Wenn Sie also die Bilder ansehen, verhalten Sie sich so, dass eine außenstehende Person nicht sehen kann, welche Emotionen Sie gerade empfinden.",,,,,,,,,0,2,2,2,0,9,9,17,,,,,4.7,,,,,,,,1138.634222747196,6.00736985689764,None,,,,,,,,,,B25R08,2022-12-09_11h13.20.846,t2_paradigm,2021.1.4,59.96879575044744,
5,,1,UNTERDRÜCKEN,,Stimuli/326.jpg,,Trials/StimuliNegative.xlsx,25,"Unterdrücken Sie alle aufkommenden Emotionen. Wenn Sie also die Bilder ansehen, verhalten Sie sich so, dass eine außenstehende Person nicht sehen kann, welche Emotionen Sie gerade empfinden.",,,,,,,,,0,2,2,2,0,10,10,5,,,,,3.3,,,,,,,,1147.9730580549622,6.012099446164939,None,,,,,,,,,,B25R08,2022-12-09_11h13.20.846,t2_paradigm,2021.1.4,59.96879575044744,
5,,1,UNTERDRÜCKEN,,Stimuli/1301.jpg,,Trials/StimuliNegative.xlsx,25,"Unterdrücken Sie alle aufkommenden Emotionen. Wenn Sie also die Bilder ansehen, verhalten Sie sich so, dass eine außenstehende Person nicht sehen kann, welche Emotionen Sie gerade empfinden.",,,,,,,,,0,2,2,2,0,11,11,6,,,,,3.7,,,,,,,,1157.7056619051036,6.012417361309417,None,,,,,,,,,,B25R08,2022-12-09_11h13.20.846,t2_paradigm,2021.1.4,59.96879575044744,
5,,1,UNTERDRÜCKEN,,Stimuli/208.jpg,,Trials/StimuliNegative.xlsx,25,"Unterdrücken Sie alle aufkommenden Emotionen. Wenn Sie also die Bilder ansehen, verhalten Sie sich so, dass eine außenstehende Person nicht sehen kann, welche Emotionen Sie gerade empfinden.",,,,,,,,,0,2,2,2,0,12,12,0,,,,,3.6,,,,,,,,1167.336674383032,6.000701209810359,None,,,,,,,,,,B25R08,2022-12-09_11h13.20.846,t2_paradigm,2021.1.4,59.96879575044744,
5,,1,UNTERDRÜCKEN,,Stimuli/6555.jpg,,Trials/StimuliNegative.xlsx,25,"Unterdrücken Sie alle aufkommenden Emotionen. Wenn Sie also die Bilder ansehen, verhalten Sie sich so, dass eine außenstehende Person nicht sehen kann, welche Emotionen Sie gerade empfinden.",,,,,,,,,0,2,2,2,0,13,13,10,,,,,3.5,,,,,,,,1176.876953044799,6.002927385741714,None,,,,,,,,,,B25R08,2022-12-09_11h13.20.846,t2_paradigm,2021.1.4,59.96879575044744,
5,,1,UNTERDRÜCKEN,,Stimuli/9800.jpg,,Trials/StimuliNegative.xlsx,25,"Unterdrücken Sie alle aufkommenden Emotionen. Wenn Sie also die Bilder ansehen, verhalten Sie sich so, dass eine außenstehende Person nicht sehen kann, welche Emotionen Sie gerade empfinden.",,,,,,,,,0,2,2,2,0,14,14,19,,,,,3.4,,,,,,,,1186.308531674742,6.00782218823224,None,,,,,,,,,,B25R08,2022-12-09_11h13.20.846,t2_paradigm,2021.1.4,59.96879575044744,
5,,1,UNTERDRÜCKEN,,Stimuli/253.jpg,,Trials/StimuliNegative.xlsx,25,"Unterdrücken Sie alle aufkommenden Emotionen. Wenn Sie also die Bilder ansehen, verhalten Sie sich so, dass eine außenstehende Person nicht sehen kann, welche Emotionen Sie gerade empfinden.",,,,,,,,,0,2,2,2,0,15,15,3,,,,,4.9,,,,,,,,1197.2418785673217,6.007193094792456,None,,,,,,,,,,B25R08,2022-12-09_11h13.20.846,t2_paradigm,2021.1.4,59.96879575044744,
5,,1,UNTERDRÜCKEN,,Stimuli/6242.jpg,,Trials/StimuliNegative.xlsx,25,"Unterdrücken Sie alle aufkommenden Emotionen. Wenn Sie also die Bilder ansehen, verhalten Sie sich so, dass eine außenstehende Person nicht sehen kann, welche Emotionen Sie gerade empfinden.",,,,,,,,,0,2,2,2,0,16,16,8,,,,,4.6,,,,,,,,1207.8908813210892,6.009523210694169,None,,,,,,,,,,B25R08,2022-12-09_11h13.20.846,t2_paradigm,2021.1.4,59.96879575044744,
5,,1,UNTERDRÜCKEN,,Stimuli/9140.jpg,,Trials/StimuliNegative.xlsx,25,"Unterdrücken Sie alle aufkommenden Emotionen. Wenn Sie also die Bilder ansehen, verhalten Sie sich so, dass eine außenstehende Person nicht sehen kann, welche Emotionen Sie gerade empfinden.",,,,,,,,,0,2,2,2,0,17,17,15,,,,,3.4,,,,,,,,1217.3213961703896,6.0162817465989065,None,,,,,,,,,,B25R08,2022-12-09_11h13.20.846,t2_paradigm,2021.1.4,59.96879575044744,
5,,1,UNTERDRÜCKEN,,Stimuli/9041.jpg,,Trials/StimuliNegative.xlsx,25,"Unterdrücken Sie alle aufkommenden Emotionen. Wenn Sie also die Bilder ansehen, verhalten Sie sich so, dass eine außenstehende Person nicht sehen kann, welche Emotionen Sie gerade empfinden.",,,,,,,,,0,2,2,2,0,18,18,14,,,,,4.8,,,,,,,,1228.1633288249905,5.998478498540862,None,,,,,,,,,,B25R08,2022-12-09_11h13.20.846,t2_paradigm,2021.1.4,59.96879575044744,
5,,1,UNTERDRÜCKEN,,Stimuli/8230.jpg,,Trials/StimuliNegative.xlsx,25,"Unterdrücken Sie alle aufkommenden Emotionen. Wenn Sie also die Bilder ansehen, verhalten Sie sich so, dass eine außenstehende Person nicht sehen kann, welche Emotionen Sie gerade empfinden.",,,,,,,,,0,2,2,2,0,19,19,13,,,,,3.6,,,,,,,,1237.7897596035382,6.011378603250705,None,,,,,,,,,,B25R08,2022-12-09_11h13.20.846,t2_paradigm,2021.1.4,59.96879575044744,
5,,1,UNTERDRÜCKEN,,,,Trials/StimuliNegative.xlsx,25,"Unterdrücken Sie alle aufkommenden Emotionen. Wenn Sie also die Bilder ansehen, verhalten Sie sich so, dass eine außenstehende Person nicht sehen kann, welche Emotionen Sie gerade empfinden.",,,,,,,,,0,2,2,2,,,,,,,,,,,,,214.07407407407408,7.1662343320131185,225.1851851851852,4.403350909025903,,,,195.92592592592592,3.603345840348993,,,,,,,,B25R08,2022-12-09_11h13.20.846,t2_paradigm,2021.1.4,59.96879575044744,
,,,,,,,,,,,,,,,,,,,,,,,,,,,,,,,,,,,,,,,,,,,1,28.5307383202271,,,,,,B25R08,2022-12-09_11h13.20.846,t2_paradigm,2021.1.4,59.96879575044744,
,,,,,,,,,,,,,,,,,,,,,,,,,,,,,,,,,,,,,,,,,,,,,space,2.277221684700635,,,,B25R08,2022-12-09_11h13.20.846,t2_paradigm,2021.1.4,59.96879575044744,
,,,,,Stimuli/6836.jpg,,,,,,,,,,,,,,,,,,,,,0,0,0,11,3.6,,,,,,,,,,,,,,,,,1480.1364888951048,6.0025247787725675,None,B25R08,2022-12-09_11h13.20.846,t2_paradigm,2021.1.4,59.96879575044744,
,,,,,Stimuli/3017.jpg,,,,,,,,,,,,,,,,,,,,,0,1,1,5,4.2,,,,,,,,,,,,,,,,,1490.383071708311,6.008794540199233,None,B25R08,2022-12-09_11h13.20.846,t2_paradigm,2021.1.4,59.96879575044744,
,,,,,Stimuli/9920.jpg,,,,,,,,,,,,,,,,,,,,,0,2,2,19,3.2,,,,,,,,,,,,,,,,,1499.6249695237748,6.009931463780958,None,B25R08,2022-12-09_11h13.20.846,t2_paradigm,2021.1.4,59.96879575044744,
,,,,,Stimuli/230.jpg,,,,,,,,,,,,,,,,,,,,,0,3,3,1,4.7,,,,,,,,,,,,,,,,,1510.3652023749637,6.01080693343647,None,B25R08,2022-12-09_11h13.20.846,t2_paradigm,2021.1.4,59.96879575044744,
,,,,,Stimuli/9182.jpg,,,,,,,,,,,,,,,,,,,,,0,4,4,13,4.9,,,,,,,,,,,,,,,,,1521.3281291704297,6.003569118793166,None,B25R08,2022-12-09_11h13.20.846,t2_paradigm,2021.1.4,59.96879575044744,
,,,,,Stimuli/9253.jpg,,,,,,,,,,,,,,,,,,,,,0,5,5,14,3.3,,,,,,,,,,,,,,,,,1530.6617058858246,6.002715656180953,None,B25R08,2022-12-09_11h13.20.846,t2_paradigm,2021.1.4,59.96879575044744,
,,,,,Stimuli/225.jpg,,,,,,,,,,,,,,,,,,,,,0,6,6,0,4.4,,,,,,,,,,,,,,,,,1541.0918405843222,6.00853661509791,None,B25R08,2022-12-09_11h13.20.846,t2_paradigm,2021.1.4,59.96879575044744,
,,,,,Stimuli/9180.jpg,,,,,,,,,,,,,,,,,,,,,0,7,7,12,5.0,,,,,,,,,,,,,,,,,1552.1392272640933,6.013624027325932,None,B25R08,2022-12-09_11h13.20.846,t2_paradigm,2021.1.4,59.96879575044744,
,,,,,Stimuli/255.jpg,,,,,,,,,,,,,,,,,,,,,0,8,8,2,3.1,,,,,,,,,,,,,,,,,1561.2694200919796,6.002620249559186,None,B25R08,2022-12-09_11h13.20.846,t2_paradigm,2021.1.4,59.96879575044744,
,,,,,Stimuli/6244.jpg,,,,,,,,,,,,,,,,,,,,,0,9,9,10,4.1,,,,,,,,,,,,,,,,,1571.4208814750746,6.015367588181107,None,B25R08,2022-12-09_11h13.20.846,t2_paradigm,2021.1.4,59.96879575044744,
,,,,,Stimuli/1111.jpg,,,,,,,,,,,,,,,,,,,,,0,10,10,4,3.2,,,,,,,,,,,,,,,,,1580.658988048186,6.008142348991896,None,B25R08,2022-12-09_11h13.20.846,t2_paradigm,2021.1.4,59.96879575044744,
,,,,,Stimuli/327.jpg,,,,,,,,,,,,,,,,,,,,,0,11,11,3,4.6,,,,,,,,,,,,,,,,,1591.2951510080893,6.001370531865177,None,B25R08,2022-12-09_11h13.20.846,t2_paradigm,2021.1.4,59.96879575044744,
,,,,,Stimuli/9326.jpg,,,,,,,,,,,,,,,,,,,,,0,12,12,16,4.1,,,,,,,,,,,,,,,,,1601.445149211595,6.002394340532192,None,B25R08,2022-12-09_11h13.20.846,t2_paradigm,2021.1.4,59.96879575044744,
,,,,,Stimuli/3180.jpg,,,,,,,,,,,,,,,,,,,,,0,13,13,7,3.7,,,,,,,,,,,,,,,,,1611.1754403974865,6.008593397116783,None,B25R08,2022-12-09_11h13.20.846,t2_paradigm,2021.1.4,59.96879575044744,
,,,,,Stimuli/6190.jpg,,,,,,,,,,,,,,,,,,,,,0,14,14,9,4.6,,,,,,,,,,,,,,,,,1621.8086356147087,6.0081237424547,None,B25R08,2022-12-09_11h13.20.846,t2_paradigm,2021.1.4,59.96879575044744,
,,,,,Stimuli/9424.jpg,,,,,,,,,,,,,,,,,,,,,0,15,15,17,3.4,,,,,,,,,,,,,,,,,1631.2474092000975,5.9977701669213275,None,B25R08,2022-12-09_11h13.20.846,t2_paradigm,2021.1.4,59.96879575044744,
,,,,,Stimuli/3022.jpg,,,,,,,,,,,,,,,,,,,,,0,16,16,6,4.9,,,,,,,,,,,,,,,,,1642.1786275689847,6.002028818318649,None,B25R08,2022-12-09_11h13.20.846,t2_paradigm,2021.1.4,59.96879575044744,
,,,,,Stimuli/9425.jpg,,,,,,,,,,,,,,,,,,,,,0,17,17,18,4.9,,,,,,,,,,,,,,,,,1653.1225092904351,6.013723476060477,None,B25R08,2022-12-09_11h13.20.846,t2_paradigm,2021.1.4,59.96879575044744,
,,,,,Stimuli/3280.jpg,,,,,,,,,,,,,,,,,,,,,0,18,18,8,4.0,,,,,,,,,,,,,,,,,1663.1570677252275,6.012227446310135,None,B25R08,2022-12-09_11h13.20.846,t2_paradigm,2021.1.4,59.96879575044744,
,,,,,Stimuli/9300.jpg,,,,,,,,,,,,,,,,,,,,,0,19,19,15,3.6,,,,,,,,,,,,,,,,,1672.7921707541154,6.0091878439016,None,B25R08,2022-12-09_11h13.20.846,t2_paradigm,2021.1.4,59.96879575044744,
,,,,,,,,,,,,,,,,,,,,,,,,,,,,,,,,,,160.0,6.816259803719731,197.77777777777777,3.4020843812868407,,,,300.3703703703704,3.185581281053601,,,,,,,,,,,,,
