Block,conds_view_File,n_reps,instr_1,TriggerBlockView,ImageFile,Trigger,conds_reg_File,TriggerBlockReg,instr_2,blocks_view.thisRepN,blocks_view.thisTrialN,blocks_view.thisN,blocks_view.thisIndex,trials_view.thisRepN,trials_view.thisTrialN,trials_view.thisN,trials_view.thisIndex,blocks_reg.thisRepN,blocks_reg.thisTrialN,blocks_reg.thisN,blocks_reg.thisIndex,trials_reg.thisRepN,trials_reg.thisTrialN,trials_reg.thisN,trials_reg.thisIndex,trials_choice.thisRepN,trials_choice.thisTrialN,trials_choice.thisN,trials_choice.thisIndex,Fix_jitter,image_view.started,image_view.lasted,image_view.stopped,slider_arousal.response,slider_arousal.rt,slider_effort.response,slider_effort.rt,image_reg.started,image_reg.lasted,image_reg.stopped,slider_utility.response,slider_utility.rt,resp_choice.keys,resp_choice.rt,key_resp.keys,key_resp.rt,image.started,image.lased,image.stopped,participant,date,expName,psychopyVersion,frameRate,
,,,,,,,,,,,,,,,,,,,,,,,,,,,,,,,,,,,,,,,,,,,,,,,,,,B31N11,2023-01-17_12h40.59.291,t2_paradigm,2021.1.4,60.00032722037042,
1,Trials/StimuliNeutral.xlsx,1,ANSCHAUEN,21,Stimuli/7211.jpg,1,,,,0,0,0,0,0,0,0,16,,,,,,,,,,,,,4.6,161.03435150624682,6.027466127292428,None,,,,,,,,,,,,,,,,,B31N11,2023-01-17_12h40.59.291,t2_paradigm,2021.1.4,60.00032722037042,
1,Trials/StimuliNeutral.xlsx,1,ANSCHAUEN,21,Stimuli/7150.jpg,1,,,,0,0,0,0,0,1,1,14,,,,,,,,,,,,,4.0,171.05773991598107,6.000954386729063,None,,,,,,,,,,,,,,,,,B31N11,2023-01-17_12h40.59.291,t2_paradigm,2021.1.4,60.00032722037042,
1,Trials/StimuliNeutral.xlsx,1,ANSCHAUEN,21,Stimuli/7233.jpg,1,,,,0,0,0,0,0,2,2,18,,,,,,,,,,,,,3.4,180.49484679285888,6.011182525258846,None,,,,,,,,,,,,,,,,,B31N11,2023-01-17_12h40.59.291,t2_paradigm,2021.1.4,60.00032722037042,
1,Trials/StimuliNeutral.xlsx,1,ANSCHAUEN,21,Stimuli/7002.jpg,1,,,,0,0,0,0,0,3,3,6,,,,,,,,,,,,,4.1,190.63980225748492,6.003550318637281,None,,,,,,,,,,,,,,,,,B31N11,2023-01-17_12h40.59.291,t2_paradigm,2021.1.4,60.00032722037042,
1,Trials/StimuliNeutral.xlsx,1,ANSCHAUEN,21,Stimuli/7235.jpg,1,,,,0,0,0,0,0,4,4,19,,,,,,,,,,,,,3.8,200.4760506675084,6.014947139807191,None,,,,,,,,,,,,,,,,,B31N11,2023-01-17_12h40.59.291,t2_paradigm,2021.1.4,60.00032722037042,
1,Trials/StimuliNeutral.xlsx,1,ANSCHAUEN,21,Stimuli/7224.jpg,1,,,,0,0,0,0,0,5,5,17,,,,,,,,,,,,,4.7,211.21261651137138,6.007737108962829,None,,,,,,,,,,,,,,,,,B31N11,2023-01-17_12h40.59.291,t2_paradigm,2021.1.4,60.00032722037042,
1,Trials/StimuliNeutral.xlsx,1,ANSCHAUEN,21,Stimuli/7006.jpg,1,,,,0,0,0,0,0,6,6,8,,,,,,,,,,,,,3.5,220.7427477034562,6.015095992055649,None,,,,,,,,,,,,,,,,,B31N11,2023-01-17_12h40.59.291,t2_paradigm,2021.1.4,60.00032722037042,
1,Trials/StimuliNeutral.xlsx,1,ANSCHAUEN,21,Stimuli/7100.jpg,1,,,,0,0,0,0,0,7,7,13,,,,,,,,,,,,,3.5,230.27579466730458,6.015116523401957,None,,,,,,,,,,,,,,,,,B31N11,2023-01-17_12h40.59.291,t2_paradigm,2021.1.4,60.00032722037042,
1,Trials/StimuliNeutral.xlsx,1,ANSCHAUEN,21,Stimuli/7021.jpg,1,,,,0,0,0,0,0,8,8,10,,,,,,,,,,,,,4.1,240.41888723319244,6.011532199727299,None,,,,,,,,,,,,,,,,,B31N11,2023-01-17_12h40.59.291,t2_paradigm,2021.1.4,60.00032722037042,
1,Trials/StimuliNeutral.xlsx,1,ANSCHAUEN,21,Stimuli/140.jpg,1,,,,0,0,0,0,0,9,9,3,,,,,,,,,,,,,4.6,251.07316729677586,6.003220213107852,None,,,,,,,,,,,,,,,,,B31N11,2023-01-17_12h40.59.291,t2_paradigm,2021.1.4,60.00032722037042,
1,Trials/StimuliNeutral.xlsx,1,ANSCHAUEN,21,Stimuli/7041.jpg,1,,,,0,0,0,0,0,10,10,12,,,,,,,,,,,,,4.4,261.52427366357733,6.002186588219047,None,,,,,,,,,,,,,,,,,B31N11,2023-01-17_12h40.59.291,t2_paradigm,2021.1.4,60.00032722037042,
1,Trials/StimuliNeutral.xlsx,1,ANSCHAUEN,21,Stimuli/7185.jpg,1,,,,0,0,0,0,0,11,11,15,,,,,,,,,,,,,3.1,270.66344281779857,6.007462823028618,None,,,,,,,,,,,,,,,,,B31N11,2023-01-17_12h40.59.291,t2_paradigm,2021.1.4,60.00032722037042,
1,Trials/StimuliNeutral.xlsx,1,ANSCHAUEN,21,Stimuli/107.jpg,1,,,,0,0,0,0,0,12,12,1,,,,,,,,,,,,,4.4,281.0878687020504,6.006915213565662,None,,,,,,,,,,,,,,,,,B31N11,2023-01-17_12h40.59.291,t2_paradigm,2021.1.4,60.00032722037042,
1,Trials/StimuliNeutral.xlsx,1,ANSCHAUEN,21,Stimuli/7025.jpg,1,,,,0,0,0,0,0,13,13,11,,,,,,,,,,,,,3.9,291.03551986808634,6.011022444930859,None,,,,,,,,,,,,,,,,,B31N11,2023-01-17_12h40.59.291,t2_paradigm,2021.1.4,60.00032722037042,
1,Trials/StimuliNeutral.xlsx,1,ANSCHAUEN,21,Stimuli/124.jpg,1,,,,0,0,0,0,0,14,14,2,,,,,,,,,,,,,3.5,300.5697833141112,6.010475156268512,None,,,,,,,,,,,,,,,,,B31N11,2023-01-17_12h40.59.291,t2_paradigm,2021.1.4,60.00032722037042,
1,Trials/StimuliNeutral.xlsx,1,ANSCHAUEN,21,Stimuli/143.jpg,1,,,,0,0,0,0,0,15,15,4,,,,,,,,,,,,,4.7,311.3088664933257,6.014943290181691,None,,,,,,,,,,,,,,,,,B31N11,2023-01-17_12h40.59.291,t2_paradigm,2021.1.4,60.00032722037042,
1,Trials/StimuliNeutral.xlsx,1,ANSCHAUEN,21,Stimuli/7009.jpg,1,,,,0,0,0,0,0,16,16,9,,,,,,,,,,,,,3.8,321.1542824695989,6.007966482580741,None,,,,,,,,,,,,,,,,,B31N11,2023-01-17_12h40.59.291,t2_paradigm,2021.1.4,60.00032722037042,
1,Trials/StimuliNeutral.xlsx,1,ANSCHAUEN,21,Stimuli/7000.jpg,1,,,,0,0,0,0,0,17,17,5,,,,,,,,,,,,,4.9,332.0934788920131,6.0132696647779085,None,,,,,,,,,,,,,,,,,B31N11,2023-01-17_12h40.59.291,t2_paradigm,2021.1.4,60.00032722037042,
1,Trials/StimuliNeutral.xlsx,1,ANSCHAUEN,21,Stimuli/083.jpg,1,,,,0,0,0,0,0,18,18,0,,,,,,,,,,,,,4.3,342.4335392349185,5.999548310415776,None,,,,,,,,,,,,,,,,,B31N11,2023-01-17_12h40.59.291,t2_paradigm,2021.1.4,60.00032722037042,
1,Trials/StimuliNeutral.xlsx,1,ANSCHAUEN,21,Stimuli/7004.jpg,1,,,,0,0,0,0,0,19,19,7,,,,,,,,,,,,,3.0,351.46741787862993,5.999317011983294,None,,,,,,,,,,,,,,,,,B31N11,2023-01-17_12h40.59.291,t2_paradigm,2021.1.4,60.00032722037042,
1,Trials/StimuliNeutral.xlsx,1,ANSCHAUEN,21,,,,,,0,0,0,0,,,,,,,,,,,,,,,,,,,,,5.9259259259259345,8.433746152379172,7.037037037037042,4.319194080557281,,,,,,,,,,,,,B31N11,2023-01-17_12h40.59.291,t2_paradigm,2021.1.4,60.00032722037042,
2,Trials/StimuliNegative.xlsx,1,ANSCHAUEN,22,Stimuli/3180.jpg,,,,,0,1,1,1,0,0,0,7,,,,,,,,,,,,,3.4,382.46569452887707,6.001999560499826,None,,,,,,,,,,,,,,,,,B31N11,2023-01-17_12h40.59.291,t2_paradigm,2021.1.4,60.00032722037042,
2,Trials/StimuliNegative.xlsx,1,ANSCHAUEN,22,Stimuli/225.jpg,,,,,0,1,1,1,0,1,1,0,,,,,,,,,,,,,4.6,393.0943463413296,6.010510123718632,None,,,,,,,,,,,,,,,,,B31N11,2023-01-17_12h40.59.291,t2_paradigm,2021.1.4,60.00032722037042,
2,Trials/StimuliNegative.xlsx,1,ANSCHAUEN,22,Stimuli/9326.jpg,,,,,0,1,1,1,0,2,2,16,,,,,,,,,,,,,3.3,402.4437237443399,6.0128061055092985,None,,,,,,,,,,,,,,,,,B31N11,2023-01-17_12h40.59.291,t2_paradigm,2021.1.4,60.00032722037042,
2,Trials/StimuliNegative.xlsx,1,ANSCHAUEN,22,Stimuli/9253.jpg,,,,,0,1,1,1,0,3,3,14,,,,,,,,,,,,,4.3,412.79151093053406,6.000908191204871,None,,,,,,,,,,,,,,,,,B31N11,2023-01-17_12h40.59.291,t2_paradigm,2021.1.4,60.00032722037042,
2,Trials/StimuliNegative.xlsx,1,ANSCHAUEN,22,Stimuli/9425.jpg,,,,,0,1,1,1,0,4,4,18,,,,,,,,,,,,,4.6,423.42658809149907,6.013446106022457,None,,,,,,,,,,,,,,,,,B31N11,2023-01-17_12h40.59.291,t2_paradigm,2021.1.4,60.00032722037042,
2,Trials/StimuliNegative.xlsx,1,ANSCHAUEN,22,Stimuli/6836.jpg,,,,,0,1,1,1,0,5,5,11,,,,,,,,,,,,,3.3,432.75772467787465,6.001293153918596,None,,,,,,,,,,,,,,,,,B31N11,2023-01-17_12h40.59.291,t2_paradigm,2021.1.4,60.00032722037042,
2,Trials/StimuliNegative.xlsx,1,ANSCHAUEN,22,Stimuli/9300.jpg,,,,,0,1,1,1,0,6,6,15,,,,,,,,,,,,,4.6,443.39590945035343,6.007796457381119,None,,,,,,,,,,,,,,,,,B31N11,2023-01-17_12h40.59.291,t2_paradigm,2021.1.4,60.00032722037042,
2,Trials/StimuliNegative.xlsx,1,ANSCHAUEN,22,Stimuli/6190.jpg,,,,,0,1,1,1,0,7,7,9,,,,,,,,,,,,,4.2,453.6254078599759,6.000376621856049,None,,,,,,,,,,,,,,,,,B31N11,2023-01-17_12h40.59.291,t2_paradigm,2021.1.4,60.00032722037042,
2,Trials/StimuliNegative.xlsx,1,ANSCHAUEN,22,Stimuli/1111.jpg,,,,,0,1,1,1,0,8,8,4,,,,,,,,,,,,,3.1,462.758685159848,6.0006281308305915,None,,,,,,,,,,,,,,,,,B31N11,2023-01-17_12h40.59.291,t2_paradigm,2021.1.4,60.00032722037042,
2,Trials/StimuliNegative.xlsx,1,ANSCHAUEN,22,Stimuli/327.jpg,,,,,0,1,1,1,0,9,9,3,,,,,,,,,,,,,4.9,473.69830953247947,6.0027986789355054,None,,,,,,,,,,,,,,,,,B31N11,2023-01-17_12h40.59.291,t2_paradigm,2021.1.4,60.00032722037042,
2,Trials/StimuliNegative.xlsx,1,ANSCHAUEN,22,Stimuli/3017.jpg,,,,,0,1,1,1,0,10,10,5,,,,,,,,,,,,,4.1,483.8318223012102,6.001182477137263,None,,,,,,,,,,,,,,,,,B31N11,2023-01-17_12h40.59.291,t2_paradigm,2021.1.4,60.00032722037042,
2,Trials/StimuliNegative.xlsx,1,ANSCHAUEN,22,Stimuli/3022.jpg,,,,,0,1,1,1,0,11,11,6,,,,,,,,,,,,,3.4,493.259498874786,6.015538057574304,None,,,,,,,,,,,,,,,,,B31N11,2023-01-17_12h40.59.291,t2_paradigm,2021.1.4,60.00032722037042,
2,Trials/StimuliNegative.xlsx,1,ANSCHAUEN,22,Stimuli/3280.jpg,,,,,0,1,1,1,0,12,12,8,,,,,,,,,,,,,3.2,502.49832396858073,6.0031868496735115,None,,,,,,,,,,,,,,,,,B31N11,2023-01-17_12h40.59.291,t2_paradigm,2021.1.4,60.00032722037042,
2,Trials/StimuliNegative.xlsx,1,ANSCHAUEN,22,Stimuli/9182.jpg,,,,,0,1,1,1,0,13,13,13,,,,,,,,,,,,,3.8,512.3253121005,6.01706090591324,None,,,,,,,,,,,,,,,,,B31N11,2023-01-17_12h40.59.291,t2_paradigm,2021.1.4,60.00032722037042,
2,Trials/StimuliNegative.xlsx,1,ANSCHAUEN,22,Stimuli/230.jpg,,,,,0,1,1,1,0,14,14,1,,,,,,,,,,,,,3.8,522.1573134093742,6.000849805193866,None,,,,,,,,,,,,,,,,,B31N11,2023-01-17_12h40.59.291,t2_paradigm,2021.1.4,60.00032722037042,
2,Trials/StimuliNegative.xlsx,1,ANSCHAUEN,22,Stimuli/6244.jpg,,,,,0,1,1,1,0,15,15,10,,,,,,,,,,,,,4.0,532.2062392831995,6.002981536226798,None,,,,,,,,,,,,,,,,,B31N11,2023-01-17_12h40.59.291,t2_paradigm,2021.1.4,60.00032722037042,
2,Trials/StimuliNegative.xlsx,1,ANSCHAUEN,22,Stimuli/9424.jpg,,,,,0,1,1,1,0,16,16,17,,,,,,,,,,,,,4.7,542.9516743472068,5.997208057913667,None,,,,,,,,,,,,,,,,,B31N11,2023-01-17_12h40.59.291,t2_paradigm,2021.1.4,60.00032722037042,
2,Trials/StimuliNegative.xlsx,1,ANSCHAUEN,22,Stimuli/9180.jpg,,,,,0,1,1,1,0,17,17,12,,,,,,,,,,,,,4.9,553.8857263845421,6.011729172314517,None,,,,,,,,,,,,,,,,,B31N11,2023-01-17_12h40.59.291,t2_paradigm,2021.1.4,60.00032722037042,
2,Trials/StimuliNegative.xlsx,1,ANSCHAUEN,22,Stimuli/255.jpg,,,,,0,1,1,1,0,18,18,2,,,,,,,,,,,,,4.2,564.1317082560072,6.003080022521317,None,,,,,,,,,,,,,,,,,B31N11,2023-01-17_12h40.59.291,t2_paradigm,2021.1.4,60.00032722037042,
2,Trials/StimuliNegative.xlsx,1,ANSCHAUEN,22,Stimuli/9920.jpg,,,,,0,1,1,1,0,19,19,19,,,,,,,,,,,,,4.1,574.265571020007,6.002648864279763,None,,,,,,,,,,,,,,,,,B31N11,2023-01-17_12h40.59.291,t2_paradigm,2021.1.4,60.00032722037042,
2,Trials/StimuliNegative.xlsx,1,ANSCHAUEN,22,,,,,,0,1,1,1,,,,,,,,,,,,,,,,,,,,,142.22222222222223,13.61529841828451,8.518518518518526,3.57168759634078,,,,,,,,,,,,,B31N11,2023-01-17_12h40.59.291,t2_paradigm,2021.1.4,60.00032722037042,
3,,1,ABLENKEN,,Stimuli/3101.jpg,,Trials/StimuliNegative.xlsx,23,"Denken Sie während des Betrachtens der Bilder an etwas Neutrales, das mit dem Bild nichts zu tun hat. Das könnten geometrische Figuren, Alltagstätigkeiten oder bekannte Orte sein.",,,,,,,,,0,0,0,0,0,0,0,5,,,,,4.8,,,,,,,,620.125640922819,6.015589385937346,None,,,,,,,,,,B31N11,2023-01-17_12h40.59.291,t2_paradigm,2021.1.4,60.00032722037042,
3,,1,ABLENKEN,,Stimuli/9400.jpg,,Trials/StimuliNegative.xlsx,23,"Denken Sie während des Betrachtens der Bilder an etwas Neutrales, das mit dem Bild nichts zu tun hat. Das könnten geometrische Figuren, Alltagstätigkeiten oder bekannte Orte sein.",,,,,,,,,0,0,0,0,0,1,1,15,,,,,3.7,,,,,,,,629.8642515603024,6.005495663555848,None,,,,,,,,,,B31N11,2023-01-17_12h40.59.291,t2_paradigm,2021.1.4,60.00032722037042,
3,,1,ABLENKEN,,Stimuli/8231.jpg,,Trials/StimuliNegative.xlsx,23,"Denken Sie während des Betrachtens der Bilder an etwas Neutrales, das mit dem Bild nichts zu tun hat. Das könnten geometrische Figuren, Alltagstätigkeiten oder bekannte Orte sein.",,,,,,,,,0,0,0,0,0,2,2,13,,,,,4.0,,,,,,,,639.9010642615049,5.998583337210221,None,,,,,,,,,,B31N11,2023-01-17_12h40.59.291,t2_paradigm,2021.1.4,60.00032722037042,
3,,1,ABLENKEN,,Stimuli/6571.jpg,,Trials/StimuliNegative.xlsx,23,"Denken Sie während des Betrachtens der Bilder an etwas Neutrales, das mit dem Bild nichts zu tun hat. Das könnten geometrische Figuren, Alltagstätigkeiten oder bekannte Orte sein.",,,,,,,,,0,0,0,0,0,3,3,11,,,,,4.5,,,,,,,,650.4348493913585,5.997496138345014,None,,,,,,,,,,B31N11,2023-01-17_12h40.59.291,t2_paradigm,2021.1.4,60.00032722037042,
3,,1,ABLENKEN,,Stimuli/3181.jpg,,Trials/StimuliNegative.xlsx,23,"Denken Sie während des Betrachtens der Bilder an etwas Neutrales, das mit dem Bild nichts zu tun hat. Das könnten geometrische Figuren, Alltagstätigkeiten oder bekannte Orte sein.",,,,,,,,,0,0,0,0,0,4,4,6,,,,,3.1,,,,,,,,659.5587127488416,6.016451381616207,None,,,,,,,,,,B31N11,2023-01-17_12h40.59.291,t2_paradigm,2021.1.4,60.00032722037042,
3,,1,ABLENKEN,,Stimuli/9423.jpg,,Trials/StimuliNegative.xlsx,23,"Denken Sie während des Betrachtens der Bilder an etwas Neutrales, das mit dem Bild nichts zu tun hat. Das könnten geometrische Figuren, Alltagstätigkeiten oder bekannte Orte sein.",,,,,,,,,0,0,0,0,0,5,5,19,,,,,3.4,,,,,,,,668.9949476851707,6.0113307359042665,None,,,,,,,,,,B31N11,2023-01-17_12h40.59.291,t2_paradigm,2021.1.4,60.00032722037042,
3,,1,ABLENKEN,,Stimuli/9403.jpg,,Trials/StimuliNegative.xlsx,23,"Denken Sie während des Betrachtens der Bilder an etwas Neutrales, das mit dem Bild nichts zu tun hat. Das könnten geometrische Figuren, Alltagstätigkeiten oder bekannte Orte sein.",,,,,,,,,0,0,0,0,0,6,6,17,,,,,4.8,,,,,,,,679.8432130271376,6.014285324739831,None,,,,,,,,,,B31N11,2023-01-17_12h40.59.291,t2_paradigm,2021.1.4,60.00032722037042,
3,,1,ABLENKEN,,Stimuli/6020.jpg,,Trials/StimuliNegative.xlsx,23,"Denken Sie während des Betrachtens der Bilder an etwas Neutrales, das mit dem Bild nichts zu tun hat. Das könnten geometrische Figuren, Alltagstätigkeiten oder bekannte Orte sein.",,,,,,,,,0,0,0,0,0,7,7,10,,,,,3.5,,,,,,,,689.3682145910498,5.996739686606816,None,,,,,,,,,,B31N11,2023-01-17_12h40.59.291,t2_paradigm,2021.1.4,60.00032722037042,
3,,1,ABLENKEN,,Stimuli/9373.jpg,,Trials/StimuliNegative.xlsx,23,"Denken Sie während des Betrachtens der Bilder an etwas Neutrales, das mit dem Bild nichts zu tun hat. Das könnten geometrische Figuren, Alltagstätigkeiten oder bekannte Orte sein.",,,,,,,,,0,0,0,0,0,8,8,14,,,,,4.6,,,,,,,,700.0128981757571,6.0087970396380115,None,,,,,,,,,,B31N11,2023-01-17_12h40.59.291,t2_paradigm,2021.1.4,60.00032722037042,
3,,1,ABLENKEN,,Stimuli/3220.jpg,,Trials/StimuliNegative.xlsx,23,"Denken Sie während des Betrachtens der Bilder an etwas Neutrales, das mit dem Bild nichts zu tun hat. Das könnten geometrische Figuren, Alltagstätigkeiten oder bekannte Orte sein.",,,,,,,,,0,0,0,0,0,9,9,8,,,,,4.1,,,,,,,,710.1402621275283,6.002645335454872,None,,,,,,,,,,B31N11,2023-01-17_12h40.59.291,t2_paradigm,2021.1.4,60.00032722037042,
3,,1,ABLENKEN,,Stimuli/3215.jpg,,Trials/StimuliNegative.xlsx,23,"Denken Sie während des Betrachtens der Bilder an etwas Neutrales, das mit dem Bild nichts zu tun hat. Das könnten geometrische Figuren, Alltagstätigkeiten oder bekannte Orte sein.",,,,,,,,,0,0,0,0,0,10,10,7,,,,,3.7,,,,,,,,719.8766662870512,6.013695048577574,None,,,,,,,,,,B31N11,2023-01-17_12h40.59.291,t2_paradigm,2021.1.4,60.00032722037042,
3,,1,ABLENKEN,,Stimuli/9402.jpg,,Trials/StimuliNegative.xlsx,23,"Denken Sie während des Betrachtens der Bilder an etwas Neutrales, das mit dem Bild nichts zu tun hat. Das könnten geometrische Figuren, Alltagstätigkeiten oder bekannte Orte sein.",,,,,,,,,0,0,0,0,0,11,11,16,,,,,3.4,,,,,,,,729.3136961713844,6.007195594744189,None,,,,,,,,,,B31N11,2023-01-17_12h40.59.291,t2_paradigm,2021.1.4,60.00032722037042,
3,,1,ABLENKEN,,Stimuli/9405.jpg,,Trials/StimuliNegative.xlsx,23,"Denken Sie während des Betrachtens der Bilder an etwas Neutrales, das mit dem Bild nichts zu tun hat. Das könnten geometrische Figuren, Alltagstätigkeiten oder bekannte Orte sein.",,,,,,,,,0,0,0,0,0,12,12,18,,,,,3.6,,,,,,,,738.9431650671995,6.015391450942843,None,,,,,,,,,,B31N11,2023-01-17_12h40.59.291,t2_paradigm,2021.1.4,60.00032722037042,
3,,1,ABLENKEN,,Stimuli/238.jpg,,Trials/StimuliNegative.xlsx,23,"Denken Sie während des Betrachtens der Bilder an etwas Neutrales, das mit dem Bild nichts zu tun hat. Das könnten geometrische Figuren, Alltagstätigkeiten oder bekannte Orte sein.",,,,,,,,,0,0,0,0,0,13,13,1,,,,,4.1,,,,,,,,749.0800459388829,6.006308576486845,None,,,,,,,,,,B31N11,2023-01-17_12h40.59.291,t2_paradigm,2021.1.4,60.00032722037042,
3,,1,ABLENKEN,,Stimuli/2981.jpg,,Trials/StimuliNegative.xlsx,23,"Denken Sie während des Betrachtens der Bilder an etwas Neutrales, das mit dem Bild nichts zu tun hat. Das könnten geometrische Figuren, Alltagstätigkeiten oder bekannte Orte sein.",,,,,,,,,0,0,0,0,0,14,14,3,,,,,3.2,,,,,,,,758.3173051968352,6.000376942658477,None,,,,,,,,,,B31N11,2023-01-17_12h40.59.291,t2_paradigm,2021.1.4,60.00032722037042,
3,,1,ABLENKEN,,Stimuli/3225.jpg,,Trials/StimuliNegative.xlsx,23,"Denken Sie während des Betrachtens der Bilder an etwas Neutrales, das mit dem Bild nichts zu tun hat. Das könnten geometrische Figuren, Alltagstätigkeiten oder bekannte Orte sein.",,,,,,,,,0,0,0,0,0,15,15,9,,,,,4.5,,,,,,,,768.8491106559286,6.001782377370546,None,,,,,,,,,,B31N11,2023-01-17_12h40.59.291,t2_paradigm,2021.1.4,60.00032722037042,
3,,1,ABLENKEN,,Stimuli/245.jpg,,Trials/StimuliNegative.xlsx,23,"Denken Sie während des Betrachtens der Bilder an etwas Neutrales, das mit dem Bild nichts zu tun hat. Das könnten geometrische Figuren, Alltagstätigkeiten oder bekannte Orte sein.",,,,,,,,,0,0,0,0,0,16,16,2,,,,,4.5,,,,,,,,779.3753280604142,6.015746579048937,None,,,,,,,,,,B31N11,2023-01-17_12h40.59.291,t2_paradigm,2021.1.4,60.00032722037042,
3,,1,ABLENKEN,,Stimuli/223.jpg,,Trials/StimuliNegative.xlsx,23,"Denken Sie während des Betrachtens der Bilder an etwas Neutrales, das mit dem Bild nichts zu tun hat. Das könnten geometrische Figuren, Alltagstätigkeiten oder bekannte Orte sein.",,,,,,,,,0,0,0,0,0,17,17,0,,,,,4.7,,,,,,,,790.1077638959505,6.001362768010949,None,,,,,,,,,,B31N11,2023-01-17_12h40.59.291,t2_paradigm,2021.1.4,60.00032722037042,
3,,1,ABLENKEN,,Stimuli/3016.jpg,,Trials/StimuliNegative.xlsx,23,"Denken Sie während des Betrachtens der Bilder an etwas Neutrales, das mit dem Bild nichts zu tun hat. Das könnten geometrische Figuren, Alltagstätigkeiten oder bekannte Orte sein.",,,,,,,,,0,0,0,0,0,18,18,4,,,,,3.0,,,,,,,,799.154705286981,6.007226712563352,None,,,,,,,,,,B31N11,2023-01-17_12h40.59.291,t2_paradigm,2021.1.4,60.00032722037042,
3,,1,ABLENKEN,,Stimuli/6831.jpg,,Trials/StimuliNegative.xlsx,23,"Denken Sie während des Betrachtens der Bilder an etwas Neutrales, das mit dem Bild nichts zu tun hat. Das könnten geometrische Figuren, Alltagstätigkeiten oder bekannte Orte sein.",,,,,,,,,0,0,0,0,0,19,19,12,,,,,4.4,,,,,,,,809.5968022430498,6.006667233417829,None,,,,,,,,,,B31N11,2023-01-17_12h40.59.291,t2_paradigm,2021.1.4,60.00032722037042,
3,,1,ABLENKEN,,,,Trials/StimuliNegative.xlsx,23,"Denken Sie während des Betrachtens der Bilder an etwas Neutrales, das mit dem Bild nichts zu tun hat. Das könnten geometrische Figuren, Alltagstätigkeiten oder bekannte Orte sein.",,,,,,,,,0,0,0,0,,,,,,,,,,,,,235.92592592592592,9.801022396810367,101.85185185185186,4.248805252174861,,,,96.66666666666666,9.938958066331907,,,,,,,,B31N11,2023-01-17_12h40.59.291,t2_paradigm,2021.1.4,60.00032722037042,
5,,1,UNTERDRÜCKEN,,Stimuli/9905.jpg,,Trials/StimuliNegative.xlsx,25,"Unterdrücken Sie alle aufkommenden Emotionen. Wenn Sie also die Bilder ansehen, verhalten Sie sich so, dass eine außenstehende Person nicht sehen kann, welche Emotionen Sie gerade empfinden.",,,,,,,,,0,1,1,2,0,0,0,19,,,,,4.6,,,,,,,,868.036765543271,6.010152429196751,None,,,,,,,,,,B31N11,2023-01-17_12h40.59.291,t2_paradigm,2021.1.4,60.00032722037042,
5,,1,UNTERDRÜCKEN,,Stimuli/9185.jpg,,Trials/StimuliNegative.xlsx,25,"Unterdrücken Sie alle aufkommenden Emotionen. Wenn Sie also die Bilder ansehen, verhalten Sie sich so, dass eine außenstehende Person nicht sehen kann, welche Emotionen Sie gerade empfinden.",,,,,,,,,0,1,1,2,0,1,1,10,,,,,4.3,,,,,,,,878.3841411401627,5.999890285625952,None,,,,,,,,,,B31N11,2023-01-17_12h40.59.291,t2_paradigm,2021.1.4,60.00032722037042,
5,,1,UNTERDRÜCKEN,,Stimuli/9411.jpg,,Trials/StimuliNegative.xlsx,25,"Unterdrücken Sie alle aufkommenden Emotionen. Wenn Sie also die Bilder ansehen, verhalten Sie sich so, dass eine außenstehende Person nicht sehen kann, welche Emotionen Sie gerade empfinden.",,,,,,,,,0,1,1,2,0,2,2,15,,,,,4.2,,,,,,,,888.6189071229328,6.012034255267281,None,,,,,,,,,,B31N11,2023-01-17_12h40.59.291,t2_paradigm,2021.1.4,60.00032722037042,
5,,1,UNTERDRÜCKEN,,Stimuli/9230.jpg,,Trials/StimuliNegative.xlsx,25,"Unterdrücken Sie alle aufkommenden Emotionen. Wenn Sie also die Bilder ansehen, verhalten Sie sich so, dass eine außenstehende Person nicht sehen kann, welche Emotionen Sie gerade empfinden.",,,,,,,,,0,1,1,2,0,3,3,11,,,,,4.8,,,,,,,,899.4644324927776,6.005360285000279,None,,,,,,,,,,B31N11,2023-01-17_12h40.59.291,t2_paradigm,2021.1.4,60.00032722037042,
5,,1,UNTERDRÜCKEN,,Stimuli/2800.jpg,,Trials/StimuliNegative.xlsx,25,"Unterdrücken Sie alle aufkommenden Emotionen. Wenn Sie also die Bilder ansehen, verhalten Sie sich so, dass eine außenstehende Person nicht sehen kann, welche Emotionen Sie gerade empfinden.",,,,,,,,,0,1,1,2,0,4,4,3,,,,,4.3,,,,,,,,909.797675466807,6.005652535863192,None,,,,,,,,,,B31N11,2023-01-17_12h40.59.291,t2_paradigm,2021.1.4,60.00032722037042,
5,,1,UNTERDRÜCKEN,,Stimuli/9332.jpg,,Trials/StimuliNegative.xlsx,25,"Unterdrücken Sie alle aufkommenden Emotionen. Wenn Sie also die Bilder ansehen, verhalten Sie sich so, dass eine außenstehende Person nicht sehen kann, welche Emotionen Sie gerade empfinden.",,,,,,,,,0,1,1,2,0,5,5,14,,,,,4.7,,,,,,,,920.5354231462043,5.997144859868058,None,,,,,,,,,,B31N11,2023-01-17_12h40.59.291,t2_paradigm,2021.1.4,60.00032722037042,
5,,1,UNTERDRÜCKEN,,Stimuli/1051.jpg,,Trials/StimuliNegative.xlsx,25,"Unterdrücken Sie alle aufkommenden Emotionen. Wenn Sie also die Bilder ansehen, verhalten Sie sich so, dass eine außenstehende Person nicht sehen kann, welche Emotionen Sie gerade empfinden.",,,,,,,,,0,1,1,2,0,6,6,2,,,,,4.0,,,,,,,,930.5673028710189,5.998554465006237,None,,,,,,,,,,B31N11,2023-01-17_12h40.59.291,t2_paradigm,2021.1.4,60.00032722037042,
5,,1,UNTERDRÜCKEN,,Stimuli/9295.jpg,,Trials/StimuliNegative.xlsx,25,"Unterdrücken Sie alle aufkommenden Emotionen. Wenn Sie also die Bilder ansehen, verhalten Sie sich so, dass eine außenstehende Person nicht sehen kann, welche Emotionen Sie gerade empfinden.",,,,,,,,,0,1,1,2,0,7,7,13,,,,,4.8,,,,,,,,941.4280336264928,6.011628119604211,None,,,,,,,,,,B31N11,2023-01-17_12h40.59.291,t2_paradigm,2021.1.4,60.00032722037042,
5,,1,UNTERDRÜCKEN,,Stimuli/9254.jpg,,Trials/StimuliNegative.xlsx,25,"Unterdrücken Sie alle aufkommenden Emotionen. Wenn Sie also die Bilder ansehen, verhalten Sie sich so, dass eine außenstehende Person nicht sehen kann, welche Emotionen Sie gerade empfinden.",,,,,,,,,0,1,1,2,0,8,8,12,,,,,3.2,,,,,,,,950.6624297242543,6.010073832640046,None,,,,,,,,,,B31N11,2023-01-17_12h40.59.291,t2_paradigm,2021.1.4,60.00032722037042,
5,,1,UNTERDRÜCKEN,,Stimuli/9421.jpg,,Trials/StimuliNegative.xlsx,25,"Unterdrücken Sie alle aufkommenden Emotionen. Wenn Sie also die Bilder ansehen, verhalten Sie sich so, dass eine außenstehende Person nicht sehen kann, welche Emotionen Sie gerade empfinden.",,,,,,,,,0,1,1,2,0,9,9,17,,,,,3.6,,,,,,,,960.2901316412081,6.003312924962302,None,,,,,,,,,,B31N11,2023-01-17_12h40.59.291,t2_paradigm,2021.1.4,60.00032722037042,
5,,1,UNTERDRÜCKEN,,Stimuli/6561.jpg,,Trials/StimuliNegative.xlsx,25,"Unterdrücken Sie alle aufkommenden Emotionen. Wenn Sie also die Bilder ansehen, verhalten Sie sich so, dass eine außenstehende Person nicht sehen kann, welche Emotionen Sie gerade empfinden.",,,,,,,,,0,1,1,2,0,10,10,6,,,,,3.4,,,,,,,,969.7259572338498,6.0162364441021055,None,,,,,,,,,,B31N11,2023-01-17_12h40.59.291,t2_paradigm,2021.1.4,60.00032722037042,
5,,1,UNTERDRÜCKEN,,Stimuli/9420.jpg,,Trials/StimuliNegative.xlsx,25,"Unterdrücken Sie alle aufkommenden Emotionen. Wenn Sie also die Bilder ansehen, verhalten Sie sich so, dass eine außenstehende Person nicht sehen kann, welche Emotionen Sie gerade empfinden.",,,,,,,,,0,1,1,2,0,11,11,16,,,,,4.3,,,,,,,,980.0639487229655,6.006333919865938,None,,,,,,,,,,B31N11,2023-01-17_12h40.59.291,t2_paradigm,2021.1.4,60.00032722037042,
5,,1,UNTERDRÜCKEN,,Stimuli/3230.jpg,,Trials/StimuliNegative.xlsx,25,"Unterdrücken Sie alle aufkommenden Emotionen. Wenn Sie also die Bilder ansehen, verhalten Sie sich so, dass eine außenstehende Person nicht sehen kann, welche Emotionen Sie gerade empfinden.",,,,,,,,,0,1,1,2,0,12,12,5,,,,,4.9,,,,,,,,990.9971515967136,6.006603714569792,None,,,,,,,,,,B31N11,2023-01-17_12h40.59.291,t2_paradigm,2021.1.4,60.00032722037042,
5,,1,UNTERDRÜCKEN,,Stimuli/252.jpg,,Trials/StimuliNegative.xlsx,25,"Unterdrücken Sie alle aufkommenden Emotionen. Wenn Sie also die Bilder ansehen, verhalten Sie sich so, dass eine außenstehende Person nicht sehen kann, welche Emotionen Sie gerade empfinden.",,,,,,,,,0,1,1,2,0,13,13,1,,,,,4.5,,,,,,,,1001.5272693151037,6.0125635790009255,None,,,,,,,,,,B31N11,2023-01-17_12h40.59.291,t2_paradigm,2021.1.4,60.00032722037042,
5,,1,UNTERDRÜCKEN,,Stimuli/9181.jpg,,Trials/StimuliNegative.xlsx,25,"Unterdrücken Sie alle aufkommenden Emotionen. Wenn Sie also die Bilder ansehen, verhalten Sie sich so, dass eine außenstehende Person nicht sehen kann, welche Emotionen Sie gerade empfinden.",,,,,,,,,0,1,1,2,0,14,14,9,,,,,4.3,,,,,,,,1011.8740087611095,6.003054679142224,None,,,,,,,,,,B31N11,2023-01-17_12h40.59.291,t2_paradigm,2021.1.4,60.00032722037042,
5,,1,UNTERDRÜCKEN,,Stimuli/9599.jpg,,Trials/StimuliNegative.xlsx,25,"Unterdrücken Sie alle aufkommenden Emotionen. Wenn Sie also die Bilder ansehen, verhalten Sie sich so, dass eine außenstehende Person nicht sehen kann, welche Emotionen Sie gerade empfinden.",,,,,,,,,0,1,1,2,0,15,15,18,,,,,3.8,,,,,,,,1021.7190455491091,6.013905494861319,None,,,,,,,,,,B31N11,2023-01-17_12h40.59.291,t2_paradigm,2021.1.4,60.00032722037042,
5,,1,UNTERDRÜCKEN,,Stimuli/227.jpg,,Trials/StimuliNegative.xlsx,25,"Unterdrücken Sie alle aufkommenden Emotionen. Wenn Sie also die Bilder ansehen, verhalten Sie sich so, dass eine außenstehende Person nicht sehen kann, welche Emotionen Sie gerade empfinden.",,,,,,,,,0,1,1,2,0,16,16,0,,,,,4.3,,,,,,,,1032.0738804402044,6.0029837818419765,None,,,,,,,,,,B31N11,2023-01-17_12h40.59.291,t2_paradigm,2021.1.4,60.00032722037042,
5,,1,UNTERDRÜCKEN,,Stimuli/6838.jpg,,Trials/StimuliNegative.xlsx,25,"Unterdrücken Sie alle aufkommenden Emotionen. Wenn Sie also die Bilder ansehen, verhalten Sie sich so, dass eine außenstehende Person nicht sehen kann, welche Emotionen Sie gerade empfinden.",,,,,,,,,0,1,1,2,0,17,17,7,,,,,3.6,,,,,,,,1041.7165259681406,6.001191138799186,None,,,,,,,,,,B31N11,2023-01-17_12h40.59.291,t2_paradigm,2021.1.4,60.00032722037042,
5,,1,UNTERDRÜCKEN,,Stimuli/3061.jpg,,Trials/StimuliNegative.xlsx,25,"Unterdrücken Sie alle aufkommenden Emotionen. Wenn Sie also die Bilder ansehen, verhalten Sie sich so, dass eine außenstehende Person nicht sehen kann, welche Emotionen Sie gerade empfinden.",,,,,,,,,0,1,1,2,0,18,18,4,,,,,3.8,,,,,,,,1051.5416220083189,6.00108848207492,None,,,,,,,,,,B31N11,2023-01-17_12h40.59.291,t2_paradigm,2021.1.4,60.00032722037042,
5,,1,UNTERDRÜCKEN,,Stimuli/9120.jpg,,Trials/StimuliNegative.xlsx,25,"Unterdrücken Sie alle aufkommenden Emotionen. Wenn Sie also die Bilder ansehen, verhalten Sie sich so, dass eine außenstehende Person nicht sehen kann, welche Emotionen Sie gerade empfinden.",,,,,,,,,0,1,1,2,0,19,19,8,,,,,3.6,,,,,,,,1061.1743072676145,6.0018051543302136,None,,,,,,,,,,B31N11,2023-01-17_12h40.59.291,t2_paradigm,2021.1.4,60.00032722037042,
5,,1,UNTERDRÜCKEN,,,,Trials/StimuliNegative.xlsx,25,"Unterdrücken Sie alle aufkommenden Emotionen. Wenn Sie also die Bilder ansehen, verhalten Sie sich so, dass eine außenstehende Person nicht sehen kann, welche Emotionen Sie gerade empfinden.",,,,,,,,,0,1,1,2,,,,,,,,,,,,,118.14814814814815,7.1008108277164865,20.370370370370374,13.075290686949302,,,,229.25925925925927,8.292616575530701,,,,,,,,B31N11,2023-01-17_12h40.59.291,t2_paradigm,2021.1.4,60.00032722037042,
4,,1,DISTANZIEREN,,Stimuli/222.jpg,,Trials/StimuliNegative.xlsx,24,Nehmen Sie die Position eines uninvolvierten Beobachters ein. Denken Sie über das Bild in einer neutralen Weise nach.,,,,,,,,,0,2,2,1,0,0,0,2,,,,,3.4,,,,,,,,1128.5937081052289,6.013116321297275,None,,,,,,,,,,B31N11,2023-01-17_12h40.59.291,t2_paradigm,2021.1.4,60.00032722037042,
4,,1,DISTANZIEREN,,Stimuli/210.jpg,,Trials/StimuliNegative.xlsx,24,Nehmen Sie die Position eines uninvolvierten Beobachters ein. Denken Sie über das Bild in einer neutralen Weise nach.,,,,,,,,,0,2,2,1,0,1,1,0,,,,,4.2,,,,,,,,1138.8208296908906,6.00751286817831,None,,,,,,,,,,B31N11,2023-01-17_12h40.59.291,t2_paradigm,2021.1.4,60.00032722037042,
4,,1,DISTANZIEREN,,Stimuli/228.jpg,,Trials/StimuliNegative.xlsx,24,Nehmen Sie die Position eines uninvolvierten Beobachters ein. Denken Sie über das Bild in einer neutralen Weise nach.,,,,,,,,,0,2,2,1,0,2,2,3,,,,,4.6,,,,,,,,1149.4578034348287,6.0018680315752135,None,,,,,,,,,,B31N11,2023-01-17_12h40.59.291,t2_paradigm,2021.1.4,60.00032722037042,
4,,1,DISTANZIEREN,,Stimuli/9145.jpg,,Trials/StimuliNegative.xlsx,24,Nehmen Sie die Position eines uninvolvierten Beobachters ein. Denken Sie über das Bild in einer neutralen Weise nach.,,,,,,,,,0,2,2,1,0,3,3,16,,,,,3.7,,,,,,,,1159.2045579585429,6.008598463035014,None,,,,,,,,,,B31N11,2023-01-17_12h40.59.291,t2_paradigm,2021.1.4,60.00032722037042,
4,,1,DISTANZIEREN,,Stimuli/3185.jpg,,Trials/StimuliNegative.xlsx,24,Nehmen Sie die Position eines uninvolvierten Beobachters ein. Denken Sie über das Bild in einer neutralen Weise nach.,,,,,,,,,0,2,2,1,0,4,4,9,,,,,4.3,,,,,,,,1169.555216324985,6.006855544344944,None,,,,,,,,,,B31N11,2023-01-17_12h40.59.291,t2_paradigm,2021.1.4,60.00032722037042,
4,,1,DISTANZIEREN,,Stimuli/9042.jpg,,Trials/StimuliNegative.xlsx,24,Nehmen Sie die Position eines uninvolvierten Beobachters ein. Denken Sie über das Bild in einer neutralen Weise nach.,,,,,,,,,0,2,2,1,0,5,5,14,,,,,3.2,,,,,,,,1178.803412052861,6.011813543311291,None,,,,,,,,,,B31N11,2023-01-17_12h40.59.291,t2_paradigm,2021.1.4,60.00032722037042,
4,,1,DISTANZIEREN,,Stimuli/251.jpg,,Trials/StimuliNegative.xlsx,24,Nehmen Sie die Position eines uninvolvierten Beobachters ein. Denken Sie über das Bild in einer neutralen Weise nach.,,,,,,,,,0,2,2,1,0,6,6,5,,,,,4.1,,,,,,,,1188.949358154874,6.001806758342354,None,,,,,,,,,,B31N11,2023-01-17_12h40.59.291,t2_paradigm,2021.1.4,60.00032722037042,
4,,1,DISTANZIEREN,,Stimuli/2703.jpg,,Trials/StimuliNegative.xlsx,24,Nehmen Sie die Position eines uninvolvierten Beobachters ein. Denken Sie über das Bild in einer neutralen Weise nach.,,,,,,,,,0,2,2,1,0,7,7,6,,,,,4.4,,,,,,,,1199.3869680496991,6.011113552774987,None,,,,,,,,,,B31N11,2023-01-17_12h40.59.291,t2_paradigm,2021.1.4,60.00032722037042,
4,,1,DISTANZIEREN,,Stimuli/9160.jpg,,Trials/StimuliNegative.xlsx,24,Nehmen Sie die Position eines uninvolvierten Beobachters ein. Denken Sie über das Bild in einer neutralen Weise nach.,,,,,,,,,0,2,2,1,0,8,8,17,,,,,4.6,,,,,,,,1210.0261623868973,6.016014769735193,None,,,,,,,,,,B31N11,2023-01-17_12h40.59.291,t2_paradigm,2021.1.4,60.00032722037042,
4,,1,DISTANZIEREN,,Stimuli/3160.jpg,,Trials/StimuliNegative.xlsx,24,Nehmen Sie die Position eines uninvolvierten Beobachters ein. Denken Sie über das Bild in einer neutralen Weise nach.,,,,,,,,,0,2,2,1,0,9,9,8,,,,,4.0,,,,,,,,1220.0654135060959,6.003757877700991,None,,,,,,,,,,B31N11,2023-01-17_12h40.59.291,t2_paradigm,2021.1.4,60.00032722037042,
4,,1,DISTANZIEREN,,Stimuli/6562.jpg,,Trials/StimuliNegative.xlsx,24,Nehmen Sie die Position eines uninvolvierten Beobachters ein. Denken Sie über das Bild in einer neutralen Weise nach.,,,,,,,,,0,2,2,1,0,10,10,11,,,,,4.0,,,,,,,,1230.098675888663,6.004588434758261,None,,,,,,,,,,B31N11,2023-01-17_12h40.59.291,t2_paradigm,2021.1.4,60.00032722037042,
4,,1,DISTANZIEREN,,Stimuli/9031.jpg,,Trials/StimuliNegative.xlsx,24,Nehmen Sie die Position eines uninvolvierten Beobachters ein. Denken Sie über das Bild in einer neutralen Weise nach.,,,,,,,,,0,2,2,1,0,11,11,12,,,,,3.1,,,,,,,,1239.2302712222718,6.008361069361854,None,,,,,,,,,,B31N11,2023-01-17_12h40.59.291,t2_paradigm,2021.1.4,60.00032722037042,
4,,1,DISTANZIEREN,,Stimuli/9040.jpg,,Trials/StimuliNegative.xlsx,24,Nehmen Sie die Position eines uninvolvierten Beobachters ein. Denken Sie über das Bild in einer neutralen Weise nach.,,,,,,,,,0,2,2,1,0,12,12,13,,,,,3.5,,,,,,,,1248.7570108928412,6.004539672814644,None,,,,,,,,,,B31N11,2023-01-17_12h40.59.291,t2_paradigm,2021.1.4,60.00032722037042,
4,,1,DISTANZIEREN,,Stimuli/218.jpg,,Trials/StimuliNegative.xlsx,24,Nehmen Sie die Position eines uninvolvierten Beobachters ein. Denken Sie über das Bild in einer neutralen Weise nach.,,,,,,,,,0,2,2,1,0,13,13,1,,,,,5.0,,,,,,,,1259.7948350835777,6.011182525260665,None,,,,,,,,,,B31N11,2023-01-17_12h40.59.291,t2_paradigm,2021.1.4,60.00032722037042,
4,,1,DISTANZIEREN,,Stimuli/246.jpg,,Trials/StimuliNegative.xlsx,24,Nehmen Sie die Position eines uninvolvierten Beobachters ein. Denken Sie über das Bild in einer neutralen Weise nach.,,,,,,,,,0,2,2,1,0,14,14,4,,,,,4.2,,,,,,,,1270.023621312177,6.003274428692748,None,,,,,,,,,,B31N11,2023-01-17_12h40.59.291,t2_paradigm,2021.1.4,60.00032722037042,
4,,1,DISTANZIEREN,,Stimuli/9043.jpg,,Trials/StimuliNegative.xlsx,24,Nehmen Sie die Position eines uninvolvierten Beobachters ein. Denken Sie über das Bild in einer neutralen Weise nach.,,,,,,,,,0,2,2,1,0,15,15,15,,,,,4.3,,,,,,,,1280.3840185936988,6.001207178913319,None,,,,,,,,,,B31N11,2023-01-17_12h40.59.291,t2_paradigm,2021.1.4,60.00032722037042,
4,,1,DISTANZIEREN,,Stimuli/3051.jpg,,Trials/StimuliNegative.xlsx,24,Nehmen Sie die Position eines uninvolvierten Beobachters ein. Denken Sie über das Bild in einer neutralen Weise nach.,,,,,,,,,0,2,2,1,0,16,16,7,,,,,4.6,,,,,,,,1291.0279466890806,6.01215680173118,None,,,,,,,,,,B31N11,2023-01-17_12h40.59.291,t2_paradigm,2021.1.4,60.00032722037042,
4,,1,DISTANZIEREN,,Stimuli/3301.jpg,,Trials/StimuliNegative.xlsx,24,Nehmen Sie die Position eines uninvolvierten Beobachters ein. Denken Sie über das Bild in einer neutralen Weise nach.,,,,,,,,,0,2,2,1,0,17,17,10,,,,,4.4,,,,,,,,1301.4654404534867,6.002671320438822,None,,,,,,,,,,B31N11,2023-01-17_12h40.59.291,t2_paradigm,2021.1.4,60.00032722037042,
4,,1,DISTANZIEREN,,Stimuli/9904.jpg,,Trials/StimuliNegative.xlsx,24,Nehmen Sie die Position eines uninvolvierten Beobachters ein. Denken Sie über das Bild in einer neutralen Weise nach.,,,,,,,,,0,2,2,1,0,18,18,19,,,,,5.0,,,,,,,,1312.508636798906,6.000240601697442,None,,,,,,,,,,B31N11,2023-01-17_12h40.59.291,t2_paradigm,2021.1.4,60.00032722037042,
4,,1,DISTANZIEREN,,Stimuli/9184.jpg,,Trials/StimuliNegative.xlsx,24,Nehmen Sie die Position eines uninvolvierten Beobachters ein. Denken Sie über das Bild in einer neutralen Weise nach.,,,,,,,,,0,2,2,1,0,19,19,18,,,,,4.2,,,,,,,,1322.7490768112893,6.0027467089712445,None,,,,,,,,,,B31N11,2023-01-17_12h40.59.291,t2_paradigm,2021.1.4,60.00032722037042,
4,,1,DISTANZIEREN,,,,Trials/StimuliNegative.xlsx,24,Nehmen Sie die Position eines uninvolvierten Beobachters ein. Denken Sie über das Bild in einer neutralen Weise nach.,,,,,,,,,0,2,2,1,,,,,,,,,,,,,174.07407407407408,9.36864895731378,67.77777777777779,6.7360317080947425,,,,154.44444444444446,12.61489998187426,,,,,,,,B31N11,2023-01-17_12h40.59.291,t2_paradigm,2021.1.4,60.00032722037042,
,,,,,,,,,,,,,,,,,,,,,,,,,,,,,,,,,,,,,,,,,,,1,34.73403952604713,,,,,,B31N11,2023-01-17_12h40.59.291,t2_paradigm,2021.1.4,60.00032722037042,
,,,,,,,,,,,,,,,,,,,,,,,,,,,,,,,,,,,,,,,,,,,,,space,7.958802894278051,,,,B31N11,2023-01-17_12h40.59.291,t2_paradigm,2021.1.4,60.00032722037042,
,,,,,Stimuli/9140.jpg,,,,,,,,,,,,,,,,,,,,,0,0,0,15,4.1,,,,,,,,,,,,,,,,,1584.6993049818993,6.003477817326711,None,B31N11,2023-01-17_12h40.59.291,t2_paradigm,2021.1.4,60.00032722037042,
,,,,,Stimuli/6940.jpg,,,,,,,,,,,,,,,,,,,,,0,1,1,12,4.6,,,,,,,,,,,,,,,,,1595.3342467643088,6.001077574797819,None,B31N11,2023-01-17_12h40.59.291,t2_paradigm,2021.1.4,60.00032722037042,
,,,,,Stimuli/6825.jpg,,,,,,,,,,,,,,,,,,,,,0,2,2,11,3.2,,,,,,,,,,,,,,,,,1604.5608358182144,6.012826636853788,None,B31N11,2023-01-17_12h40.59.291,t2_paradigm,2021.1.4,60.00032722037042,
,,,,,Stimuli/9409.jpg,,,,,,,,,,,,,,,,,,,,,0,3,3,17,3.6,,,,,,,,,,,,,,,,,1614.1971811105213,6.008357540536963,None,B31N11,2023-01-17_12h40.59.291,t2_paradigm,2021.1.4,60.00032722037042,
,,,,,Stimuli/9340.jpg,,,,,,,,,,,,,,,,,,,,,0,4,4,16,4.1,,,,,,,,,,,,,,,,,1624.3365485205395,6.012502305768066,None,B31N11,2023-01-17_12h40.59.291,t2_paradigm,2021.1.4,60.00032722037042,
,,,,,Stimuli/3350.jpg,,,,,,,,,,,,,,,,,,,,,0,5,5,7,4.1,,,,,,,,,,,,,,,,,1634.4740973025346,6.002622558495204,None,B31N11,2023-01-17_12h40.59.291,t2_paradigm,2021.1.4,60.00032722037042,
,,,,,Stimuli/6242.jpg,,,,,,,,,,,,,,,,,,,,,0,6,6,8,4.2,,,,,,,,,,,,,,,,,1644.6998006213944,6.00166881336736,None,B31N11,2023-01-17_12h40.59.291,t2_paradigm,2021.1.4,60.00032722037042,
,,,,,Stimuli/8230.jpg,,,,,,,,,,,,,,,,,,,,,0,7,7,13,4.6,,,,,,,,,,,,,,,,,1655.3332400868094,6.000880923013028,None,B31N11,2023-01-17_12h40.59.291,t2_paradigm,2021.1.4,60.00032722037042,
,,,,,Stimuli/326.jpg,,,,,,,,,,,,,,,,,,,,,0,8,8,5,3.4,,,,,,,,,,,,,,,,,1664.7660568750325,6.002599781535537,None,B31N11,2023-01-17_12h40.59.291,t2_paradigm,2021.1.4,60.00032722037042,
,,,,,Stimuli/9041.jpg,,,,,,,,,,,,,,,,,,,,,0,9,9,14,4.4,,,,,,,,,,,,,,,,,1675.196768238009,6.007961991348566,None,B31N11,2023-01-17_12h40.59.291,t2_paradigm,2021.1.4,60.00032722037042,
,,,,,Stimuli/254.jpg,,,,,,,,,,,,,,,,,,,,,0,10,10,4,3.3,,,,,,,,,,,,,,,,,1684.5227941235444,6.005470640981002,None,B31N11,2023-01-17_12h40.59.291,t2_paradigm,2021.1.4,60.00032722037042,
,,,,,Stimuli/226.jpg,,,,,,,,,,,,,,,,,,,,,0,11,11,2,3.0,,,,,,,,,,,,,,,,,1693.556044636427,6.005933237840509,None,B31N11,2023-01-17_12h40.59.291,t2_paradigm,2021.1.4,60.00032722037042,
,,,,,Stimuli/1301.jpg,,,,,,,,,,,,,,,,,,,,,0,12,12,6,3.7,,,,,,,,,,,,,,,,,1703.2992664856265,6.002268071993967,None,B31N11,2023-01-17_12h40.59.291,t2_paradigm,2021.1.4,60.00032722037042,
,,,,,Stimuli/219.jpg,,,,,,,,,,,,,,,,,,,,,0,13,13,1,5.0,,,,,,,,,,,,,,,,,1714.3290648453658,6.00924969162952,None,B31N11,2023-01-17_12h40.59.291,t2_paradigm,2021.1.4,60.00032722037042,
,,,,,Stimuli/208.jpg,,,,,,,,,,,,,,,,,,,,,0,14,14,0,3.1,,,,,,,,,,,,,,,,,1723.4593480977219,6.016194419004023,None,B31N11,2023-01-17_12h40.59.291,t2_paradigm,2021.1.4,60.00032722037042,
,,,,,Stimuli/6555.jpg,,,,,,,,,,,,,,,,,,,,,0,15,15,10,3.4,,,,,,,,,,,,,,,,,1732.904413116321,6.008245901350165,None,B31N11,2023-01-17_12h40.59.291,t2_paradigm,2021.1.4,60.00032722037042,
,,,,,Stimuli/9800.jpg,,,,,,,,,,,,,,,,,,,,,0,16,16,19,3.3,,,,,,,,,,,,,,,,,1742.2405587092198,6.003588814908653,None,B31N11,2023-01-17_12h40.59.291,t2_paradigm,2021.1.4,60.00032722037042,
,,,,,Stimuli/9570.jpg,,,,,,,,,,,,,,,,,,,,,0,17,17,18,4.3,,,,,,,,,,,,,,,,,1752.586211918766,5.996763105173159,None,B31N11,2023-01-17_12h40.59.291,t2_paradigm,2021.1.4,60.00032722037042,
,,,,,Stimuli/253.jpg,,,,,,,,,,,,,,,,,,,,,0,18,18,3,4.5,,,,,,,,,,,,,,,,,1763.1149652651347,6.0051706908616325,None,B31N11,2023-01-17_12h40.59.291,t2_paradigm,2021.1.4,60.00032722037042,
,,,,,Stimuli/6410.jpg,,,,,,,,,,,,,,,,,,,,,0,19,19,9,4.0,,,,,,,,,,,,,,,,,1773.147052549015,6.007600767999975,None,B31N11,2023-01-17_12h40.59.291,t2_paradigm,2021.1.4,60.00032722037042,
,,,,,,,,,,,,,,,,,,,,,,,,,,,,,,,,,,39.62962962962963,4.33459579717055,90.37037037037037,5.002575079759481,,,,264.0740740740741,5.60881115493612,,,,,,,,,,,,,
