Letter,CorrAnswer,Stimulus,nback_run.thisRepN,nback_run.thisTrialN,nback_run.thisN,nback_run.thisIndex,fixcross.started,nback_trial.started,trial_resp.keys,trial_resp.corr,currentlevel,trial_resp.rt,Participant,date,expName,psychopyVersion,frameRate,
H,left,Distractor,0,0,0,0,84.81519555932937,86.8015839280738,left,1,1,1.1882460051324415,C02N10,2021_Oct_01_1339,t1_Paradigm,2021.1.4,60.0129567845193,
Q,left,Pretarget,0,1,1,1,88.29930575226945,90.29943407309202,left,1,1,0.4590067904168791,C02N10,2021_Oct_01_1339,t1_Paradigm,2021.1.4,60.0129567845193,
Q,right,Target,0,2,2,2,91.79540175164357,93.79540078923719,right,1,1,0.5783098671977314,C02N10,2021_Oct_01_1339,t1_Paradigm,2021.1.4,60.0129567845193,
T,left,Distractor,0,3,3,3,95.2953929295868,97.29790480968904,left,1,1,0.3718480796951553,C02N10,2021_Oct_01_1339,t1_Paradigm,2021.1.4,60.0129567845193,
Q,left,Lure,0,4,4,4,98.79528979172574,100.79625668912377,left,1,1,0.4574589204944459,C02N10,2021_Oct_01_1339,t1_Paradigm,2021.1.4,60.0129567845193,
L,left,Distractor,0,5,5,5,102.29541538573085,104.29726288477377,left,1,1,0.44460791091478313,C02N10,2021_Oct_01_1339,t1_Paradigm,2021.1.4,60.0129567845193,
V,left,Pretarget,0,6,6,6,105.79538891956099,107.79709847371987,left,1,1,0.44861216218305344,C02N10,2021_Oct_01_1339,t1_Paradigm,2021.1.4,60.0129567845193,
V,right,Target,0,7,7,7,109.29548884940141,111.29517927541747,right,1,1,0.42254507028246735,C02N10,2021_Oct_01_1339,t1_Paradigm,2021.1.4,60.0129567845193,
K,left,Distractor,0,8,8,8,112.79597181689769,114.79818727590009,left,1,1,0.4715831934372545,C02N10,2021_Oct_01_1339,t1_Paradigm,2021.1.4,60.0129567845193,
G,left,Pretarget,0,9,9,9,116.29536919023485,118.29742809783329,left,1,1,0.4444597003639501,C02N10,2021_Oct_01_1339,t1_Paradigm,2021.1.4,60.0129567845193,
G,right,Target,0,10,10,10,119.79542581179794,121.79543928548355,right,1,1,0.46646960865746223,C02N10,2021_Oct_01_1339,t1_Paradigm,2021.1.4,60.0129567845193,
G,right,Target,0,11,11,11,123.29536566141178,125.29556167146893,right,1,1,0.4702733586400427,C02N10,2021_Oct_01_1339,t1_Paradigm,2021.1.4,60.0129567845193,
P,left,Pretarget,0,12,12,12,126.79539726041457,128.7990114163831,left,1,1,0.48671542644024157,C02N10,2021_Oct_01_1339,t1_Paradigm,2021.1.4,60.0129567845193,
P,right,Target,0,13,13,13,130.29557514515454,132.29540223284675,right,1,1,0.4782918060418524,C02N10,2021_Oct_01_1339,t1_Paradigm,2021.1.4,60.0129567845193,
G,left,Lure,0,14,14,14,133.7954068844765,135.79615563647621,left,1,1,0.5137651350405577,C02N10,2021_Oct_01_1339,t1_Paradigm,2021.1.4,60.0129567845193,
Y,left,Distractor,0,15,15,15,137.29538811755629,139.29720321559125,left,1,1,0.5165760026584394,C02N10,2021_Oct_01_1339,t1_Paradigm,2021.1.4,60.0129567845193,
B,left,Distractor,0,16,16,16,140.79542420778762,142.7982799876936,left,1,1,0.45546609811935923,C02N10,2021_Oct_01_1339,t1_Paradigm,2021.1.4,60.0129567845193,
T,left,Pretarget,0,17,17,17,144.29539260878482,146.29748038856815,left,1,1,0.524298991366777,C02N10,2021_Oct_01_1339,t1_Paradigm,2021.1.4,60.0129567845193,
T,right,Target,0,18,18,18,147.7959628344397,149.79564010757167,right,1,1,0.41818344552302733,C02N10,2021_Oct_01_1339,t1_Paradigm,2021.1.4,60.0129567845193,
S,left,Distractor,0,19,19,19,151.2961673457512,153.29890474969943,left,1,1,0.45090910490762326,C02N10,2021_Oct_01_1339,t1_Paradigm,2021.1.4,60.0129567845193,
T,left,Lure,0,20,20,20,154.79542099976698,156.796369290646,left,1,1,0.5534942241192766,C02N10,2021_Oct_01_1339,t1_Paradigm,2021.1.4,60.0129567845193,
J,left,Distractor,0,21,21,21,158.29541185690778,160.29732768678969,left,1,1,0.49241255016204377,C02N10,2021_Oct_01_1339,t1_Paradigm,2021.1.4,60.0129567845193,
P,left,Distractor,0,22,22,22,161.79536806742726,163.79593332065087,left,1,1,0.4179152550041181,C02N10,2021_Oct_01_1339,t1_Paradigm,2021.1.4,60.0129567845193,
F,left,Distractor,0,23,23,23,165.29538202231652,167.30862184398939,left,1,1,0.39326161696499184,C02N10,2021_Oct_01_1339,t1_Paradigm,2021.1.4,60.0129567845193,
L,left,Distractor,0,24,24,24,168.79542741580826,170.7958242479517,left,1,1,0.39396866469633096,C02N10,2021_Oct_01_1339,t1_Paradigm,2021.1.4,60.0129567845193,
W,left,Pretarget,0,25,25,25,172.2954211601682,174.2951558568675,left,1,1,0.4307524700952854,C02N10,2021_Oct_01_1339,t1_Paradigm,2021.1.4,60.0129567845193,
W,right,Target,0,26,26,26,175.7960629246818,177.79584189206525,right,1,1,0.3860435706938006,C02N10,2021_Oct_01_1339,t1_Paradigm,2021.1.4,60.0129567845193,
V,left,Distractor,0,27,27,27,179.2962809096789,181.29738414795156,left,1,1,0.340362320258464,C02N10,2021_Oct_01_1339,t1_Paradigm,2021.1.4,60.0129567845193,
W,left,Lure,0,28,28,28,182.79649376184352,184.79602699485167,left,1,1,0.4417572638403726,C02N10,2021_Oct_01_1339,t1_Paradigm,2021.1.4,60.0129567845193,
R,left,Pretarget,0,29,29,29,186.2958953056068,188.2989451707581,left,1,1,0.5388457606168231,C02N10,2021_Oct_01_1339,t1_Paradigm,2021.1.4,60.0129567845193,
R,right,Target,0,30,30,30,189.79590220285172,191.79543928548355,right,1,1,0.4503274907792729,C02N10,2021_Oct_01_1339,t1_Paradigm,2021.1.4,60.0129567845193,
G,left,Distractor,0,31,31,31,193.29543687946898,195.29723529579678,left,1,1,0.4045301099995413,C02N10,2021_Oct_01_1339,t1_Paradigm,2021.1.4,60.0129567845193,
R,left,Lure,0,32,32,32,196.79543800227566,198.79660989218792,left,1,1,0.47327542428502056,C02N10,2021_Oct_01_1339,t1_Paradigm,2021.1.4,60.0129567845193,
S,left,Distractor,0,33,33,33,200.29561460380773,202.29525434309835,left,1,1,0.3668143746263013,C02N10,2021_Oct_01_1339,t1_Paradigm,2021.1.4,60.0129567845193,
R,left,Lure,0,34,34,34,203.79629101494356,205.79722294491785,left,1,1,0.40047934243284544,C02N10,2021_Oct_01_1339,t1_Paradigm,2021.1.4,60.0129567845193,
P,left,Pretarget,0,35,35,35,207.29530567142774,209.2954715260903,left,1,1,0.45424255907619226,C02N10,2021_Oct_01_1339,t1_Paradigm,2021.1.4,60.0129567845193,
P,right,Target,0,36,36,36,210.7954861225844,212.79560032811605,right,1,1,0.5061980561313248,C02N10,2021_Oct_01_1339,t1_Paradigm,2021.1.4,60.0129567845193,
Y,left,Pretarget,0,37,37,37,214.29606244347906,216.29776526079422,left,1,1,0.41220144957605953,C02N10,2021_Oct_01_1339,t1_Paradigm,2021.1.4,60.0129567845193,
Y,right,Target,0,38,38,38,217.79552141081058,219.79557530555576,right,1,1,0.48228899966579775,C02N10,2021_Oct_01_1339,t1_Paradigm,2021.1.4,60.0129567845193,
J,left,Distractor,0,39,39,39,221.29549109501568,223.2964907142241,left,1,1,0.4052644259063527,C02N10,2021_Oct_01_1339,t1_Paradigm,2021.1.4,60.0129567845193,
Y,left,Lure,0,40,40,40,224.79545275917008,226.79730186222423,left,1,1,0.4245468751150838,C02N10,2021_Oct_01_1339,t1_Paradigm,2021.1.4,60.0129567845193,
T,left,Distractor,0,41,41,41,228.29541763134512,230.29725614793097,left,1,1,0.39674552729684365,C02N10,2021_Oct_01_1339,t1_Paradigm,2021.1.4,60.0129567845193,
V,left,Distractor,0,42,42,42,231.7962002279619,233.79724379705203,left,1,1,0.4325733425675935,C02N10,2021_Oct_01_1339,t1_Paradigm,2021.1.4,60.0129567845193,
N,left,Pretarget,0,43,43,43,235.29554306494902,237.29774087983787,left,1,1,0.41998506987147266,C02N10,2021_Oct_01_1339,t1_Paradigm,2021.1.4,60.0129567845193,
N,right,Target,0,44,44,44,238.79530839824474,240.7951848894536,right,1,1,0.5226686753148897,C02N10,2021_Oct_01_1339,t1_Paradigm,2021.1.4,60.0129567845193,
N,right,Target,0,45,45,45,242.29628283449165,244.2956011301212,right,1,1,0.478204547882342,C02N10,2021_Oct_01_1339,t1_Paradigm,2021.1.4,60.0129567845193,
X,left,Distractor,0,46,46,46,245.7962611803523,247.79793737109776,left,1,1,0.3839259563192172,C02N10,2021_Oct_01_1339,t1_Paradigm,2021.1.4,60.0129567845193,
Z,left,Distractor,0,47,47,47,249.29557931558156,251.29732223315477,left,1,1,0.43642296724647167,C02N10,2021_Oct_01_1339,t1_Paradigm,2021.1.4,60.0129567845193,
H,left,Pretarget,0,48,48,48,252.79531096466144,254.79715782210042,left,1,1,0.4086610780814226,C02N10,2021_Oct_01_1339,t1_Paradigm,2021.1.4,60.0129567845193,
H,right,Target,0,49,49,49,256.2954250097928,258.29543399224985,right,1,1,0.5103418562957813,C02N10,2021_Oct_01_1339,t1_Paradigm,2021.1.4,60.0129567845193,
K,left,Distractor,0,50,50,50,259.795407205278,261.7963481177103,left,1,1,0.4497025683731408,C02N10,2021_Oct_01_1339,t1_Paradigm,2021.1.4,60.0129567845193,
V,left,Pretarget,0,51,51,51,263.29605474422897,265.29697191730884,left,1,1,0.4047373481280374,C02N10,2021_Oct_01_1339,t1_Paradigm,2021.1.4,60.0129567845193,
V,right,Target,0,52,52,52,266.79541939575665,268.79537576667644,right,1,1,0.4263619731509607,C02N10,2021_Oct_01_1339,t1_Paradigm,2021.1.4,60.0129567845193,
R,left,Distractor,0,53,53,53,270.2958545637457,272.29769147632123,left,1,1,0.36434804841701407,C02N10,2021_Oct_01_1339,t1_Paradigm,2021.1.4,60.0129567845193,
V,left,Lure,0,54,54,54,273.79569528552474,275.7974266542242,left,1,1,0.4965419142317842,C02N10,2021_Oct_01_1339,t1_Paradigm,2021.1.4,60.0129567845193,
Y,left,Distractor,0,55,55,55,277.29549975667123,279.2981386743877,left,1,1,0.43558022024353704,C02N10,2021_Oct_01_1339,t1_Paradigm,2021.1.4,60.0129567845193,
Q,left,Distractor,0,56,56,56,280.7963545337507,282.79723738101075,left,1,1,0.39269187251193216,C02N10,2021_Oct_01_1339,t1_Paradigm,2021.1.4,60.0129567845193,
Z,left,Pretarget,0,57,57,57,284.29620231317494,286.2973559173706,left,1,1,0.3966261889327143,C02N10,2021_Oct_01_1339,t1_Paradigm,2021.1.4,60.0129567845193,
Z,right,Target,0,58,58,58,287.7952525786868,289.795430623828,right,1,1,0.6743069953772647,C02N10,2021_Oct_01_1339,t1_Paradigm,2021.1.4,60.0129567845193,
B,left,Distractor,0,59,59,59,291.2955283080546,293.2966613809185,left,1,1,0.4210571903449818,C02N10,2021_Oct_01_1339,t1_Paradigm,2021.1.4,60.0129567845193,
S,left,Pretarget,0,60,60,60,294.7962845989032,296.797645120424,left,1,1,0.4242273562667833,C02N10,2021_Oct_01_1339,t1_Paradigm,2021.1.4,60.0129567845193,
S,right,Target,0,61,61,61,298.29545484438404,300.2954943030363,right,1,1,0.39848908647400094,C02N10,2021_Oct_01_1339,t1_Paradigm,2021.1.4,60.0129567845193,
T,left,Distractor,0,62,62,62,301.79549959627093,303.796512047561,left,1,1,0.41736540027886804,C02N10,2021_Oct_01_1339,t1_Paradigm,2021.1.4,60.0129567845193,
D,left,Distractor,0,63,63,63,305.295455485988,307.2973703534626,left,1,1,0.3884383580452777,C02N10,2021_Oct_01_1339,t1_Paradigm,2021.1.4,60.0129567845193,
R,left,Distractor,0,0,0,0,321.8925181581981,323.8810222165048,left,1,1,0.5567914276552983,C02N10,2021_Oct_01_1339,t1_Paradigm,2021.1.4,60.0129567845193,
V,left,Distractor,0,1,1,1,325.37913381519957,327.3782737448864,left,1,1,0.37169120748876594,C02N10,2021_Oct_01_1339,t1_Paradigm,2021.1.4,60.0129567845193,
N,left,Pretarget,0,2,2,2,328.87970660727115,330.8809946275278,left,1,1,0.40474183935657493,C02N10,2021_Oct_01_1339,t1_Paradigm,2021.1.4,60.0129567845193,
N,right,Target,0,3,3,3,332.3786298351688,334.3788659454822,right,1,1,0.44298433170661156,C02N10,2021_Oct_01_1339,t1_Paradigm,2021.1.4,60.0129567845193,
S,left,Distractor,0,4,4,4,335.87872302816595,337.8804457352089,left,1,1,0.4135484974112842,C02N10,2021_Oct_01_1339,t1_Paradigm,2021.1.4,60.0129567845193,
N,left,Lure,0,5,5,5,339.378849263775,341.38107210122416,left,1,1,0.38481169079659594,C02N10,2021_Oct_01_1339,t1_Paradigm,2021.1.4,60.0129567845193,
Z,left,Distractor,0,6,6,6,342.8789074893484,344.8805798304693,left,1,1,0.38933981182435673,C02N10,2021_Oct_01_1339,t1_Paradigm,2021.1.4,60.0129567845193,
L,left,Pretarget,0,7,7,7,346.37954572503986,348.38102173530206,left,1,1,0.37742426104068727,C02N10,2021_Oct_01_1339,t1_Paradigm,2021.1.4,60.0129567845193,
L,right,Target,0,8,8,8,349.8786364116104,351.8787079504691,right,1,1,0.4950222748902888,C02N10,2021_Oct_01_1339,t1_Paradigm,2021.1.4,60.0129567845193,
H,left,Distractor,0,9,9,9,353.378692070768,355.37933816610894,None,0,1,,C02N10,2021_Oct_01_1339,t1_Paradigm,2021.1.4,60.0129567845193,
L,left,Lure,0,10,10,10,356.8787146873128,358.8808467377803,left,1,1,0.5010623360103637,C02N10,2021_Oct_01_1339,t1_Paradigm,2021.1.4,60.0129567845193,
X,left,Pretarget,0,11,11,11,360.37882488281866,362.3810897453377,left,1,1,0.42475603805633,C02N10,2021_Oct_01_1339,t1_Paradigm,2021.1.4,60.0129567845193,
X,right,Target,0,12,12,12,363.8793890132356,365.8790537750865,right,1,1,0.36698921174775023,C02N10,2021_Oct_01_1339,t1_Paradigm,2021.1.4,60.0129567845193,
X,right,Target,0,13,13,13,367.3798565822326,369.3790600307266,right,1,1,0.434756400562037,C02N10,2021_Oct_01_1339,t1_Paradigm,2021.1.4,60.0129567845193,
R,left,Distractor,0,14,14,14,370.87925620118403,372.88094394080326,left,1,1,0.5329154138007652,C02N10,2021_Oct_01_1339,t1_Paradigm,2021.1.4,60.0129567845193,
T,left,Distractor,0,15,15,15,374.37970644686993,376.3810236601139,left,1,1,0.36087215813495277,C02N10,2021_Oct_01_1339,t1_Paradigm,2021.1.4,60.0129567845193,
V,left,Pretarget,0,16,16,16,377.87866496299375,379.88107579044845,left,1,1,0.41292132939088333,C02N10,2021_Oct_01_1339,t1_Paradigm,2021.1.4,60.0129567845193,
V,right,Target,0,17,17,17,381.378798897852,383.3787831785521,right,1,1,0.4511314207329633,C02N10,2021_Oct_01_1339,t1_Paradigm,2021.1.4,60.0129567845193,
N,left,Distractor,0,18,18,18,384.8789886522691,386.8808072791271,left,1,1,0.4529558220283434,C02N10,2021_Oct_01_1339,t1_Paradigm,2021.1.4,60.0129567845193,
B,left,Distractor,0,19,19,19,388.3786401008347,390.37892625626864,left,1,1,0.3794902262843607,C02N10,2021_Oct_01_1339,t1_Paradigm,2021.1.4,60.0129567845193,
V,left,Lure,0,20,20,20,391.878823760012,393.8809169934302,left,1,1,0.4130740311693444,C02N10,2021_Oct_01_1339,t1_Paradigm,2021.1.4,60.0129567845193,
P,left,Distractor,0,21,21,21,395.3792691936669,397.3809354395489,left,1,1,0.40101091144060774,C02N10,2021_Oct_01_1339,t1_Paradigm,2021.1.4,60.0129567845193,
K,left,Pretarget,0,22,22,22,398.87951637165133,400.881103058623,left,1,1,0.4046597140304584,C02N10,2021_Oct_01_1339,t1_Paradigm,2021.1.4,60.0129567845193,
K,right,Target,0,23,23,23,402.37870971488064,404.3788296948496,right,1,1,0.5069894748048682,C02N10,2021_Oct_01_1339,t1_Paradigm,2021.1.4,60.0129567845193,
J,left,Pretarget,0,24,24,24,405.8790261861095,407.88079220143027,left,1,1,0.31695788542674563,C02N10,2021_Oct_01_1339,t1_Paradigm,2021.1.4,60.0129567845193,
J,right,Target,0,25,25,25,409.3786378552204,411.3784950983054,right,1,1,0.515502598977946,C02N10,2021_Oct_01_1339,t1_Paradigm,2021.1.4,60.0129567845193,
H,left,Distractor,0,26,26,26,412.87960908344576,414.88101002602707,left,1,1,0.4367517893542754,C02N10,2021_Oct_01_1339,t1_Paradigm,2021.1.4,60.0129567845193,
J,left,Lure,0,27,27,27,416.37919059716296,418.3806990084331,left,1,1,0.4092988325692204,C02N10,2021_Oct_01_1339,t1_Paradigm,2021.1.4,60.0129567845193,
V,left,Distractor,0,28,28,28,419.8788394793128,421.8808188280009,left,1,1,0.7170233932065457,C02N10,2021_Oct_01_1339,t1_Paradigm,2021.1.4,60.0129567845193,
Z,left,Pretarget,0,29,29,29,423.3788027474775,425.3797536047723,left,1,1,0.5785334662305104,C02N10,2021_Oct_01_1339,t1_Paradigm,2021.1.4,60.0129567845193,
Z,right,Target,0,30,30,30,426.87879456702467,428.87907815604285,right,1,1,0.5348383013269995,C02N10,2021_Oct_01_1339,t1_Paradigm,2021.1.4,60.0129567845193,
T,left,Distractor,0,31,31,31,430.3797667576564,432.38102847214486,left,1,1,0.3773293036310861,C02N10,2021_Oct_01_1339,t1_Paradigm,2021.1.4,60.0129567845193,
Z,left,Lure,0,32,32,32,433.87858861210407,435.8789504768238,left,1,1,0.447057555417814,C02N10,2021_Oct_01_1339,t1_Paradigm,2021.1.4,60.0129567845193,
F,left,Distractor,0,33,33,33,437.37928170494706,439.38103360497735,left,1,1,0.43280688646518684,C02N10,2021_Oct_01_1339,t1_Paradigm,2021.1.4,60.0129567845193,
Y,left,Pretarget,0,34,34,34,440.8785998401763,442.8798022062838,left,1,1,0.42199008272473293,C02N10,2021_Oct_01_1339,t1_Paradigm,2021.1.4,60.0129567845193,
Y,right,Target,0,35,35,35,444.3787036196418,446.37904270741546,right,1,1,0.45881815880784416,C02N10,2021_Oct_01_1339,t1_Paradigm,2021.1.4,60.0129567845193,
Y,right,Target,0,36,36,36,447.8796543165363,449.8790576247111,right,1,1,0.41492858785841236,C02N10,2021_Oct_01_1339,t1_Paradigm,2021.1.4,60.0129567845193,
W,left,Distractor,0,37,37,37,451.37906484275754,453.37915210091614,left,1,1,0.40270987913118006,C02N10,2021_Oct_01_1339,t1_Paradigm,2021.1.4,60.0129567845193,
Q,left,Distractor,0,38,38,38,454.87868998555405,456.87902394049524,left,1,1,0.40675904268755403,C02N10,2021_Oct_01_1339,t1_Paradigm,2021.1.4,60.0129567845193,
P,left,Pretarget,0,39,39,39,458.37878799058217,460.3808257252449,left,1,1,0.4250232661688642,C02N10,2021_Oct_01_1339,t1_Paradigm,2021.1.4,60.0129567845193,
P,right,Target,0,40,40,40,461.8787554291739,463.8790271485159,right,1,1,0.4149702921258722,C02N10,2021_Oct_01_1339,t1_Paradigm,2021.1.4,60.0129567845193,
J,left,Distractor,0,41,41,41,465.37943344432006,467.3810473994663,left,1,1,0.3527298811395667,C02N10,2021_Oct_01_1339,t1_Paradigm,2021.1.4,60.0129567845193,
P,left,Lure,0,42,42,42,468.87866079256673,470.8809936651214,left,1,1,0.3888178668776163,C02N10,2021_Oct_01_1339,t1_Paradigm,2021.1.4,60.0129567845193,
L,left,Distractor,0,43,43,43,472.3787462863156,474.38049497832526,left,1,1,0.3932956219823609,C02N10,2021_Oct_01_1339,t1_Paradigm,2021.1.4,60.0129567845193,
Z,left,Distractor,0,44,44,44,475.87883819610397,477.88037195073593,left,1,1,0.3813858456360322,C02N10,2021_Oct_01_1339,t1_Paradigm,2021.1.4,60.0129567845193,
F,left,Pretarget,0,45,45,45,479.37962881277235,481.3805434194355,left,1,1,0.36921621962392237,C02N10,2021_Oct_01_1339,t1_Paradigm,2021.1.4,60.0129567845193,
F,right,Target,0,46,46,46,482.8788394793128,484.8788308176572,right,1,1,0.4389884212914694,C02N10,2021_Oct_01_1339,t1_Paradigm,2021.1.4,60.0129567845193,
G,left,Pretarget,0,47,47,47,486.3788784567623,488.3798103867366,left,1,1,0.36213643903920456,C02N10,2021_Oct_01_1339,t1_Paradigm,2021.1.4,60.0129567845193,
G,right,Target,0,48,48,48,489.87884461214526,491.8787859053691,right,1,1,0.4793783626064396,C02N10,2021_Oct_01_1339,t1_Paradigm,2021.1.4,60.0129567845193,
V,left,Distractor,0,49,49,49,493.3787790081251,495.397646339472,left,1,1,0.3682993673464807,C02N10,2021_Oct_01_1339,t1_Paradigm,2021.1.4,60.0129567845193,
G,left,Lure,0,50,50,50,496.8796174242998,498.8807729533073,left,1,1,0.37303408489788126,C02N10,2021_Oct_01_1339,t1_Paradigm,2021.1.4,60.0129567845193,
Q,left,Pretarget,0,51,51,51,500.3787302462124,502.3808799407925,left,1,1,0.5049664970365484,C02N10,2021_Oct_01_1339,t1_Paradigm,2021.1.4,60.0129567845193,
Q,right,Target,0,52,52,52,503.878777564516,505.8788491033747,right,1,1,0.3990989311832891,C02N10,2021_Oct_01_1339,t1_Paradigm,2021.1.4,60.0129567845193,
Y,left,Distractor,0,53,53,53,507.3787620056155,509.379949935631,left,1,1,0.401905628375971,C02N10,2021_Oct_01_1339,t1_Paradigm,2021.1.4,60.0129567845193,
V,left,Distractor,0,54,54,54,510.8787483715287,512.8809891738929,left,1,1,0.40485508248275437,C02N10,2021_Oct_01_1339,t1_Paradigm,2021.1.4,60.0129567845193,
B,left,Distractor,0,55,55,55,514.3797138253176,516.3797170333382,left,1,1,0.34621727859121165,C02N10,2021_Oct_01_1339,t1_Paradigm,2021.1.4,60.0129567845193,
J,left,Pretarget,0,56,56,56,517.8787689028604,519.8797438203101,left,1,1,0.3341262490830559,C02N10,2021_Oct_01_1339,t1_Paradigm,2021.1.4,60.0129567845193,
J,right,Target,0,57,57,57,521.3788104467267,523.3788062762997,right,1,1,0.4831866038193766,C02N10,2021_Oct_01_1339,t1_Paradigm,2021.1.4,60.0129567845193,
H,left,Distractor,0,58,58,58,524.8789058853381,526.880574056032,left,1,1,0.3892137366165116,C02N10,2021_Oct_01_1339,t1_Paradigm,2021.1.4,60.0129567845193,
J,left,Lure,0,59,59,59,528.3787690632607,530.3786802010918,left,1,1,0.44315082797402283,C02N10,2021_Oct_01_1339,t1_Paradigm,2021.1.4,60.0129567845193,
D,left,Pretarget,0,60,60,60,531.8796296147775,533.8811097954658,left,1,1,0.4129200461829896,C02N10,2021_Oct_01_1339,t1_Paradigm,2021.1.4,60.0129567845193,
D,right,Target,0,61,61,61,535.3786006421815,537.3787475695235,right,1,1,0.5152719422985683,C02N10,2021_Oct_01_1339,t1_Paradigm,2021.1.4,60.0129567845193,
R,left,Distractor,0,62,62,62,538.8790024467571,540.8800758504385,left,1,1,0.4537482031073523,C02N10,2021_Oct_01_1339,t1_Paradigm,2021.1.4,60.0129567845193,
F,left,Distractor,0,63,63,63,542.3787648928346,544.3809931839187,left,1,1,0.40889173475898133,C02N10,2021_Oct_01_1339,t1_Paradigm,2021.1.4,60.0129567845193,
F,left,Distractor,0,0,0,0,644.2593607634062,646.2456852925407,left,1,2,0.3682490014234645,C02N10,2021_Oct_01_1339,t1_Paradigm,2021.1.4,60.0129567845193,
N,left,Pretarget,0,1,1,1,647.7456556183506,649.7473263554612,left,1,2,0.5306226415032143,C02N10,2021_Oct_01_1339,t1_Paradigm,2021.1.4,60.0129567845193,
V,left,Distractor,0,2,2,2,651.2454215932503,653.2473030973115,left,1,2,0.5026333036803408,C02N10,2021_Oct_01_1339,t1_Paradigm,2021.1.4,60.0129567845193,
N,right,Target,0,3,3,3,654.7454256032761,656.7476458743095,right,1,2,0.6822891921465271,C02N10,2021_Oct_01_1339,t1_Paradigm,2021.1.4,60.0129567845193,
N,left,Lure,0,4,4,4,658.2454597686956,660.2454822248392,right,0,2,1.0563386155527041,C02N10,2021_Oct_01_1339,t1_Paradigm,2021.1.4,60.0129567845193,
X,left,Distractor,0,5,5,5,661.7456514479236,663.7467113779185,left,1,2,0.7071497475135402,C02N10,2021_Oct_01_1339,t1_Paradigm,2021.1.4,60.0129567845193,
G,left,Pretarget,0,6,6,6,665.2454225556567,667.2477284808383,left,1,2,0.550170394012639,C02N10,2021_Oct_01_1339,t1_Paradigm,2021.1.4,60.0129567845193,
H,left,Pretarget,0,7,7,7,668.7453983351015,670.7474315785357,left,1,2,0.5064293544146494,C02N10,2021_Oct_01_1339,t1_Paradigm,2021.1.4,60.0129567845193,
G,right,Target,0,8,8,8,672.2455630669574,674.2463884906483,right,1,2,0.5914470322122725,C02N10,2021_Oct_01_1339,t1_Paradigm,2021.1.4,60.0129567845193,
H,right,Target,0,9,9,9,675.7454833476468,677.7465352575891,right,1,2,0.4834114860605041,C02N10,2021_Oct_01_1339,t1_Paradigm,2021.1.4,60.0129567845193,
T,left,Pretarget,0,10,10,10,679.2460628765612,681.2471311474092,left,1,2,0.5667619555706551,C02N10,2021_Oct_01_1339,t1_Paradigm,2021.1.4,60.0129567845193,
K,left,Distractor,0,11,11,11,682.7453745957491,684.747273102319,right,0,2,1.1147701437230353,C02N10,2021_Oct_01_1339,t1_Paradigm,2021.1.4,60.0129567845193,
T,right,Target,0,12,12,12,686.2456230569423,688.2472094231116,right,1,2,0.6386209746160603,C02N10,2021_Oct_01_1339,t1_Paradigm,2021.1.4,60.0129567845193,
T,left,Lure,0,13,13,13,689.7454503050349,691.7455978739808,left,1,2,1.4282130010169567,C02N10,2021_Oct_01_1339,t1_Paradigm,2021.1.4,60.0129567845193,
J,left,Distractor,0,14,14,14,693.2455184754717,695.2469681799648,left,1,2,0.8389050769173991,C02N10,2021_Oct_01_1339,t1_Paradigm,2021.1.4,60.0129567845193,
Q,left,Pretarget,0,15,15,15,696.7459635883251,698.7475961499904,left,1,2,0.5382891690487668,C02N10,2021_Oct_01_1339,t1_Paradigm,2021.1.4,60.0129567845193,
M,left,Distractor,0,16,16,16,700.2459335933327,702.2489244309054,left,1,2,0.4611192719594328,C02N10,2021_Oct_01_1339,t1_Paradigm,2021.1.4,60.0129567845193,
Q,right,Target,0,17,17,17,703.7454185456309,705.7461843001402,right,1,2,0.5158833910181784,C02N10,2021_Oct_01_1339,t1_Paradigm,2021.1.4,60.0129567845193,
R,left,Distractor,0,18,18,18,707.2453901546487,709.2461222249422,left,1,2,0.6639187831851814,C02N10,2021_Oct_01_1339,t1_Paradigm,2021.1.4,60.0129567845193,
W,left,Distractor,0,19,19,19,710.7454673075435,712.7477132427412,left,1,2,0.8103905861280509,C02N10,2021_Oct_01_1339,t1_Paradigm,2021.1.4,60.0129567845193,
C,left,Pretarget,0,20,20,20,714.2462261648079,716.2481933230183,left,1,2,0.5099748587426802,C02N10,2021_Oct_01_1339,t1_Paradigm,2021.1.4,60.0129567845193,
T,left,Distractor,0,21,21,21,717.7455507160785,719.7466898841813,left,1,2,0.4992058545085456,C02N10,2021_Oct_01_1339,t1_Paradigm,2021.1.4,60.0129567845193,
C,right,Target,0,22,22,22,721.2456025256106,723.2476992878519,right,1,2,0.5501219529014634,C02N10,2021_Oct_01_1339,t1_Paradigm,2021.1.4,60.0129567845193,
F,left,Pretarget,0,23,23,23,724.745481422834,726.7463251322424,left,1,2,0.5075444623635121,C02N10,2021_Oct_01_1339,t1_Paradigm,2021.1.4,60.0129567845193,
C,right,Target,0,24,24,24,728.2453728313376,730.2476024056305,right,1,2,0.5903794029673008,C02N10,2021_Oct_01_1339,t1_Paradigm,2021.1.4,60.0129567845193,
F,right,Target,0,25,25,25,731.7459116183918,733.7584216153855,right,1,2,0.9197282678260308,C02N10,2021_Oct_01_1339,t1_Paradigm,2021.1.4,60.0129567845193,
H,left,Distractor,0,26,26,26,735.2453802097853,737.2464577838928,left,1,2,0.5674767025529945,C02N10,2021_Oct_01_1339,t1_Paradigm,2021.1.4,60.0129567845193,
H,left,Lure,0,27,27,27,738.7454846308547,740.7455199190808,left,1,2,0.5083336354218773,C02N10,2021_Oct_01_1339,t1_Paradigm,2021.1.4,60.0129567845193,
P,left,Distractor,0,28,28,28,742.245460731101,744.2464943553277,left,1,2,0.7354226743536856,C02N10,2021_Oct_01_1339,t1_Paradigm,2021.1.4,60.0129567845193,
G,left,Pretarget,0,29,29,29,745.7454127711944,747.7473417539595,left,1,2,0.5787050953313155,C02N10,2021_Oct_01_1339,t1_Paradigm,2021.1.4,60.0129567845193,
K,left,Distractor,0,30,30,30,749.2454976233375,751.2473476887972,left,1,2,0.6946532242054673,C02N10,2021_Oct_01_1339,t1_Paradigm,2021.1.4,60.0129567845193,
G,right,Target,0,31,31,31,752.7455484704642,754.7472637990595,right,1,2,0.5065907178495763,C02N10,2021_Oct_01_1339,t1_Paradigm,2021.1.4,60.0129567845193,
M,left,Pretarget,0,32,32,32,756.2455983551836,758.2448162397704,left,1,2,0.5610686814743531,C02N10,2021_Oct_01_1339,t1_Paradigm,2021.1.4,60.0129567845193,
B,left,Distractor,0,33,33,33,759.7454390769626,761.7473379043349,left,1,2,0.5466313057249863,C02N10,2021_Oct_01_1339,t1_Paradigm,2021.1.4,60.0129567845193,
M,right,Target,0,34,34,34,763.2459547662684,765.247297964479,right,1,2,0.5186669904624068,C02N10,2021_Oct_01_1339,t1_Paradigm,2021.1.4,60.0129567845193,
M,left,Lure,0,35,35,35,766.7453685005103,768.7455102950189,left,1,2,1.276378670898339,C02N10,2021_Oct_01_1339,t1_Paradigm,2021.1.4,60.0129567845193,
T,left,Distractor,0,36,36,36,770.2458803401914,772.2468815634093,left,1,2,0.7030880726761097,C02N10,2021_Oct_01_1339,t1_Paradigm,2021.1.4,60.0129567845193,
F,left,Distractor,0,37,37,37,773.7454442097951,775.7465326911733,left,1,2,0.5475372507335123,C02N10,2021_Oct_01_1339,t1_Paradigm,2021.1.4,60.0129567845193,
X,left,Distractor,0,38,38,38,777.2453776433686,779.2476360898463,left,1,2,0.5343407373375157,C02N10,2021_Oct_01_1339,t1_Paradigm,2021.1.4,60.0129567845193,
C,left,Distractor,0,39,39,39,780.7452812423508,782.7455443000372,left,1,2,0.460358329481096,C02N10,2021_Oct_01_1339,t1_Paradigm,2021.1.4,60.0129567845193,
R,left,Distractor,0,40,40,40,784.2461016936104,786.2478061149359,left,1,2,0.4941573925461853,C02N10,2021_Oct_01_1339,t1_Paradigm,2021.1.4,60.0129567845193,
B,left,Pretarget,0,41,41,41,787.7455446208396,789.7475640697849,left,1,2,0.5784320927814406,C02N10,2021_Oct_01_1339,t1_Paradigm,2021.1.4,60.0129567845193,
H,left,Distractor,0,42,42,42,791.2453936834718,793.2464160796253,left,1,2,0.4714096395246088,C02N10,2021_Oct_01_1339,t1_Paradigm,2021.1.4,60.0129567845193,
B,right,Target,0,43,43,43,794.7454660243357,796.7475233279238,right,1,2,0.3948287350103783,C02N10,2021_Oct_01_1339,t1_Paradigm,2021.1.4,60.0129567845193,
W,left,Pretarget,0,44,44,44,798.2462579242119,800.2478548768486,left,1,2,0.5900124054160187,C02N10,2021_Oct_01_1339,t1_Paradigm,2021.1.4,60.0129567845193,
L,left,Pretarget,0,45,45,45,801.7457095130958,803.7471877689723,left,1,2,0.6906688626640971,C02N10,2021_Oct_01_1339,t1_Paradigm,2021.1.4,60.0129567845193,
W,right,Target,0,46,46,46,805.245773833909,807.2472389369004,right,1,2,0.9987315486687294,C02N10,2021_Oct_01_1339,t1_Paradigm,2021.1.4,60.0129567845193,
L,right,Target,0,47,47,47,808.7454509466388,810.7473022953063,right,1,2,0.778709137437545,C02N10,2021_Oct_01_1339,t1_Paradigm,2021.1.4,60.0129567845193,
W,right,Target,0,48,48,48,812.245225583194,814.2472642802632,right,1,2,0.7505330928170224,C02N10,2021_Oct_01_1339,t1_Paradigm,2021.1.4,60.0129567845193,
X,left,Distractor,0,49,49,49,815.7453518188031,817.7458737637489,left,1,2,0.5801442133570163,C02N10,2021_Oct_01_1339,t1_Paradigm,2021.1.4,60.0129567845193,
R,left,Distractor,0,50,50,50,819.2454491822273,821.2471693228545,left,1,2,0.5827468804409364,C02N10,2021_Oct_01_1339,t1_Paradigm,2021.1.4,60.0129567845193,
V,left,Pretarget,0,51,51,51,822.7454130919959,824.7475659945967,left,1,2,0.570269284454298,C02N10,2021_Oct_01_1339,t1_Paradigm,2021.1.4,60.0129567845193,
Z,left,Distractor,0,52,52,52,826.2454334629265,828.2467278992244,left,1,2,0.4633263901077953,C02N10,2021_Oct_01_1339,t1_Paradigm,2021.1.4,60.0129567845193,
V,right,Target,0,53,53,53,829.7463248114409,831.7475396888285,right,1,2,0.3702944353353814,C02N10,2021_Oct_01_1339,t1_Paradigm,2021.1.4,60.0129567845193,
V,left,Lure,0,54,54,54,833.2453802097853,835.2454110067829,left,1,2,1.1128761283816857,C02N10,2021_Oct_01_1339,t1_Paradigm,2021.1.4,60.0129567845193,
N,left,Distractor,0,55,55,55,836.7455147862483,838.7474607715221,left,1,2,0.7306000570388278,C02N10,2021_Oct_01_1339,t1_Paradigm,2021.1.4,60.0129567845193,
B,left,Distractor,0,56,56,56,840.2454228764591,842.2471866461656,left,1,2,0.5906751824641105,C02N10,2021_Oct_01_1339,t1_Paradigm,2021.1.4,60.0129567845193,
V,left,Lure,0,57,57,57,843.7455029165721,845.7476474783198,left,1,2,0.5145504584734226,C02N10,2021_Oct_01_1339,t1_Paradigm,2021.1.4,60.0129567845193,
J,left,Distractor,0,58,58,58,847.2462932124381,849.2472286712346,left,1,2,0.43854314803684247,C02N10,2021_Oct_01_1339,t1_Paradigm,2021.1.4,60.0129567845193,
H,left,Distractor,0,59,59,59,850.7453101145356,852.7454833476468,left,1,2,0.6043301219979185,C02N10,2021_Oct_01_1339,t1_Paradigm,2021.1.4,60.0129567845193,
X,left,Pretarget,0,60,60,60,854.2453125205511,856.2477095535169,left,1,2,0.6701805185257399,C02N10,2021_Oct_01_1339,t1_Paradigm,2021.1.4,60.0129567845193,
P,left,Distractor,0,61,61,61,857.7460251823195,859.7476343254348,left,1,2,0.4343043904646038,C02N10,2021_Oct_01_1339,t1_Paradigm,2021.1.4,60.0129567845193,
X,right,Target,0,62,62,62,861.2461212625358,863.2472097439131,right,1,2,0.6150112264676864,C02N10,2021_Oct_01_1339,t1_Paradigm,2021.1.4,60.0129567845193,
Q,left,Distractor,0,63,63,63,864.7463244906385,866.747642024684,left,1,2,0.44235299326010136,C02N10,2021_Oct_01_1339,t1_Paradigm,2021.1.4,60.0129567845193,
B,left,Pretarget,0,0,0,0,886.1127933614507,888.0962265016506,left,1,2,0.949601996929232,C02N10,2021_Oct_01_1339,t1_Paradigm,2021.1.4,60.0129567845193,
F,left,Distractor,0,1,1,1,889.5954920253416,891.5965073638508,left,1,2,0.4733415095088276,C02N10,2021_Oct_01_1339,t1_Paradigm,2021.1.4,60.0129567845193,
B,right,Target,0,2,2,2,893.0954838448897,895.0962906620616,right,1,2,0.42980834964419046,C02N10,2021_Oct_01_1339,t1_Paradigm,2021.1.4,60.0129567845193,
V,left,Distractor,0,3,3,3,896.5951709024839,898.5946948322317,left,1,2,0.7392286699514443,C02N10,2021_Oct_01_1339,t1_Paradigm,2021.1.4,60.0129567845193,
G,left,Pretarget,0,4,4,4,900.095858541692,902.0972639755009,left,1,2,0.7726183895929353,C02N10,2021_Oct_01_1339,t1_Paradigm,2021.1.4,60.0129567845193,
B,left,Lure,0,5,5,5,903.595465398771,905.597146722349,left,1,2,0.9207147341503514,C02N10,2021_Oct_01_1339,t1_Paradigm,2021.1.4,60.0129567845193,
G,right,Target,0,6,6,6,907.0954196844787,909.0970618702058,None,0,2,,C02N10,2021_Oct_01_1339,t1_Paradigm,2021.1.4,60.0129567845193,
Y,left,Pretarget,0,7,7,7,910.5953951431211,912.5976968978757,left,1,2,0.49640910218113277,C02N10,2021_Oct_01_1339,t1_Paradigm,2021.1.4,60.0129567845193,
P,left,Distractor,0,8,8,8,914.0961838349767,916.0972671835216,left,1,2,0.612824960452599,C02N10,2021_Oct_01_1339,t1_Paradigm,2021.1.4,60.0129567845193,
Y,right,Target,0,9,9,9,917.596417860077,919.597505379048,right,1,2,0.4244522385088203,C02N10,2021_Oct_01_1339,t1_Paradigm,2021.1.4,60.0129567845193,
X,left,Distractor,0,10,10,10,921.0954934689516,923.0965880455678,left,1,2,0.46174676078135235,C02N10,2021_Oct_01_1339,t1_Paradigm,2021.1.4,60.0129567845193,
Y,right,Target,0,11,11,11,924.5954429426274,926.596419143285,right,1,2,0.5296239847020843,C02N10,2021_Oct_01_1339,t1_Paradigm,2021.1.4,60.0129567845193,
N,left,Distractor,0,12,12,12,928.0954228924993,930.0976094793159,left,1,2,0.4844034060197373,C02N10,2021_Oct_01_1339,t1_Paradigm,2021.1.4,60.0129567845193,
Y,right,Target,0,13,13,13,931.5960338600153,933.5976272838298,right,1,2,0.5203143090220692,C02N10,2021_Oct_01_1339,t1_Paradigm,2021.1.4,60.0129567845193,
Y,left,Lure,0,14,14,14,935.0960644966117,937.0956869125912,left,1,2,0.8466059302827489,C02N10,2021_Oct_01_1339,t1_Paradigm,2021.1.4,60.0129567845193,
K,left,Distractor,0,15,15,15,938.5962215292184,940.5976673840869,left,1,2,0.6402403833963035,C02N10,2021_Oct_01_1339,t1_Paradigm,2021.1.4,60.0129567845193,
T,left,Pretarget,0,16,16,16,942.0960731582672,944.0977493490127,left,1,2,0.5803190504775557,C02N10,2021_Oct_01_1339,t1_Paradigm,2021.1.4,60.0129567845193,
J,left,Distractor,0,17,17,17,945.5960742810748,947.5971399855061,left,1,2,0.5047849230732027,C02N10,2021_Oct_01_1339,t1_Paradigm,2021.1.4,60.0129567845193,
T,right,Target,0,18,18,18,949.0962544114291,951.0977698803445,right,1,2,0.7803952730464516,C02N10,2021_Oct_01_1339,t1_Paradigm,2021.1.4,60.0129567845193,
S,left,Pretarget,0,19,19,19,952.5952966568893,954.5956225917789,left,1,2,0.7863307526940844,C02N10,2021_Oct_01_1339,t1_Paradigm,2021.1.4,60.0129567845193,
R,left,Distractor,0,20,20,20,956.0954575391206,958.0964000555632,None,0,2,,C02N10,2021_Oct_01_1339,t1_Paradigm,2021.1.4,60.0129567845193,
S,right,Target,0,21,21,21,959.5954002759536,961.5975708226679,right,1,2,0.9843746942351572,C02N10,2021_Oct_01_1339,t1_Paradigm,2021.1.4,60.0129567845193,
Q,left,Distractor,0,22,22,22,963.0962649978974,965.0971728677168,left,1,2,0.46077569295630383,C02N10,2021_Oct_01_1339,t1_Paradigm,2021.1.4,60.0129567845193,
D,left,Distractor,0,23,23,23,966.5953159050132,968.5955504113163,left,1,2,0.4663987114026895,C02N10,2021_Oct_01_1339,t1_Paradigm,2021.1.4,60.0129567845193,
F,left,Distractor,0,24,24,24,970.095361940108,972.0948653385249,None,0,2,,C02N10,2021_Oct_01_1339,t1_Paradigm,2021.1.4,60.0129567845193,
Z,left,Distractor,0,25,25,25,973.595672316098,975.6085374409686,left,1,2,0.5574429766329558,C02N10,2021_Oct_01_1339,t1_Paradigm,2021.1.4,60.0129567845193,
P,left,Distractor,0,26,26,26,977.0954652383707,979.0974356046008,left,1,2,0.492549532639714,C02N10,2021_Oct_01_1339,t1_Paradigm,2021.1.4,60.0129567845193,
H,left,Distractor,0,27,27,27,980.595381990237,982.5972015795014,left,1,2,0.4326904353192731,C02N10,2021_Oct_01_1339,t1_Paradigm,2021.1.4,60.0129567845193,
Z,left,Pretarget,0,28,28,28,984.0954277045294,986.0965386420512,left,1,2,0.43734431075245084,C02N10,2021_Oct_01_1339,t1_Paradigm,2021.1.4,60.0129567845193,
J,left,Pretarget,0,29,29,29,987.5956023812496,989.5967723463491,left,1,2,0.5210819883432123,C02N10,2021_Oct_01_1339,t1_Paradigm,2021.1.4,60.0129567845193,
Z,right,Target,0,30,30,30,991.0955816895166,993.0967279152646,right,1,2,0.4616553321957326,C02N10,2021_Oct_01_1339,t1_Paradigm,2021.1.4,60.0129567845193,
J,right,Target,0,31,31,31,994.5954775892496,996.5978335595519,right,1,2,0.9761002467930666,C02N10,2021_Oct_01_1339,t1_Paradigm,2021.1.4,60.0129567845193,
V,left,Pretarget,0,32,32,32,998.0960574389665,1000.0975863815675,None,0,2,,C02N10,2021_Oct_01_1339,t1_Paradigm,2021.1.4,60.0129567845193,
Z,left,Lure,0,33,33,33,1001.5961195141645,1003.5973882862982,left,1,2,0.8085539943540425,C02N10,2021_Oct_01_1339,t1_Paradigm,2021.1.4,60.0129567845193,
V,right,Target,0,34,34,34,1005.0954552935063,1007.0972492186065,right,1,2,0.4287458532326127,C02N10,2021_Oct_01_1339,t1_Paradigm,2021.1.4,60.0129567845193,
X,left,Distractor,0,35,35,35,1008.5953970679329,1010.5973311835314,left,1,2,0.6245390475451131,C02N10,2021_Oct_01_1339,t1_Paradigm,2021.1.4,60.0129567845193,
S,left,Distractor,0,36,36,36,1012.0954690879953,1014.0976717149151,left,1,2,0.5482272959561669,C02N10,2021_Oct_01_1339,t1_Paradigm,2021.1.4,60.0129567845193,
Q,left,Distractor,0,37,37,37,1015.5953553636664,1017.5960652986168,left,1,2,0.4738127677292141,C02N10,2021_Oct_01_1339,t1_Paradigm,2021.1.4,60.0129567845193,
P,left,Distractor,0,38,38,38,1019.0959169276657,1021.097433679789,left,1,2,0.39664287063988013,C02N10,2021_Oct_01_1339,t1_Paradigm,2021.1.4,60.0129567845193,
S,left,Lure,0,39,39,39,1022.595373007779,1024.5956341406527,left,1,2,0.49848052105880925,C02N10,2021_Oct_01_1339,t1_Paradigm,2021.1.4,60.0129567845193,
K,left,Pretarget,0,40,40,40,1026.095297138093,1028.097152977989,left,1,2,0.4528544485783641,C02N10,2021_Oct_01_1339,t1_Paradigm,2021.1.4,60.0129567845193,
L,left,Distractor,0,41,41,41,1029.5961625016398,1031.5976128477378,left,1,2,0.44035952928061306,C02N10,2021_Oct_01_1339,t1_Paradigm,2021.1.4,60.0129567845193,
K,right,Target,0,42,42,42,1033.0964077548124,1035.097719835223,right,1,2,0.36430281532648223,C02N10,2021_Oct_01_1339,t1_Paradigm,2021.1.4,60.0129567845193,
B,left,Distractor,0,43,43,43,1036.595359854895,1038.5958121857948,left,1,2,0.5142607742172913,C02N10,2021_Oct_01_1339,t1_Paradigm,2021.1.4,60.0129567845193,
N,left,Distractor,0,44,44,44,1040.0953876042722,1042.0958742609928,left,1,2,0.758009705546101,C02N10,2021_Oct_01_1339,t1_Paradigm,2021.1.4,60.0129567845193,
S,left,Pretarget,0,45,45,45,1043.5953159050132,1045.5956745617123,left,1,2,0.4742923668036383,C02N10,2021_Oct_01_1339,t1_Paradigm,2021.1.4,60.0129567845193,
Z,left,Distractor,0,46,46,46,1047.09597370963,1049.0976617700508,left,1,2,0.4762598458164575,C02N10,2021_Oct_01_1339,t1_Paradigm,2021.1.4,60.0129567845193,
S,right,Target,0,47,47,47,1050.596032897609,1052.597661930452,right,1,2,0.7042471305057916,C02N10,2021_Oct_01_1339,t1_Paradigm,2021.1.4,60.0129567845193,
C,left,Distractor,0,48,48,48,1054.0956031832548,1056.0972428025652,left,1,2,0.46878708271196956,C02N10,2021_Oct_01_1339,t1_Paradigm,2021.1.4,60.0129567845193,
T,left,Pretarget,0,49,49,49,1057.5960383512438,1059.5976651384726,left,1,2,0.552200750227712,C02N10,2021_Oct_01_1339,t1_Paradigm,2021.1.4,60.0129567845193,
S,left,Lure,0,50,50,50,1061.095444065435,1063.0976948126627,left,1,2,0.5082797406766986,C02N10,2021_Oct_01_1339,t1_Paradigm,2021.1.4,60.0129567845193,
T,right,Target,0,51,51,51,1064.5962449477684,1066.597647494359,right,1,2,0.464395944163698,C02N10,2021_Oct_01_1339,t1_Paradigm,2021.1.4,60.0129567845193,
N,left,Pretarget,0,52,52,52,1068.0954841656912,1070.0964754440465,left,1,2,0.4054212981127421,C02N10,2021_Oct_01_1339,t1_Paradigm,2021.1.4,60.0129567845193,
B,left,Distractor,0,53,53,53,1071.5954159952544,1073.5970620306061,left,1,2,0.5209065096196355,C02N10,2021_Oct_01_1339,t1_Paradigm,2021.1.4,60.0129567845193,
N,right,Target,0,54,54,54,1075.0955063010333,1077.095001358597,right,1,2,0.6710178118928525,C02N10,2021_Oct_01_1339,t1_Paradigm,2021.1.4,60.0129567845193,
N,left,Lure,0,55,55,55,1078.5954772684472,1080.5956344614551,left,1,2,0.9942544351679317,C02N10,2021_Oct_01_1339,t1_Paradigm,2021.1.4,60.0129567845193,
X,left,Distractor,0,56,56,56,1082.0953134989977,1084.097285469239,left,1,2,0.7086870309667574,C02N10,2021_Oct_01_1339,t1_Paradigm,2021.1.4,60.0129567845193,
W,left,Distractor,0,57,57,57,1085.5953527972497,1087.5971403063086,left,1,2,0.5207570158609087,C02N10,2021_Oct_01_1339,t1_Paradigm,2021.1.4,60.0129567845193,
S,left,Distractor,0,58,58,58,1089.0954427822262,1091.0963824114497,left,1,2,0.4456543672231419,C02N10,2021_Oct_01_1339,t1_Paradigm,2021.1.4,60.0129567845193,
L,left,Distractor,0,59,59,59,1092.5954002759536,1094.5965577297738,left,1,2,0.48143598699789436,C02N10,2021_Oct_01_1339,t1_Paradigm,2021.1.4,60.0129567845193,
K,left,Pretarget,0,60,60,60,1096.0960622509974,1098.0973249278913,left,1,2,0.4365269071122384,C02N10,2021_Oct_01_1339,t1_Paradigm,2021.1.4,60.0129567845193,
V,left,Pretarget,0,61,61,61,1099.5953467020108,1101.5971929178459,left,1,2,0.5207165948022521,C02N10,2021_Oct_01_1339,t1_Paradigm,2021.1.4,60.0129567845193,
K,right,Target,0,62,62,62,1103.0953831130437,1105.0971921158407,right,1,2,0.4607872418300758,C02N10,2021_Oct_01_1339,t1_Paradigm,2021.1.4,60.0129567845193,
V,right,Target,0,63,63,63,1106.5954147120465,1108.596828807511,right,1,2,0.9770376304022648,C02N10,2021_Oct_01_1339,t1_Paradigm,2021.1.4,60.0129567845193,
R,left,Distractor,0,0,0,0,1581.8937554917302,1583.8799504168337,left,1,3,0.47810413683964725,C02N10,2021_Oct_01_1339,t1_Paradigm,2021.1.4,60.0129567845193,
P,left,Lure,0,1,1,1,1585.3787895945925,1587.3795887125152,left,1,3,0.3383964452559667,C02N10,2021_Oct_01_1339,t1_Paradigm,2021.1.4,60.0129567845193,
V,left,Distractor,0,2,2,2,1588.878698968012,1590.880794126243,left,1,3,0.5171913010026401,C02N10,2021_Oct_01_1339,t1_Paradigm,2021.1.4,60.0129567845193,
P,left,Pretarget,0,3,3,3,1592.3787745168966,1594.3797446223152,left,1,3,1.0023630279474673,C02N10,2021_Oct_01_1339,t1_Paradigm,2021.1.4,60.0129567845193,
Z,left,Distractor,0,4,4,4,1595.8785571735025,1597.880044411837,None,0,3,,C02N10,2021_Oct_01_1339,t1_Paradigm,2021.1.4,60.0129567845193,
L,left,Pretarget,0,5,5,5,1599.378654857729,1601.3810297553528,left,1,3,0.784998461754185,C02N10,2021_Oct_01_1339,t1_Paradigm,2021.1.4,60.0129567845193,
P,right,Target,0,6,6,6,1602.8787714692762,1604.8801752990757,left,0,3,0.8217347884483388,C02N10,2021_Oct_01_1339,t1_Paradigm,2021.1.4,60.0129567845193,
S,left,Distractor,0,7,7,7,1606.3785159504387,1608.3795293641351,left,1,3,0.7944120772990573,C02N10,2021_Oct_01_1339,t1_Paradigm,2021.1.4,60.0129567845193,
L,right,Target,0,8,8,8,1609.8787422762898,1611.879773334099,right,1,3,0.7182681051854161,C02N10,2021_Oct_01_1339,t1_Paradigm,2021.1.4,60.0129567845193,
D,left,Distractor,0,9,9,9,1613.3795505370708,1615.3792935746233,left,1,3,0.5946624312236963,C02N10,2021_Oct_01_1339,t1_Paradigm,2021.1.4,60.0129567845193,
G,left,Distractor,0,10,10,10,1616.878709233678,1618.8808088831374,left,1,3,0.6453533265730584,C02N10,2021_Oct_01_1339,t1_Paradigm,2021.1.4,60.0129567845193,
M,left,Pretarget,0,11,11,11,1620.3788088427164,1622.378918877822,left,1,3,0.7631884131433253,C02N10,2021_Oct_01_1339,t1_Paradigm,2021.1.4,60.0129567845193,
Y,left,Distractor,0,12,12,12,1623.8788019454723,1625.8797232889783,left,1,3,0.558273212354834,C02N10,2021_Oct_01_1339,t1_Paradigm,2021.1.4,60.0129567845193,
V,left,Distractor,0,13,13,13,1627.3788091635179,1629.3807480911473,left,1,3,0.5932768871425651,C02N10,2021_Oct_01_1339,t1_Paradigm,2021.1.4,60.0129567845193,
M,right,Target,0,14,14,14,1630.879579569657,1632.8805394094097,right,1,3,0.5978662813622577,C02N10,2021_Oct_01_1339,t1_Paradigm,2021.1.4,60.0129567845193,
S,left,Pretarget,0,15,15,15,1634.3786173238886,1636.3801623065929,left,1,3,0.6337630690741207,C02N10,2021_Oct_01_1339,t1_Paradigm,2021.1.4,60.0129567845193,
Q,left,Distractor,0,16,16,16,1637.8787615244128,1639.880191980783,left,1,3,0.5259511219564956,C02N10,2021_Oct_01_1339,t1_Paradigm,2021.1.4,60.0129567845193,
R,left,Pretarget,0,17,17,17,1641.3788855144076,1643.3801552489476,left,1,3,0.9140321065115131,C02N10,2021_Oct_01_1339,t1_Paradigm,2021.1.4,60.0129567845193,
S,right,Target,0,18,18,18,1644.8787846221612,1646.8810838105,None,0,3,,C02N10,2021_Oct_01_1339,t1_Paradigm,2021.1.4,60.0129567845193,
F,left,Distractor,0,19,19,19,1648.3786205319093,1650.3789163114052,left,1,3,0.5550337531885816,C02N10,2021_Oct_01_1339,t1_Paradigm,2021.1.4,60.0129567845193,
R,right,Target,0,20,20,20,1651.8787127625,1653.8789504768238,left,0,3,0.4950649415650332,C02N10,2021_Oct_01_1339,t1_Paradigm,2021.1.4,60.0129567845193,
P,left,Distractor,0,21,21,21,1655.3785576547061,1657.380800381883,left,1,3,0.46519730770069145,C02N10,2021_Oct_01_1339,t1_Paradigm,2021.1.4,60.0129567845193,
L,left,Distractor,0,22,22,22,1658.8788375545,1660.87975472758,left,1,3,0.6304357101444111,C02N10,2021_Oct_01_1339,t1_Paradigm,2021.1.4,60.0129567845193,
R,right,Target,0,23,23,23,1662.3790539354877,1664.3809838806592,left,0,3,0.44101653189227363,C02N10,2021_Oct_01_1339,t1_Paradigm,2021.1.4,60.0129567845193,
H,left,Pretarget,0,24,24,24,1665.8796190283101,1667.881223680196,left,1,3,0.41293833189956786,C02N10,2021_Oct_01_1339,t1_Paradigm,2021.1.4,60.0129567845193,
G,left,Pretarget,0,25,25,25,1669.3785948677441,1671.3791636497908,left,1,3,0.4667993931707315,C02N10,2021_Oct_01_1339,t1_Paradigm,2021.1.4,60.0129567845193,
T,left,Distractor,0,26,26,26,1672.8785497950557,1674.8788584066342,left,1,3,0.4550897973076644,C02N10,2021_Oct_01_1339,t1_Paradigm,2021.1.4,60.0129567845193,
H,right,Target,0,27,27,27,1676.3786263063457,1678.3800724820167,left,0,3,0.553932118926241,C02N10,2021_Oct_01_1339,t1_Paradigm,2021.1.4,60.0129567845193,
G,right,Target,0,28,28,28,1679.8795401110037,1681.880596832978,left,0,3,1.0693641414518424,C02N10,2021_Oct_01_1339,t1_Paradigm,2021.1.4,60.0129567845193,
D,left,Distractor,0,29,29,29,1683.3785794692458,1685.379060351528,left,1,3,0.5790185189407566,C02N10,2021_Oct_01_1339,t1_Paradigm,2021.1.4,60.0129567845193,
N,left,Pretarget,0,30,30,30,1686.8786335243922,1688.8788725219247,left,1,3,0.5031998401118472,C02N10,2021_Oct_01_1339,t1_Paradigm,2021.1.4,60.0129567845193,
V,left,Distractor,0,31,31,31,1690.379668592227,1692.3809723317854,left,1,3,0.4089728976796323,C02N10,2021_Oct_01_1339,t1_Paradigm,2021.1.4,60.0129567845193,
R,left,Distractor,0,32,32,32,1693.878718216135,1695.8788375545,left,1,3,0.5430906134279212,C02N10,2021_Oct_01_1339,t1_Paradigm,2021.1.4,60.0129567845193,
N,right,Target,0,33,33,33,1697.37948798067,1699.3810201312917,left,0,3,0.5131042828043064,C02N10,2021_Oct_01_1339,t1_Paradigm,2021.1.4,60.0129567845193,
Z,left,Distractor,0,34,34,34,1700.8785629479398,1702.878934115919,left,1,3,0.4390342959859481,C02N10,2021_Oct_01_1339,t1_Paradigm,2021.1.4,60.0129567845193,
N,left,Lure,0,35,35,35,1704.3786028877958,1706.37903404576,left,1,3,0.45902250971812464,C02N10,2021_Oct_01_1339,t1_Paradigm,2021.1.4,60.0129567845193,
Y,left,Pretarget,0,36,36,36,1707.8786129930604,1709.8807639708493,left,1,3,0.4614134474450111,C02N10,2021_Oct_01_1339,t1_Paradigm,2021.1.4,60.0129567845193,
Y,left,Lure,0,37,37,37,1711.3789445419861,1713.3790622763408,left,1,3,0.40306757342477795,C02N10,2021_Oct_01_1339,t1_Paradigm,2021.1.4,60.0129567845193,
B,left,Distractor,0,38,38,38,1714.8792260457903,1716.8793328728752,left,1,3,0.5507045294361887,C02N10,2021_Oct_01_1339,t1_Paradigm,2021.1.4,60.0129567845193,
Y,right,Target,0,39,39,39,1718.378642346449,1720.379285875374,right,1,3,0.3947180583008958,C02N10,2021_Oct_01_1339,t1_Paradigm,2021.1.4,60.0129567845193,
J,left,Distractor,0,40,40,40,1721.8792000608237,1723.88083743452,left,1,3,0.5091144676271142,C02N10,2021_Oct_01_1339,t1_Paradigm,2021.1.4,60.0129567845193,
X,left,Distractor,0,41,41,41,1725.3787482111275,1727.3810621563607,left,1,3,0.529133478357835,C02N10,2021_Oct_01_1339,t1_Paradigm,2021.1.4,60.0129567845193,
W,left,Pretarget,0,42,42,42,1728.8788667474873,1730.8806401412558,left,1,3,0.4373561804277415,C02N10,2021_Oct_01_1339,t1_Paradigm,2021.1.4,60.0129567845193,
S,left,Pretarget,0,43,43,43,1732.3788184667783,1734.379807178716,left,1,3,0.44222050201005914,C02N10,2021_Oct_01_1339,t1_Paradigm,2021.1.4,60.0129567845193,
R,left,Distractor,0,44,44,44,1735.8787660156413,1737.8797742965053,left,1,3,0.43043487605973496,C02N10,2021_Oct_01_1339,t1_Paradigm,2021.1.4,60.0129567845193,
W,right,Target,0,45,45,45,1739.3788117299346,1741.3805639507673,left,0,3,0.4816554156041093,C02N10,2021_Oct_01_1339,t1_Paradigm,2021.1.4,60.0129567845193,
S,right,Target,0,46,46,46,1742.8788167023667,1744.8799173742227,left,0,3,0.5982374493405587,C02N10,2021_Oct_01_1339,t1_Paradigm,2021.1.4,60.0129567845193,
D,left,Distractor,0,47,47,47,1746.3787356998473,1748.3803756399602,left,1,3,0.4736273441403682,C02N10,2021_Oct_01_1339,t1_Paradigm,2021.1.4,60.0129567845193,
T,left,Distractor,0,48,48,48,1749.8788952988707,1751.8811784471063,left,1,3,0.42906665528880694,C02N10,2021_Oct_01_1339,t1_Paradigm,2021.1.4,60.0129567845193,
S,right,Target,0,49,49,49,1753.3787443615029,1755.3798225772143,right,1,3,0.5622886916953576,C02N10,2021_Oct_01_1339,t1_Paradigm,2021.1.4,60.0129567845193,
K,left,Distractor,0,50,50,50,1756.8788863164127,1758.8798275496465,left,1,3,0.4701703811797415,C02N10,2021_Oct_01_1339,t1_Paradigm,2021.1.4,60.0129567845193,
S,left,Lure,0,51,51,51,1760.378720301349,1762.379870697523,right,0,3,0.7143004253521212,C02N10,2021_Oct_01_1339,t1_Paradigm,2021.1.4,60.0129567845193,
T,left,Pretarget,0,52,52,52,1763.8795869481046,1765.881011309235,left,1,3,0.6050329993040577,C02N10,2021_Oct_01_1339,t1_Paradigm,2021.1.4,60.0129567845193,
V,left,Distractor,0,53,53,53,1767.379585825297,1769.380493374315,left,1,3,0.40161851053562714,C02N10,2021_Oct_01_1339,t1_Paradigm,2021.1.4,60.0129567845193,
B,left,Distractor,0,54,54,54,1770.8789466271992,1772.8802128329162,left,1,3,0.4858909651557042,C02N10,2021_Oct_01_1339,t1_Paradigm,2021.1.4,60.0129567845193,
T,right,Target,0,55,55,55,1774.3788207123926,1776.3803579958467,right,1,3,0.6017637055456362,C02N10,2021_Oct_01_1339,t1_Paradigm,2021.1.4,60.0129567845193,
Y,left,Pretarget,0,56,56,56,1777.8788898452358,1779.8810318405667,left,1,3,0.5889566458472473,C02N10,2021_Oct_01_1339,t1_Paradigm,2021.1.4,60.0129567845193,
T,left,Lure,0,57,57,57,1781.37902313849,1783.380834707703,None,0,3,,C02N10,2021_Oct_01_1339,t1_Paradigm,2021.1.4,60.0129567845193,
P,left,Pretarget,0,58,58,58,1784.8787114792922,1786.878966516927,left,1,3,0.6631575199044164,C02N10,2021_Oct_01_1339,t1_Paradigm,2021.1.4,60.0129567845193,
Y,right,Target,0,59,59,59,1788.378830015652,1790.3810358505925,left,0,3,0.6649395753283898,C02N10,2021_Oct_01_1339,t1_Paradigm,2021.1.4,60.0129567845193,
R,left,Distractor,0,60,60,60,1791.8789363615333,1793.8807482515485,left,1,3,0.4774612495175461,C02N10,2021_Oct_01_1339,t1_Paradigm,2021.1.4,60.0129567845193,
P,right,Target,0,61,61,61,1795.3786670482068,1797.380557534726,left,0,3,0.44950719992175436,C02N10,2021_Oct_01_1339,t1_Paradigm,2021.1.4,60.0129567845193,
L,left,Distractor,0,62,62,62,1798.8785918201247,1800.8790480006492,left,1,3,0.7429955276984401,C02N10,2021_Oct_01_1339,t1_Paradigm,2021.1.4,60.0129567845193,
V,left,Distractor,0,63,63,63,1802.3786343263973,1804.3789256146647,left,1,3,0.5710350389636005,C02N10,2021_Oct_01_1339,t1_Paradigm,2021.1.4,60.0129567845193,
H,left,Lure,0,0,0,0,1814.2343946641631,1816.2307561272391,left,1,3,0.5592330521076292,C02N10,2021_Oct_01_1339,t1_Paradigm,2021.1.4,60.0129567845193,
B,left,Distractor,0,1,1,1,1817.7291137811108,1819.7305827337277,left,1,3,0.29143198659585323,C02N10,2021_Oct_01_1339,t1_Paradigm,2021.1.4,60.0129567845193,
T,left,Distractor,0,2,2,2,1821.2288018011113,1823.2310936110025,left,1,3,0.2791333981567732,C02N10,2021_Oct_01_1339,t1_Paradigm,2021.1.4,60.0129567845193,
R,left,Distractor,0,3,3,3,1824.7287965078767,1826.7304720570182,left,1,3,0.4116531988620409,C02N10,2021_Oct_01_1339,t1_Paradigm,2021.1.4,60.0129567845193,
H,left,Pretarget,0,4,4,4,1828.2287299414502,1830.2311722075065,left,1,3,0.5749481824477698,C02N10,2021_Oct_01_1339,t1_Paradigm,2021.1.4,60.0129567845193,
K,left,Distractor,0,5,5,5,1831.7285578311466,1833.729037430221,left,1,3,0.4209766690291872,C02N10,2021_Oct_01_1339,t1_Paradigm,2021.1.4,60.0129567845193,
G,left,Distractor,0,6,6,6,1835.2288957961136,1837.23068298437,left,1,3,0.5033358601840519,C02N10,2021_Oct_01_1339,t1_Paradigm,2021.1.4,60.0129567845193,
H,right,Target,0,7,7,7,1838.7288231344473,1840.7310700320513,left,0,3,0.5549307757282804,C02N10,2021_Oct_01_1339,t1_Paradigm,2021.1.4,60.0129567845193,
Y,left,Pretarget,0,8,8,8,1842.2287604176454,1844.230564287609,left,1,3,0.4476048437263671,C02N10,2021_Oct_01_1339,t1_Paradigm,2021.1.4,60.0129567845193,
S,left,Distractor,0,9,9,9,1845.7288869740569,1847.7309769994554,left,1,3,0.41918178152263863,C02N10,2021_Oct_01_1339,t1_Paradigm,2021.1.4,60.0129567845193,
P,left,Distractor,0,10,10,10,1849.2287424527303,1851.2295550443396,left,1,3,0.5684666976985682,C02N10,2021_Oct_01_1339,t1_Paradigm,2021.1.4,60.0129567845193,
Y,right,Target,0,11,11,11,1852.7287692397022,1854.7294307335424,left,0,3,0.49261529706109286,C02N10,2021_Oct_01_1339,t1_Paradigm,2021.1.4,60.0129567845193,
H,left,Lure,0,12,12,12,1856.2296252999904,1858.2305687788385,left,1,3,0.4796725380929274,C02N10,2021_Oct_01_1339,t1_Paradigm,2021.1.4,60.0129567845193,
Q,left,Distractor,0,13,13,13,1859.7286136507046,1861.7289556256974,left,1,3,0.48517942619400856,C02N10,2021_Oct_01_1339,t1_Paradigm,2021.1.4,60.0129567845193,
V,left,Pretarget,0,14,14,14,1863.245589693528,1865.2304009993622,left,1,3,0.43959537878163246,C02N10,2021_Oct_01_1339,t1_Paradigm,2021.1.4,60.0129567845193,
G,left,Distractor,0,15,15,15,1866.7286800567308,1868.7301316860357,right,0,3,1.148251291950146,C02N10,2021_Oct_01_1339,t1_Paradigm,2021.1.4,60.0129567845193,
Z,left,Pretarget,0,16,16,16,1870.2289038161653,1872.230160077018,left,1,3,0.46406904686864436,C02N10,2021_Oct_01_1339,t1_Paradigm,2021.1.4,60.0129567845193,
V,right,Target,0,17,17,17,1873.7288350041235,1875.7310623328021,left,0,3,0.4189889794870396,C02N10,2021_Oct_01_1339,t1_Paradigm,2021.1.4,60.0129567845193,
N,left,Distractor,0,18,18,18,1877.228819445224,1879.2306021422519,left,1,3,0.43946545394919667,C02N10,2021_Oct_01_1339,t1_Paradigm,2021.1.4,60.0129567845193,
Z,right,Target,0,19,19,19,1880.7295770192804,1882.7308640771307,left,0,3,0.4272287803069048,C02N10,2021_Oct_01_1339,t1_Paradigm,2021.1.4,60.0129567845193,
R,left,Distractor,0,20,20,20,1884.228809821162,1886.2305540219431,left,1,3,0.43153458550932555,C02N10,2021_Oct_01_1339,t1_Paradigm,2021.1.4,60.0129567845193,
P,left,Distractor,0,21,21,21,1887.7288183224173,1889.7305416710642,left,1,3,0.5478343134373063,C02N10,2021_Oct_01_1339,t1_Paradigm,2021.1.4,60.0129567845193,
Z,right,Target,0,22,22,22,1891.2288101419645,1893.2297157661696,right,1,3,0.584428524820396,C02N10,2021_Oct_01_1339,t1_Paradigm,2021.1.4,60.0129567845193,
D,left,Pretarget,0,23,23,23,1894.728816718407,1896.7305740720722,left,1,3,0.47565545474208193,C02N10,2021_Oct_01_1339,t1_Paradigm,2021.1.4,60.0129567845193,
K,left,Distractor,0,24,24,24,1898.2294671445761,1900.229320858838,left,1,3,0.5287770672721308,C02N10,2021_Oct_01_1339,t1_Paradigm,2021.1.4,60.0129567845193,
W,left,Distractor,0,25,25,25,1901.7287564076205,1903.7292639164734,left,1,3,0.37275434550429054,C02N10,2021_Oct_01_1339,t1_Paradigm,2021.1.4,60.0129567845193,
D,right,Target,0,26,26,26,1905.2287065229002,1907.2291598162064,right,1,3,0.48883432402362814,C02N10,2021_Oct_01_1339,t1_Paradigm,2021.1.4,60.0129567845193,
G,left,Pretarget,0,27,27,27,1908.7286964176355,1910.7291108938925,left,1,3,0.5089171743629777,C02N10,2021_Oct_01_1339,t1_Paradigm,2021.1.4,60.0129567845193,
V,left,Distractor,0,28,28,28,1912.2287302622526,1914.230988387928,left,1,3,0.46325292643632565,C02N10,2021_Oct_01_1339,t1_Paradigm,2021.1.4,60.0129567845193,
D,right,Target,0,29,29,29,1915.7295882473527,1917.7311264932132,right,1,3,0.6588379202148644,C02N10,2021_Oct_01_1339,t1_Paradigm,2021.1.4,60.0129567845193,
G,right,Target,0,30,30,30,1919.2288258612652,1921.2293503726278,left,0,3,0.584780123874225,C02N10,2021_Oct_01_1339,t1_Paradigm,2021.1.4,60.0129567845193,
B,left,Pretarget,0,31,31,31,1922.7286964176355,1924.7293110743758,left,1,3,0.36486614373734483,C02N10,2021_Oct_01_1339,t1_Paradigm,2021.1.4,60.0129567845193,
N,left,Distractor,0,32,32,32,1926.2288646783145,1928.2293304829,left,1,3,0.41669139515852294,C02N10,2021_Oct_01_1339,t1_Paradigm,2021.1.4,60.0129567845193,
F,left,Distractor,0,33,33,33,1929.7286245579744,1931.7301092298922,left,1,3,0.37193790427045315,C02N10,2021_Oct_01_1339,t1_Paradigm,2021.1.4,60.0129567845193,
B,right,Target,0,34,34,34,1933.228836768535,1935.2303175908282,left,0,3,0.40772401527374313,C02N10,2021_Oct_01_1339,t1_Paradigm,2021.1.4,60.0129567845193,
Q,left,Pretarget,0,35,35,35,1936.7287294602475,1938.7305506535222,left,1,3,0.3636403590799091,C02N10,2021_Oct_01_1339,t1_Paradigm,2021.1.4,60.0129567845193,
S,left,Pretarget,0,36,36,36,1940.2287556056153,1942.2309482876708,left,1,3,0.5112247035549444,C02N10,2021_Oct_01_1339,t1_Paradigm,2021.1.4,60.0129567845193,
W,left,Distractor,0,37,37,37,1943.7287416507252,1945.729982192278,left,1,3,0.3720283704515168,C02N10,2021_Oct_01_1339,t1_Paradigm,2021.1.4,60.0129567845193,
Q,right,Target,0,38,38,38,1947.229657380196,1949.2311244080001,right,1,3,0.4389730227931068,C02N10,2021_Oct_01_1339,t1_Paradigm,2021.1.4,60.0129567845193,
S,right,Target,0,39,39,39,1950.7286088386745,1952.729024918941,left,0,3,0.572992252309632,C02N10,2021_Oct_01_1339,t1_Paradigm,2021.1.4,60.0129567845193,
T,left,Distractor,0,40,40,40,1954.2287158261597,1956.228805009132,left,1,3,0.49741738304419414,C02N10,2021_Oct_01_1339,t1_Paradigm,2021.1.4,60.0129567845193,
G,left,Distractor,0,41,41,41,1957.729336096936,1959.7315403278662,left,1,3,0.43461973888588545,C02N10,2021_Oct_01_1339,t1_Paradigm,2021.1.4,60.0129567845193,
D,left,Distractor,0,42,42,42,1961.2296073350744,1963.2310313754033,left,1,3,0.7111321842421603,C02N10,2021_Oct_01_1339,t1_Paradigm,2021.1.4,60.0129567845193,
S,left,Lure,0,43,43,43,1964.7288176808124,1966.730078753697,left,1,3,0.4920564598787678,C02N10,2021_Oct_01_1339,t1_Paradigm,2021.1.4,60.0129567845193,
Z,left,Pretarget,0,44,44,44,1968.2288245780574,1970.2309434756398,left,1,3,0.49524651552837895,C02N10,2021_Oct_01_1339,t1_Paradigm,2021.1.4,60.0129567845193,
J,left,Distractor,0,45,45,45,1971.728798753492,1973.7308005583236,left,1,3,0.43531427533798706,C02N10,2021_Oct_01_1339,t1_Paradigm,2021.1.4,60.0129567845193,
M,left,Pretarget,0,46,46,46,1975.2288354853272,1977.230560117183,left,1,3,0.45551293522021297,C02N10,2021_Oct_01_1339,t1_Paradigm,2021.1.4,60.0129567845193,
Z,right,Target,0,47,47,47,1978.7288314753014,1980.730558031969,right,1,3,0.7313898717020493,C02N10,2021_Oct_01_1339,t1_Paradigm,2021.1.4,60.0129567845193,
P,left,Distractor,0,48,48,48,1982.2287706833113,1984.229785701018,left,1,3,0.3843551894706252,C02N10,2021_Oct_01_1339,t1_Paradigm,2021.1.4,60.0129567845193,
M,right,Target,0,49,49,49,1985.7289155254402,1987.7299854002986,right,1,3,0.9802459717684542,C02N10,2021_Oct_01_1339,t1_Paradigm,2021.1.4,60.0129567845193,
K,left,Distractor,0,50,50,50,1989.2287597760414,1991.2299852398974,left,1,3,0.45604642903981585,C02N10,2021_Oct_01_1339,t1_Paradigm,2021.1.4,60.0129567845193,
Y,left,Distractor,0,51,51,51,1992.7289575505092,1994.7301085882882,left,1,3,0.380136963230143,C02N10,2021_Oct_01_1339,t1_Paradigm,2021.1.4,60.0129567845193,
X,left,Distractor,0,52,52,52,1996.228937500381,1998.2303743727916,left,1,3,0.44781464827156015,C02N10,2021_Oct_01_1339,t1_Paradigm,2021.1.4,60.0129567845193,
F,left,Pretarget,0,53,53,53,1999.7295404478464,2001.7309911147458,left,1,3,0.49901850610785914,C02N10,2021_Oct_01_1339,t1_Paradigm,2021.1.4,60.0129567845193,
M,left,Lure,0,54,54,54,2003.2286051494502,2005.2288743023755,left,1,3,0.7451452222794614,C02N10,2021_Oct_01_1339,t1_Paradigm,2021.1.4,60.0129567845193,
V,left,Distractor,0,55,55,55,2006.7288423825712,2008.7297265130392,left,1,3,0.5563022045198522,C02N10,2021_Oct_01_1339,t1_Paradigm,2021.1.4,60.0129567845193,
F,right,Target,0,56,56,56,2010.2287844778002,2012.2305110344678,left,0,3,0.4317636381774719,C02N10,2021_Oct_01_1339,t1_Paradigm,2021.1.4,60.0129567845193,
S,left,Distractor,0,57,57,57,2013.7292026432806,2015.7311078866942,left,1,3,0.4510525034265811,C02N10,2021_Oct_01_1339,t1_Paradigm,2021.1.4,60.0129567845193,
D,left,Distractor,0,58,58,58,2017.2288717359597,2019.2303949041234,left,1,3,0.48764928122727724,C02N10,2021_Oct_01_1339,t1_Paradigm,2021.1.4,60.0129567845193,
F,right,Target,0,59,59,59,2020.7288433449776,2022.7302465331722,right,1,3,0.7319098918351301,C02N10,2021_Oct_01_1339,t1_Paradigm,2021.1.4,60.0129567845193,
V,left,Pretarget,0,60,60,60,2024.2287292998462,2026.2303653903346,left,1,3,0.46385731751070125,C02N10,2021_Oct_01_1339,t1_Paradigm,2021.1.4,60.0129567845193,
J,left,Distractor,0,61,61,61,2027.7287644276712,2029.7296963576455,left,1,3,0.5004037293874717,C02N10,2021_Oct_01_1339,t1_Paradigm,2021.1.4,60.0129567845193,
V,left,Lure,0,62,62,62,2031.2292544528127,2033.2310188641231,left,1,3,0.5030490631452267,C02N10,2021_Oct_01_1339,t1_Paradigm,2021.1.4,60.0129567845193,
V,right,Target,0,63,63,63,2034.7287650692751,2036.7288420617688,left,0,3,0.7172242152946637,C02N10,2021_Oct_01_1339,t1_Paradigm,2021.1.4,60.0129567845193,
R,left,Distractor,0,0,0,0,2102.060631909475,2104.04771000264,left,1,4,0.5984366674183548,C02N10,2021_Oct_01_1339,t1_Paradigm,2021.1.4,60.0129567845193,
F,left,Distractor,0,1,1,1,2105.5469193859717,2107.5476681379714,left,1,4,0.36258716592874407,C02N10,2021_Oct_01_1339,t1_Paradigm,2021.1.4,60.0129567845193,
P,left,Pretarget,0,2,2,2,2109.0454040774584,2111.045709801818,left,1,4,0.2883157154192304,C02N10,2021_Oct_01_1339,t1_Paradigm,2021.1.4,60.0129567845193,
H,left,Distractor,0,3,3,3,2112.545331415792,2114.545975586322,left,1,4,0.3240703878200293,C02N10,2021_Oct_01_1339,t1_Paradigm,2021.1.4,60.0129567845193,
Z,left,Distractor,0,4,4,4,2116.045352749129,2118.04595810261,left,1,4,0.45606086513271293,C02N10,2021_Oct_01_1339,t1_Paradigm,2021.1.4,60.0129567845193,
T,left,Distractor,0,5,5,5,2119.545384989736,2121.5458973106197,left,1,4,0.5081697055711629,C02N10,2021_Oct_01_1339,t1_Paradigm,2021.1.4,60.0129567845193,
P,right,Target,0,6,6,6,2123.045298854384,2125.047240990034,right,1,4,0.6868548470138194,C02N10,2021_Oct_01_1339,t1_Paradigm,2021.1.4,60.0129567845193,
G,left,Distractor,0,7,7,7,2126.545478343134,2128.5471875764915,None,0,4,,C02N10,2021_Oct_01_1339,t1_Paradigm,2021.1.4,60.0129567845193,
L,left,Distractor,0,8,8,8,2130.0455073757203,2132.047272107833,left,1,4,0.566907278902363,C02N10,2021_Oct_01_1339,t1_Paradigm,2021.1.4,60.0129567845193,
P,left,Lure,0,9,9,9,2133.54540584187,2135.546549180399,left,1,4,0.3796637801960969,C02N10,2021_Oct_01_1339,t1_Paradigm,2021.1.4,60.0129567845193,
Q,left,Pretarget,0,10,10,10,2137.0454785035354,2139.046789300738,left,1,4,0.4474579163843373,C02N10,2021_Oct_01_1339,t1_Paradigm,2021.1.4,60.0129567845193,
D,left,Distractor,0,11,11,11,2140.5454552453866,2142.5470461027844,left,1,4,0.4671343105183041,C02N10,2021_Oct_01_1339,t1_Paradigm,2021.1.4,60.0129567845193,
M,left,Pretarget,0,12,12,12,2144.045418834353,2146.0463972806247,left,1,4,0.3917435816329089,C02N10,2021_Oct_01_1339,t1_Paradigm,2021.1.4,60.0129567845193,
C,left,Distractor,0,13,13,13,2147.545964999854,2149.547634774558,left,1,4,0.44238282785136107,C02N10,2021_Oct_01_1339,t1_Paradigm,2021.1.4,60.0129567845193,
Q,right,Target,0,14,14,14,2151.046272167823,2153.0472246291283,left,0,4,0.31884837194502325,C02N10,2021_Oct_01_1339,t1_Paradigm,2021.1.4,60.0129567845193,
R,left,Distractor,0,15,15,15,2154.5463034460236,2156.547778814681,left,1,4,0.4503024682189789,C02N10,2021_Oct_01_1339,t1_Paradigm,2021.1.4,60.0129567845193,
M,right,Target,0,16,16,16,2158.0455137917616,2160.046223726713,left,0,4,0.47182668219829793,C02N10,2021_Oct_01_1339,t1_Paradigm,2021.1.4,60.0129567845193,
S,left,Distractor,0,17,17,17,2161.5455178017874,2163.54742914044,left,1,4,0.47471550471709634,C02N10,2021_Oct_01_1339,t1_Paradigm,2021.1.4,60.0129567845193,
Z,left,Distractor,0,18,18,18,2165.0453495411084,2167.0459180023527,left,1,4,0.496299708679544,C02N10,2021_Oct_01_1339,t1_Paradigm,2021.1.4,60.0129567845193,
L,left,Pretarget,0,19,19,19,2168.5454186739516,2170.5459717366975,left,1,4,0.45218268907137826,C02N10,2021_Oct_01_1339,t1_Paradigm,2021.1.4,60.0129567845193,
M,right,Target,0,20,20,20,2172.045412739114,2174.0459828043686,right,1,4,0.6161577730181307,C02N10,2021_Oct_01_1339,t1_Paradigm,2021.1.4,60.0129567845193,
P,left,Distractor,0,21,21,21,2175.5453233957414,2177.5456993757516,left,1,4,0.3964949808914753,C02N10,2021_Oct_01_1339,t1_Paradigm,2021.1.4,60.0129567845193,
F,left,Distractor,0,22,22,22,2179.0456318469187,2181.0471020827435,left,1,4,0.28695134427289304,C02N10,2021_Oct_01_1339,t1_Paradigm,2021.1.4,60.0129567845193,
L,right,Target,0,23,23,23,2182.5453474558954,2184.546365681623,left,0,4,0.38769858850355376,C02N10,2021_Oct_01_1339,t1_Paradigm,2021.1.4,60.0129567845193,
L,left,Lure,0,24,24,24,2186.045593350672,2188.045608428368,left,1,4,0.87245968881507,C02N10,2021_Oct_01_1339,t1_Paradigm,2021.1.4,60.0129567845193,
V,left,Pretarget,0,25,25,25,2189.54541835315,2191.546236719196,left,1,4,0.555805602935834,C02N10,2021_Oct_01_1339,t1_Paradigm,2021.1.4,60.0129567845193,
Z,left,Distractor,0,26,26,26,2193.04542460879,2195.0477039074012,left,1,4,0.4785468436766678,C02N10,2021_Oct_01_1339,t1_Paradigm,2021.1.4,60.0129567845193,
H,left,Distractor,0,27,27,27,2196.5453978218184,2198.5473758872986,left,1,4,0.4507374758077276,C02N10,2021_Oct_01_1339,t1_Paradigm,2021.1.4,60.0129567845193,
X,left,Distractor,0,28,28,28,2200.045563836882,2202.046613501211,left,1,4,0.4714741207371844,C02N10,2021_Oct_01_1339,t1_Paradigm,2021.1.4,60.0129567845193,
V,right,Target,0,29,29,29,2203.5455543732214,2205.5464269548156,right,1,4,0.4916811214725385,C02N10,2021_Oct_01_1339,t1_Paradigm,2021.1.4,60.0129567845193,
C,left,Distractor,0,30,30,30,2207.045508658929,2209.047636218167,left,1,4,0.3665343144321014,C02N10,2021_Oct_01_1339,t1_Paradigm,2021.1.4,60.0129567845193,
S,left,Pretarget,0,31,31,31,2210.5454725686977,2212.546601150332,left,1,4,0.3874765934806419,C02N10,2021_Oct_01_1339,t1_Paradigm,2021.1.4,60.0129567845193,
D,left,Distractor,0,32,32,32,2214.0462683181986,2216.0476484086457,left,1,4,0.3743891527838059,C02N10,2021_Oct_01_1339,t1_Paradigm,2021.1.4,60.0129567845193,
V,left,Distractor,0,33,33,33,2217.545489892008,2219.5471805188463,left,1,4,0.3790674091742403,C02N10,2021_Oct_01_1339,t1_Paradigm,2021.1.4,60.0129567845193,
R,left,Distractor,0,34,34,34,2221.0453633355974,2223.0472701830204,left,1,4,0.4148522369687271,C02N10,2021_Oct_01_1339,t1_Paradigm,2021.1.4,60.0129567845193,
S,right,Target,0,35,35,35,2224.5454225235762,2226.547367225643,left,0,4,0.3867188590229489,C02N10,2021_Oct_01_1339,t1_Paradigm,2021.1.4,60.0129567845193,
Y,left,Distractor,0,36,36,36,2228.045431345633,2230.0475903434735,left,1,4,0.45455886990384897,C02N10,2021_Oct_01_1339,t1_Paradigm,2021.1.4,60.0129567845193,
N,left,Pretarget,0,37,37,37,2231.5463611903933,2233.5472812506914,left,1,4,0.3309698776492951,C02N10,2021_Oct_01_1339,t1_Paradigm,2021.1.4,60.0129567845193,
Z,left,Pretarget,0,38,38,38,2235.0462798670724,2237.047685300882,left,1,4,0.36637968784089026,C02N10,2021_Oct_01_1339,t1_Paradigm,2021.1.4,60.0129567845193,
P,left,Pretarget,0,39,39,39,2238.545372157653,2240.54595345098,left,1,4,0.3560825834319985,C02N10,2021_Oct_01_1339,t1_Paradigm,2021.1.4,60.0129567845193,
M,left,Distractor,0,40,40,40,2242.0453909245743,2244.045896829417,left,1,4,0.5841834320499402,C02N10,2021_Oct_01_1339,t1_Paradigm,2021.1.4,60.0129567845193,
N,right,Target,0,41,41,41,2245.5454080874842,2247.5476883485017,left,0,4,0.5224120336697524,C02N10,2021_Oct_01_1339,t1_Paradigm,2021.1.4,60.0129567845193,
Z,right,Target,0,42,42,42,2249.04544642333,2251.046456949807,right,1,4,0.44777807683658466,C02N10,2021_Oct_01_1339,t1_Paradigm,2021.1.4,60.0129567845193,
P,right,Target,0,43,43,43,2252.545498232862,2254.547132077735,right,1,4,0.5469809799669747,C02N10,2021_Oct_01_1339,t1_Paradigm,2021.1.4,60.0129567845193,
X,left,Pretarget,0,44,44,44,2256.045376809284,2258.0471736216014,left,1,4,0.40691527328908705,C02N10,2021_Oct_01_1339,t1_Paradigm,2021.1.4,60.0129567845193,
Z,left,Lure,0,45,45,45,2259.545439526086,2261.5473309750105,left,1,4,0.41088936916457897,C02N10,2021_Oct_01_1339,t1_Paradigm,2021.1.4,60.0129567845193,
R,left,Pretarget,0,46,46,46,2263.0454201175608,2265.0472849399157,left,1,4,0.4949087109635002,C02N10,2021_Oct_01_1339,t1_Paradigm,2021.1.4,60.0129567845193,
K,left,Distractor,0,47,47,47,2266.545246403248,2268.5468253909694,left,1,4,0.41938067879800656,C02N10,2021_Oct_01_1339,t1_Paradigm,2021.1.4,60.0129567845193,
X,right,Target,0,48,48,48,2270.045500959679,2272.0472765990617,left,0,4,0.34280169909652614,C02N10,2021_Oct_01_1339,t1_Paradigm,2021.1.4,60.0129567845193,
B,left,Distractor,0,49,49,49,2273.5454324684406,2275.54645261898,left,1,4,0.4117654795809358,C02N10,2021_Oct_01_1339,t1_Paradigm,2021.1.4,60.0129567845193,
R,right,Target,0,50,50,50,2277.0455827642036,2279.0463895813755,left,0,4,0.4798910042936768,C02N10,2021_Oct_01_1339,t1_Paradigm,2021.1.4,60.0129567845193,
Y,left,Pretarget,0,51,51,51,2280.5462094510212,2282.5476800076476,left,1,4,0.40242693171785504,C02N10,2021_Oct_01_1339,t1_Paradigm,2021.1.4,60.0129567845193,
W,left,Pretarget,0,52,52,52,2284.04550577171,2286.0584895933416,left,1,4,0.3956121336323122,C02N10,2021_Oct_01_1339,t1_Paradigm,2021.1.4,60.0129567845193,
Z,left,Distractor,0,53,53,53,2287.545922333181,2289.5476848196786,left,1,4,0.33055893021446536,C02N10,2021_Oct_01_1339,t1_Paradigm,2021.1.4,60.0129567845193,
Q,left,Distractor,0,54,54,54,2291.04608449862,2293.0478405690774,left,1,4,0.33426611877894175,C02N10,2021_Oct_01_1339,t1_Paradigm,2021.1.4,60.0129567845193,
Y,right,Target,0,55,55,55,2294.5454911752167,2296.5466556866813,left,0,4,0.4034448366428478,C02N10,2021_Oct_01_1339,t1_Paradigm,2021.1.4,60.0129567845193,
W,right,Target,0,56,56,56,2298.0454124183116,2300.047154694281,right,1,4,0.5670503566198022,C02N10,2021_Oct_01_1339,t1_Paradigm,2021.1.4,60.0129567845193,
H,left,Pretarget,0,57,57,57,2301.5455723381365,2303.5467310751646,left,1,4,0.3795325721557674,C02N10,2021_Oct_01_1339,t1_Paradigm,2021.1.4,60.0129567845193,
M,left,Distractor,0,58,58,58,2305.0455054509084,2307.047309962476,left,1,4,0.6067852201358619,C02N10,2021_Oct_01_1339,t1_Paradigm,2021.1.4,60.0129567845193,
R,left,Pretarget,0,59,59,59,2308.545444338117,2310.5471965589486,left,1,4,0.41894727521957975,C02N10,2021_Oct_01_1339,t1_Paradigm,2021.1.4,60.0129567845193,
J,left,Distractor,0,60,60,60,2312.0455869346306,2314.0477558773346,left,1,4,0.32657360626672016,C02N10,2021_Oct_01_1339,t1_Paradigm,2021.1.4,60.0129567845193,
H,right,Target,0,61,61,61,2315.545359646373,2317.5455877366358,left,0,4,0.5084834499821227,C02N10,2021_Oct_01_1339,t1_Paradigm,2021.1.4,60.0129567845193,
Z,left,Distractor,0,62,62,62,2319.045535606301,2321.0469593258276,left,1,4,0.4792570994295602,C02N10,2021_Oct_01_1339,t1_Paradigm,2021.1.4,60.0129567845193,
R,right,Target,0,63,63,63,2322.5456069847587,2324.546299596399,left,0,4,0.40376371388720145,C02N10,2021_Oct_01_1339,t1_Paradigm,2021.1.4,60.0129567845193,
J,left,Pretarget,0,0,0,0,2352.3776494640842,2354.3640821035115,left,1,4,0.34623813072539633,C02N10,2021_Oct_01_1339,t1_Paradigm,2021.1.4,60.0129567845193,
G,left,Pretarget,0,1,1,1,2355.8619319277286,2357.8622533713888,left,1,4,0.23978510111828655,C02N10,2021_Oct_01_1339,t1_Paradigm,2021.1.4,60.0129567845193,
Z,left,Distractor,0,2,2,2,2359.362574333846,2361.3640105646537,left,1,4,1.3301688349147298,C02N10,2021_Oct_01_1339,t1_Paradigm,2021.1.4,60.0129567845193,
F,left,Distractor,0,3,3,3,2362.861887336243,2364.8640354268127,left,1,4,0.3423468017799678,C02N10,2021_Oct_01_1339,t1_Paradigm,2021.1.4,60.0129567845193,
J,right,Target,0,4,4,4,2366.36220669469,2368.3642194067925,right,1,4,0.4419645019688687,C02N10,2021_Oct_01_1339,t1_Paradigm,2021.1.4,60.0129567845193,
G,right,Target,0,5,5,5,2369.8621192761293,2371.8635462036764,left,0,4,0.5745805432907218,C02N10,2021_Oct_01_1339,t1_Paradigm,2021.1.4,60.0129567845193,
H,left,Distractor,0,6,6,6,2373.3621399678623,2375.363261812654,left,1,4,0.5151586991732984,C02N10,2021_Oct_01_1339,t1_Paradigm,2021.1.4,60.0129567845193,
P,left,Distractor,0,7,7,7,2376.8621574515737,2378.863278333959,left,1,4,0.48683604801408364,C02N10,2021_Oct_01_1339,t1_Paradigm,2021.1.4,60.0129567845193,
G,left,Lure,0,8,8,8,2380.362898985528,2382.3642691311106,right,0,4,0.6499209062531008,C02N10,2021_Oct_01_1339,t1_Paradigm,2021.1.4,60.0129567845193,
S,left,Distractor,0,9,9,9,2383.8621664340317,2385.863934374165,left,1,4,0.41461997627993696,C02N10,2021_Oct_01_1339,t1_Paradigm,2021.1.4,60.0129567845193,
R,left,Pretarget,0,10,10,10,2387.362132268613,2389.363967256376,left,1,4,0.43424953331305005,C02N10,2021_Oct_01_1339,t1_Paradigm,2021.1.4,60.0129567845193,
T,left,Pretarget,0,11,11,11,2390.8621455818984,2392.8631153665146,left,1,4,0.5190529153369425,C02N10,2021_Oct_01_1339,t1_Paradigm,2021.1.4,60.0129567845193,
X,left,Distractor,0,12,12,12,2394.362096980386,2396.3643387451575,left,1,4,0.44206202579425735,C02N10,2021_Oct_01_1339,t1_Paradigm,2021.1.4,60.0129567845193,
F,left,Pretarget,0,13,13,13,2397.8627146847466,2399.86388529145,left,1,4,0.462437768410382,C02N10,2021_Oct_01_1339,t1_Paradigm,2021.1.4,60.0129567845193,
R,right,Target,0,14,14,14,2401.3619105943917,2403.362257702217,left,0,4,0.41982081921923964,C02N10,2021_Oct_01_1339,t1_Paradigm,2021.1.4,60.0129567845193,
T,right,Target,0,15,15,15,2404.861974915204,2406.863398313929,left,0,4,0.34304647106546327,C02N10,2021_Oct_01_1339,t1_Paradigm,2021.1.4,60.0129567845193,
C,left,Distractor,0,16,16,16,2408.3621572911734,2410.3640144142782,left,1,4,0.5223350411770298,C02N10,2021_Oct_01_1339,t1_Paradigm,2021.1.4,60.0129567845193,
F,right,Target,0,17,17,17,2411.862083346299,2413.8644207100824,left,0,4,0.20568063449536567,C02N10,2021_Oct_01_1339,t1_Paradigm,2021.1.4,60.0129567845193,
M,left,Distractor,0,18,18,18,2415.3619372209623,2417.3625387248185,left,1,4,0.30772744785554096,C02N10,2021_Oct_01_1339,t1_Paradigm,2021.1.4,60.0129567845193,
N,left,Distractor,0,19,19,19,2418.862132108212,2420.8638560984627,left,1,4,0.3262832804057325,C02N10,2021_Oct_01_1339,t1_Paradigm,2021.1.4,60.0129567845193,
R,left,Lure,0,20,20,20,2422.362157611975,2424.3622358876773,left,1,4,0.380010246418351,C02N10,2021_Oct_01_1339,t1_Paradigm,2021.1.4,60.0129567845193,
F,right,Target,0,21,21,21,2425.861925190885,2427.8635766798716,right,1,4,0.4627252070540635,C02N10,2021_Oct_01_1339,t1_Paradigm,2021.1.4,60.0129567845193,
P,left,Distractor,0,22,22,22,2429.3629772612294,2431.364161020818,left,1,4,0.40201855069972225,C02N10,2021_Oct_01_1339,t1_Paradigm,2021.1.4,60.0129567845193,
L,left,Pretarget,0,23,23,23,2432.8620179026793,2434.8629960281496,left,1,4,0.4551392008243056,C02N10,2021_Oct_01_1339,t1_Paradigm,2021.1.4,60.0129567845193,
T,left,Distractor,0,24,24,24,2436.3621807097234,2438.3640012613932,left,1,4,0.298183265874286,C02N10,2021_Oct_01_1339,t1_Paradigm,2021.1.4,60.0129567845193,
F,left,Distractor,0,25,25,25,2439.8629305845297,2441.864355587265,left,1,4,0.38180866274615255,C02N10,2021_Oct_01_1339,t1_Paradigm,2021.1.4,60.0129567845193,
V,left,Distractor,0,26,26,26,2443.362458203502,2445.36399131653,left,1,4,0.48233198714115133,C02N10,2021_Oct_01_1339,t1_Paradigm,2021.1.4,60.0129567845193,
L,right,Target,0,27,27,27,2446.8630537725203,2448.863833642319,right,1,4,0.7903234550894922,C02N10,2021_Oct_01_1339,t1_Paradigm,2021.1.4,60.0129567845193,
S,left,Pretarget,0,28,28,28,2450.362102434022,2452.3636778929204,left,1,4,0.3626153965096819,C02N10,2021_Oct_01_1339,t1_Paradigm,2021.1.4,60.0129567845193,
W,left,Distractor,0,29,29,29,2453.862121200942,2455.863822414247,left,1,4,0.5743011246995593,C02N10,2021_Oct_01_1339,t1_Paradigm,2021.1.4,60.0129567845193,
Q,left,Distractor,0,30,30,30,2457.362185842556,2459.3630815218976,left,1,4,0.37105473620977136,C02N10,2021_Oct_01_1339,t1_Paradigm,2021.1.4,60.0129567845193,
L,right,Target,0,31,31,31,2460.862201080654,2462.863504499409,left,0,4,0.37463520796154626,C02N10,2021_Oct_01_1339,t1_Paradigm,2021.1.4,60.0129567845193,
S,right,Target,0,32,32,32,2464.362967316366,2466.3638578628743,left,0,4,0.3145929326665282,C02N10,2021_Oct_01_1339,t1_Paradigm,2021.1.4,60.0129567845193,
Z,left,Pretarget,0,33,33,33,2467.8619723487873,2469.8622739027205,left,1,4,0.3678091818037501,C02N10,2021_Oct_01_1339,t1_Paradigm,2021.1.4,60.0129567845193,
F,left,Distractor,0,34,34,34,2471.3619304841195,2473.3621723688693,left,1,4,0.35591255834242475,C02N10,2021_Oct_01_1339,t1_Paradigm,2021.1.4,60.0129567845193,
V,left,Distractor,0,35,35,35,2474.861930002916,2476.8638621937025,left,1,4,0.3902739874120016,C02N10,2021_Oct_01_1339,t1_Paradigm,2021.1.4,60.0129567845193,
M,left,Distractor,0,36,36,36,2478.3620896019393,2480.3787084316727,left,1,4,0.4754174196159511,C02N10,2021_Oct_01_1339,t1_Paradigm,2021.1.4,60.0129567845193,
Z,right,Target,0,37,37,37,2481.8621353162325,2483.862850704818,left,0,4,0.38326702889480657,C02N10,2021_Oct_01_1339,t1_Paradigm,2021.1.4,60.0129567845193,
H,left,Pretarget,0,38,38,38,2485.3621357974353,2487.362937802576,left,1,4,0.3871586786417538,C02N10,2021_Oct_01_1339,t1_Paradigm,2021.1.4,60.0129567845193,
L,left,Distractor,0,39,39,39,2488.862078534268,2490.8627172511624,left,1,4,0.5194689956042566,C02N10,2021_Oct_01_1339,t1_Paradigm,2021.1.4,60.0129567845193,
G,left,Distractor,0,40,40,40,2492.3622663638725,2494.362763286258,left,1,4,0.587340765890076,C02N10,2021_Oct_01_1339,t1_Paradigm,2021.1.4,60.0129567845193,
K,left,Distractor,0,41,41,41,2495.8621423738778,2497.864412690031,left,1,4,0.4618824600511289,C02N10,2021_Oct_01_1339,t1_Paradigm,2021.1.4,60.0129567845193,
H,right,Target,0,42,42,42,2499.36218648416,2501.3631023740318,left,0,4,0.5153604836668819,C02N10,2021_Oct_01_1339,t1_Paradigm,2021.1.4,60.0129567845193,
B,left,Distractor,0,43,43,43,2502.862227386422,2504.863343135975,left,1,4,0.48677573722761736,C02N10,2021_Oct_01_1339,t1_Paradigm,2021.1.4,60.0129567845193,
Z,left,Distractor,0,44,44,44,2506.3621608199956,2508.3639662939695,left,1,4,0.44228530402597244,C02N10,2021_Oct_01_1339,t1_Paradigm,2021.1.4,60.0129567845193,
T,left,Pretarget,0,45,45,45,2509.8620981031936,2511.8632946948646,left,1,4,0.7349097118649297,C02N10,2021_Oct_01_1339,t1_Paradigm,2021.1.4,60.0129567845193,
H,right,Target,0,46,46,46,2513.3621669152344,2515.3638816022267,right,1,4,0.946460382389887,C02N10,2021_Oct_01_1339,t1_Paradigm,2021.1.4,60.0129567845193,
F,left,Distractor,0,47,47,47,2516.8620897623405,2518.863925391707,left,1,4,0.39020822299062274,C02N10,2021_Oct_01_1339,t1_Paradigm,2021.1.4,60.0129567845193,
R,left,Distractor,0,48,48,48,2520.3621595367877,2522.3641821937535,left,1,4,0.39407645418759785,C02N10,2021_Oct_01_1339,t1_Paradigm,2021.1.4,60.0129567845193,
T,right,Target,0,49,49,49,2523.862231556849,2525.863226043224,left,0,4,0.5749013453478256,C02N10,2021_Oct_01_1339,t1_Paradigm,2021.1.4,60.0129567845193,
H,right,Target,0,50,50,50,2527.3621470255075,2529.3639351761703,left,0,4,0.48230311495535716,C02N10,2021_Oct_01_1339,t1_Paradigm,2021.1.4,60.0129567845193,
Y,left,Pretarget,0,51,51,51,2530.862903316355,2532.8643109957793,left,1,4,0.4858072358183563,C02N10,2021_Oct_01_1339,t1_Paradigm,2021.1.4,60.0129567845193,
H,left,Distractor,0,52,52,52,2534.3621338726225,2536.363313461785,right,0,4,0.5708274800317668,C02N10,2021_Oct_01_1339,t1_Paradigm,2021.1.4,60.0129567845193,
S,left,Distractor,0,53,53,53,2537.8621622636047,2539.863950093466,None,0,4,,C02N10,2021_Oct_01_1339,t1_Paradigm,2021.1.4,60.0129567845193,
Q,left,Distractor,0,54,54,54,2541.362090885147,2543.3632740031317,left,1,4,0.450938939498883,C02N10,2021_Oct_01_1339,t1_Paradigm,2021.1.4,60.0129567845193,
Y,right,Target,0,55,55,55,2544.8621497523245,2546.8636870357795,left,0,4,0.4064789824933541,C02N10,2021_Oct_01_1339,t1_Paradigm,2021.1.4,60.0129567845193,
R,left,Distractor,0,56,56,56,2548.362943256211,2550.375065724321,left,1,4,0.5274264906147437,C02N10,2021_Oct_01_1339,t1_Paradigm,2021.1.4,60.0129567845193,
H,left,Pretarget,0,57,57,57,2551.8618581432556,2553.863972870412,left,1,4,0.5101676607782792,C02N10,2021_Oct_01_1339,t1_Paradigm,2021.1.4,60.0129567845193,
J,left,Distractor,0,58,58,58,2555.362168840047,2557.3631296422063,left,1,4,0.5791269500350609,C02N10,2021_Oct_01_1339,t1_Paradigm,2021.1.4,60.0129567845193,
V,left,Distractor,0,59,59,59,2558.8620993864015,2560.8636793365304,left,1,4,0.5025377046677022,C02N10,2021_Oct_01_1339,t1_Paradigm,2021.1.4,60.0129567845193,
Y,left,Lure,0,60,60,60,2562.3621290605925,2564.364372108571,left,1,4,0.4097213288778221,C02N10,2021_Oct_01_1339,t1_Paradigm,2021.1.4,60.0129567845193,
H,right,Target,0,61,61,61,2565.862002504181,2567.862644429096,right,1,4,0.4316398085838955,C02N10,2021_Oct_01_1339,t1_Paradigm,2021.1.4,60.0129567845193,
L,left,Distractor,0,62,62,62,2569.3620575217337,2571.362474885209,left,1,4,0.3237505481711196,C02N10,2021_Oct_01_1339,t1_Paradigm,2021.1.4,60.0129567845193,
P,left,Distractor,0,63,63,63,2572.861960479111,2574.8626668852394,left,1,4,0.42346416817417776,C02N10,2021_Oct_01_1339,t1_Paradigm,2021.1.4,60.0129567845193,
