Letter,CorrAnswer,Stimulus,nback_run.thisRepN,nback_run.thisTrialN,nback_run.thisN,nback_run.thisIndex,fixcross.started,nback_trial.started,trial_resp.keys,trial_resp.corr,currentlevel,trial_resp.rt,Participant,date,expName,psychopyVersion,frameRate,
H,left,Distractor,0,0,0,0,295.2234692859929,297.21723803080386,None,0,1,,D17T06,2021_Oct_18_1005,t1_Paradigm,2021.1.4,59.95943319077199,
Q,left,Pretarget,0,1,1,1,298.71290576225147,300.71336643368704,left,1,1,0.8132949268911034,D17T06,2021_Oct_18_1005,t1_Paradigm,2021.1.4,59.95943319077199,
Q,right,Target,0,2,2,2,302.2128956569941,304.2128180229338,right,1,1,0.6416373854735866,D17T06,2021_Oct_18_1005,t1_Paradigm,2021.1.4,59.95943319077199,
T,left,Distractor,0,3,3,3,305.71290415822295,307.71297890506685,left,1,1,0.5177286330726929,D17T06,2021_Oct_18_1005,t1_Paradigm,2021.1.4,59.95943319077199,
Q,left,Lure,0,4,4,4,309.2136245187721,311.2151573100127,left,1,1,0.6635119012789801,D17T06,2021_Oct_18_1005,t1_Paradigm,2021.1.4,59.95943319077199,
L,left,Distractor,0,5,5,5,312.71304948144825,314.7158690089127,left,1,1,0.6025746273226105,D17T06,2021_Oct_18_1005,t1_Paradigm,2021.1.4,59.95943319077199,
V,left,Pretarget,0,6,6,6,316.2128212309326,318.21488591167144,left,1,1,0.6075964595074765,D17T06,2021_Oct_18_1005,t1_Paradigm,2021.1.4,59.95943319077199,
V,right,Target,0,7,7,7,319.71280438883696,321.713313180604,right,1,1,0.421280519105494,D17T06,2021_Oct_18_1005,t1_Paradigm,2021.1.4,59.95943319077199,
K,left,Distractor,0,8,8,8,323.21371562650893,325.215613169421,left,1,1,0.502816479827743,D17T06,2021_Oct_18_1005,t1_Paradigm,2021.1.4,59.95943319077199,
G,left,Pretarget,0,9,9,9,326.7129272559541,328.7147385032149,left,1,1,0.6517846688511781,D17T06,2021_Oct_18_1005,t1_Paradigm,2021.1.4,59.95943319077199,
G,right,Target,0,10,10,10,330.21371466410346,332.2132498222054,right,1,1,0.529828958096914,D17T06,2021_Oct_18_1005,t1_Paradigm,2021.1.4,59.95943319077199,
G,right,Target,0,11,11,11,333.71362179197604,335.71314957161667,right,1,1,0.4534322429681197,D17T06,2021_Oct_18_1005,t1_Paradigm,2021.1.4,59.95943319077199,
P,left,Pretarget,0,12,12,12,337.21358249371406,339.21530616207747,left,1,1,0.5032206901814789,D17T06,2021_Oct_18_1005,t1_Paradigm,2021.1.4,59.95943319077199,
P,right,Target,0,13,13,13,340.7137356766034,342.7131922382978,right,1,1,0.5092912235995755,D17T06,2021_Oct_18_1005,t1_Paradigm,2021.1.4,59.95943319077199,
G,left,Lure,0,14,14,14,344.21377754124114,346.2153385630809,left,1,1,0.5112230923841707,D17T06,2021_Oct_18_1005,t1_Paradigm,2021.1.4,59.95943319077199,
Y,left,Distractor,0,15,15,15,347.7129298223881,349.7131928798626,left,1,1,0.6134530180715956,D17T06,2021_Oct_18_1005,t1_Paradigm,2021.1.4,59.95943319077199,
B,left,Distractor,0,16,16,16,351.21350293490104,353.21558365569217,left,1,1,0.5510070130694658,D17T06,2021_Oct_18_1005,t1_Paradigm,2021.1.4,59.95943319077199,
T,left,Pretarget,0,17,17,17,354.72994900215417,356.7146887789131,left,1,1,0.5559444743557833,D17T06,2021_Oct_18_1005,t1_Paradigm,2021.1.4,59.95943319077199,
T,right,Target,0,18,18,18,358.2129633461591,360.2130692107603,right,1,1,0.5135508305975236,D17T06,2021_Oct_18_1005,t1_Paradigm,2021.1.4,59.95943319077199,
S,left,Distractor,0,19,19,19,361.71286309557036,363.7135140025639,left,1,1,0.5333314727176912,D17T06,2021_Oct_18_1005,t1_Paradigm,2021.1.4,59.95943319077199,
T,left,Lure,0,20,20,20,365.2135930801742,367.2151832949603,left,1,1,0.48721781064523384,D17T06,2021_Oct_18_1005,t1_Paradigm,2021.1.4,59.95943319077199,
J,left,Distractor,0,21,21,21,368.7127591557801,370.7151760769193,left,1,1,0.5232746554538608,D17T06,2021_Oct_18_1005,t1_Paradigm,2021.1.4,59.95943319077199,
P,left,Distractor,0,22,22,22,372.21361778193386,374.2151249090093,left,1,1,0.4794832780607976,D17T06,2021_Oct_18_1005,t1_Paradigm,2021.1.4,59.95943319077199,
F,left,Distractor,0,23,23,23,375.71356468921294,377.71589884348214,left,1,1,0.5627740249037743,D17T06,2021_Oct_18_1005,t1_Paradigm,2021.1.4,59.95943319077199,
L,left,Distractor,0,24,24,24,379.21358698495897,381.2146549343015,left,1,1,0.5198472085176036,D17T06,2021_Oct_18_1005,t1_Paradigm,2021.1.4,59.95943319077199,
W,left,Pretarget,0,25,25,25,382.71290576225147,384.71511384134647,left,1,1,0.4755383777082898,D17T06,2021_Oct_18_1005,t1_Paradigm,2021.1.4,59.95943319077199,
W,right,Target,0,26,26,26,386.2127769602812,388.21336370689096,right,1,1,0.6252007818548009,D17T06,2021_Oct_18_1005,t1_Paradigm,2021.1.4,59.95943319077199,
V,left,Distractor,0,27,27,27,389.71342802763684,391.7151013300754,left,1,1,0.4833255218109116,D17T06,2021_Oct_18_1005,t1_Paradigm,2021.1.4,59.95943319077199,
W,left,Lure,0,28,28,28,393.21299959678436,395.214852869045,left,1,1,0.5676707443781197,D17T06,2021_Oct_18_1005,t1_Paradigm,2021.1.4,59.95943319077199,
R,left,Pretarget,0,29,29,29,396.71293078479357,398.7155706632184,left,1,1,0.49093750811880454,D17T06,2021_Oct_18_1005,t1_Paradigm,2021.1.4,59.95943319077199,
R,right,Target,0,30,30,30,400.21277022344293,402.21269387262873,right,1,1,0.5938061503111385,D17T06,2021_Oct_18_1005,t1_Paradigm,2021.1.4,59.95943319077199,
G,left,Distractor,0,31,31,31,403.7136551553267,405.71519596665166,left,1,1,0.45130757230799645,D17T06,2021_Oct_18_1005,t1_Paradigm,2021.1.4,59.95943319077199,
R,left,Lure,0,32,32,32,407.21299061429454,409.2148105232045,left,1,1,0.4876358154579066,D17T06,2021_Oct_18_1005,t1_Paradigm,2021.1.4,59.95943319077199,
S,left,Distractor,0,33,33,33,410.7129984739586,412.714637450641,left,1,1,0.5558055671281181,D17T06,2021_Oct_18_1005,t1_Paradigm,2021.1.4,59.95943319077199,
R,left,Lure,0,34,34,34,414.21288218331756,416.21264863957185,left,1,1,0.5301747824414633,D17T06,2021_Oct_18_1005,t1_Paradigm,2021.1.4,59.95943319077199,
P,left,Pretarget,0,35,35,35,417.7127642885898,419.71480105957016,left,1,1,0.5480893201893196,D17T06,2021_Oct_18_1005,t1_Paradigm,2021.1.4,59.95943319077199,
P,right,Target,0,36,36,36,421.2130031255656,423.21303777222056,right,1,1,0.6975871530012228,D17T06,2021_Oct_18_1005,t1_Paradigm,2021.1.4,59.95943319077199,
Y,left,Pretarget,0,37,37,37,424.713665100222,426.71515297918813,left,1,1,0.5233545351075009,D17T06,2021_Oct_18_1005,t1_Paradigm,2021.1.4,59.95943319077199,
Y,right,Target,0,38,38,38,428.21373038337333,430.2131423535757,right,1,1,0.57734388258541,D17T06,2021_Oct_18_1005,t1_Paradigm,2021.1.4,59.95943319077199,
J,left,Distractor,0,39,39,39,431.71363366162404,433.71516677364707,left,1,1,0.49930594518082216,D17T06,2021_Oct_18_1005,t1_Paradigm,2021.1.4,59.95943319077199,
Y,left,Lure,0,40,40,40,435.21314941125456,437.21474379644496,left,1,1,0.743746048072353,D17T06,2021_Oct_18_1005,t1_Paradigm,2021.1.4,59.95943319077199,
T,left,Distractor,0,41,41,41,438.71281433367403,440.7149848790141,left,1,1,0.5394247830263339,D17T06,2021_Oct_18_1005,t1_Paradigm,2021.1.4,59.95943319077199,
V,left,Distractor,0,42,42,42,442.2129899727297,444.2126364490832,left,1,1,0.5457833965192549,D17T06,2021_Oct_18_1005,t1_Paradigm,2021.1.4,59.95943319077199,
N,left,Pretarget,0,43,43,43,445.7136622130056,447.71635117410915,left,1,1,0.6901217731647193,D17T06,2021_Oct_18_1005,t1_Paradigm,2021.1.4,59.95943319077199,
N,right,Target,0,44,44,44,449.2135565087665,451.21307273959974,None,0,1,,D17T06,2021_Oct_18_1005,t1_Paradigm,2021.1.4,59.95943319077199,
N,right,Target,0,45,45,45,452.71348865918117,454.7132278473,right,1,1,0.5572199824382551,D17T06,2021_Oct_18_1005,t1_Paradigm,2021.1.4,59.95943319077199,
X,left,Distractor,0,46,46,46,456.2134894612245,458.21671704860637,left,1,1,0.5896893002209254,D17T06,2021_Oct_18_1005,t1_Paradigm,2021.1.4,59.95943319077199,
Z,left,Distractor,0,47,47,47,459.7129044790054,461.71492745546857,left,1,1,0.6116443372447975,D17T06,2021_Oct_18_1005,t1_Paradigm,2021.1.4,59.95943319077199,
H,left,Pretarget,0,48,48,48,463.21272787760245,465.2149850394344,left,1,1,0.5033483693259768,D17T06,2021_Oct_18_1005,t1_Paradigm,2021.1.4,59.95943319077199,
H,right,Target,0,49,49,49,466.7127312460216,468.71289260935737,right,1,1,0.5415055038756691,D17T06,2021_Oct_18_1005,t1_Paradigm,2021.1.4,59.95943319077199,
K,left,Distractor,0,50,50,50,470.2128770504496,472.2152172999922,left,1,1,0.5275820618844591,D17T06,2021_Oct_18_1005,t1_Paradigm,2021.1.4,59.95943319077199,
V,left,Pretarget,0,51,51,51,473.7128226745408,475.71237547678174,left,1,1,0.534385948383715,D17T06,2021_Oct_18_1005,t1_Paradigm,2021.1.4,59.95943319077199,
V,right,Target,0,52,52,52,477.2129312659963,479.2128488199087,right,1,1,0.5695050893700682,D17T06,2021_Oct_18_1005,t1_Paradigm,2021.1.4,59.95943319077199,
R,left,Distractor,0,53,53,53,480.71282652416267,482.7125875267666,left,1,1,0.509916466427967,D17T06,2021_Oct_18_1005,t1_Paradigm,2021.1.4,59.95943319077199,
V,left,Lure,0,54,54,54,484.21283630863763,486.2126155969454,left,1,1,0.6898478083894588,D17T06,2021_Oct_18_1005,t1_Paradigm,2021.1.4,59.95943319077199,
Y,left,Distractor,0,55,55,55,487.71352940105135,489.71501792164054,left,1,1,0.5154685840243474,D17T06,2021_Oct_18_1005,t1_Paradigm,2021.1.4,59.95943319077199,
Q,left,Distractor,0,56,56,56,491.2128019828233,493.21406979172025,left,1,1,0.6163116833777167,D17T06,2021_Oct_18_1005,t1_Paradigm,2021.1.4,59.95943319077199,
Z,left,Pretarget,0,57,57,57,494.71291442390066,496.71460440801457,left,1,1,0.5237571414327249,D17T06,2021_Oct_18_1005,t1_Paradigm,2021.1.4,59.95943319077199,
Z,right,Target,0,58,58,58,498.2129662333755,500.21285619837,right,1,1,0.4976701765554026,D17T06,2021_Oct_18_1005,t1_Paradigm,2021.1.4,59.95943319077199,
B,left,Distractor,0,59,59,59,501.7128300530021,503.7138691301807,left,1,1,0.4686039248481393,D17T06,2021_Oct_18_1005,t1_Paradigm,2021.1.4,59.95943319077199,
S,left,Pretarget,0,60,60,60,505.2135231454158,507.2150434253854,left,1,1,0.5513887672568671,D17T06,2021_Oct_18_1005,t1_Paradigm,2021.1.4,59.95943319077199,
S,right,Target,0,61,61,61,508.7128329402185,510.7127976519987,right,1,1,0.5735946713248268,D17T06,2021_Oct_18_1005,t1_Paradigm,2021.1.4,59.95943319077199,
T,left,Distractor,0,62,62,62,512.2128898825613,514.2144807389122,left,1,1,0.543790896248538,D17T06,2021_Oct_18_1005,t1_Paradigm,2021.1.4,59.95943319077199,
D,left,Distractor,0,63,63,63,515.7135255514295,517.7160233146278,left,1,1,0.530660797317978,D17T06,2021_Oct_18_1005,t1_Paradigm,2021.1.4,59.95943319077199,
R,left,Distractor,0,0,0,0,533.1634588085581,535.164719880675,left,1,1,0.6497228753287345,D17T06,2021_Oct_18_1005,t1_Paradigm,2021.1.4,59.95943319077199,
V,left,Distractor,0,1,1,1,536.6631891746074,538.6638676705188,left,1,1,0.4626633162260987,D17T06,2021_Oct_18_1005,t1_Paradigm,2021.1.4,59.95943319077199,
N,left,Pretarget,0,2,2,2,540.1627414956456,542.163788913691,left,1,1,0.4827063742559403,D17T06,2021_Oct_18_1005,t1_Paradigm,2021.1.4,59.95943319077199,
N,right,Target,0,3,3,3,543.6628943577525,545.6630239616497,right,1,1,0.4874298606882803,D17T06,2021_Oct_18_1005,t1_Paradigm,2021.1.4,59.95943319077199,
S,left,Distractor,0,4,4,4,547.1635502371355,549.165025925613,left,1,1,0.5213591475621797,D17T06,2021_Oct_18_1005,t1_Paradigm,2021.1.4,59.95943319077199,
N,left,Lure,0,5,5,5,550.6628555406933,552.6624975258601,left,1,1,0.5281412195763551,D17T06,2021_Oct_18_1005,t1_Paradigm,2021.1.4,59.95943319077199,
Z,left,Distractor,0,6,6,6,554.1633545479854,556.164955028391,left,1,1,0.6093050501658581,D17T06,2021_Oct_18_1005,t1_Paradigm,2021.1.4,59.95943319077199,
L,left,Pretarget,0,7,7,7,557.662639961869,559.6625610446208,left,1,1,0.4718655173201114,D17T06,2021_Oct_18_1005,t1_Paradigm,2021.1.4,59.95943319077199,
L,right,Target,0,8,8,8,561.163475811074,563.1630202724482,right,1,1,0.7475690437713638,D17T06,2021_Oct_18_1005,t1_Paradigm,2021.1.4,59.95943319077199,
H,left,Distractor,0,9,9,9,564.663526337361,566.6651056449045,left,1,1,0.445389419735875,D17T06,2021_Oct_18_1005,t1_Paradigm,2021.1.4,59.95943319077199,
L,left,Lure,0,10,10,10,568.1628428690019,570.1645899558789,left,1,1,0.5138905597268604,D17T06,2021_Oct_18_1005,t1_Paradigm,2021.1.4,59.95943319077199,
X,left,Pretarget,0,11,11,11,571.6634262471925,573.6649936850299,left,1,1,0.48549542552791536,D17T06,2021_Oct_18_1005,t1_Paradigm,2021.1.4,59.95943319077199,
X,right,Target,0,12,12,12,575.1628746283823,577.1628650043276,right,1,1,0.47545946040190756,D17T06,2021_Oct_18_1005,t1_Paradigm,2021.1.4,59.95943319077199,
X,right,Target,0,13,13,13,578.6628109492594,580.6628581071272,right,1,1,0.4954005034524016,D17T06,2021_Oct_18_1005,t1_Paradigm,2021.1.4,59.95943319077199,
R,left,Distractor,0,14,14,14,582.1628820068436,584.16478756984,left,1,1,0.4496358738397248,D17T06,2021_Oct_18_1005,t1_Paradigm,2021.1.4,59.95943319077199,
T,left,Distractor,0,15,15,15,585.6627384480089,587.6636119914474,left,1,1,0.5027616227162071,D17T06,2021_Oct_18_1005,t1_Paradigm,2021.1.4,59.95943319077199,
V,left,Pretarget,0,16,16,16,589.1635560115683,591.1645338155795,left,1,1,0.5218271975172684,D17T06,2021_Oct_18_1005,t1_Paradigm,2021.1.4,59.95943319077199,
V,right,Target,0,17,17,17,592.6629411947797,594.6627727738232,right,1,1,0.49548327032243833,D17T06,2021_Oct_18_1005,t1_Paradigm,2021.1.4,59.95943319077199,
N,left,Distractor,0,18,18,18,596.1629079917911,598.1648969632806,left,1,1,0.5296287777018733,D17T06,2021_Oct_18_1005,t1_Paradigm,2021.1.4,59.95943319077199,
B,left,Distractor,0,19,19,19,599.6627628289862,601.6621568342671,left,1,1,0.5363062682445161,D17T06,2021_Oct_18_1005,t1_Paradigm,2021.1.4,59.95943319077199,
V,left,Lure,0,20,20,20,603.1633680216619,605.1624742677086,left,1,1,0.5079348733415827,D17T06,2021_Oct_18_1005,t1_Paradigm,2021.1.4,59.95943319077199,
P,left,Distractor,0,21,21,21,606.6634031494614,608.6649952890584,left,1,1,0.5255982232629322,D17T06,2021_Oct_18_1005,t1_Paradigm,2021.1.4,59.95943319077199,
K,left,Pretarget,0,22,22,22,610.1626025884179,612.1647051237524,left,1,1,0.4816480489098467,D17T06,2021_Oct_18_1005,t1_Paradigm,2021.1.4,59.95943319077199,
K,right,Target,0,23,23,23,613.6626867989544,615.6627840019064,right,1,1,0.5516021004877985,D17T06,2021_Oct_18_1005,t1_Paradigm,2021.1.4,59.95943319077199,
J,left,Pretarget,0,24,24,24,617.1627254555351,619.1637956505292,left,1,1,0.5865935623296537,D17T06,2021_Oct_18_1005,t1_Paradigm,2021.1.4,59.95943319077199,
J,right,Target,0,25,25,25,620.6627403728198,622.6630136960302,right,1,1,0.5113016887917183,D17T06,2021_Oct_18_1005,t1_Paradigm,2021.1.4,59.95943319077199,
H,left,Distractor,0,26,26,26,624.1633827785263,626.1652559405193,left,1,1,0.5131373169715516,D17T06,2021_Oct_18_1005,t1_Paradigm,2021.1.4,59.95943319077199,
J,left,Lure,0,27,27,27,627.6633482923498,629.6649583968101,left,1,1,0.549439896014519,D17T06,2021_Oct_18_1005,t1_Paradigm,2021.1.4,59.95943319077199,
V,left,Distractor,0,28,28,28,631.1628034103778,633.1624049745151,left,1,1,0.5079794648336247,D17T06,2021_Oct_18_1005,t1_Paradigm,2021.1.4,59.95943319077199,
Z,left,Pretarget,0,29,29,29,634.6636113498826,636.6650138955447,left,1,1,0.49329668493010104,D17T06,2021_Oct_18_1005,t1_Paradigm,2021.1.4,59.95943319077199,
Z,right,Target,0,30,30,30,638.1628601923003,640.1627912199474,right,1,1,0.4516132964636199,D17T06,2021_Oct_18_1005,t1_Paradigm,2021.1.4,59.95943319077199,
T,left,Distractor,0,31,31,31,641.6629123226157,643.6643293044181,left,1,1,0.5983724438701756,D17T06,2021_Oct_18_1005,t1_Paradigm,2021.1.4,59.95943319077199,
Z,left,Lure,0,32,32,32,645.1627928239177,647.1636702169781,left,1,1,0.4906327463686466,D17T06,2021_Oct_18_1005,t1_Paradigm,2021.1.4,59.95943319077199,
F,left,Distractor,0,33,33,33,648.6626771748997,650.6635378862265,left,1,1,0.5270100722555071,D17T06,2021_Oct_18_1005,t1_Paradigm,2021.1.4,59.95943319077199,
Y,left,Pretarget,0,34,34,34,652.1628967637662,654.1641052243067,left,1,1,0.5143345494871028,D17T06,2021_Oct_18_1005,t1_Paradigm,2021.1.4,59.95943319077199,
Y,right,Target,0,35,35,35,655.6635808736901,657.6629793702159,right,1,1,0.48745777044678107,D17T06,2021_Oct_18_1005,t1_Paradigm,2021.1.4,59.95943319077199,
Y,right,Target,0,36,36,36,659.1634078010684,661.1629638113081,right,1,1,0.5714632638846524,D17T06,2021_Oct_18_1005,t1_Paradigm,2021.1.4,59.95943319077199,
W,left,Distractor,0,37,37,37,662.6633024176699,664.6649786073249,left,1,1,0.5093181709526107,D17T06,2021_Oct_18_1005,t1_Paradigm,2021.1.4,59.95943319077199,
Q,left,Distractor,0,38,38,38,666.1633375454694,668.1648536550347,left,1,1,0.48137376335216686,D17T06,2021_Oct_18_1005,t1_Paradigm,2021.1.4,59.95943319077199,
P,left,Pretarget,0,39,39,39,669.6625238315901,671.6624936762382,left,1,1,0.551870932453312,D17T06,2021_Oct_18_1005,t1_Paradigm,2021.1.4,59.95943319077199,
P,right,Target,0,40,40,40,673.163435069262,675.1630000619334,right,1,1,0.539343299344182,D17T06,2021_Oct_18_1005,t1_Paradigm,2021.1.4,59.95943319077199,
J,left,Distractor,0,41,41,41,676.6632228587987,678.6650655446574,left,1,1,0.49366304063005373,D17T06,2021_Oct_18_1005,t1_Paradigm,2021.1.4,59.95943319077199,
P,left,Lure,0,42,42,42,680.1625146887382,682.1623157915892,left,1,1,0.8041273724520579,D17T06,2021_Oct_18_1005,t1_Paradigm,2021.1.4,59.95943319077199,
L,left,Distractor,0,43,43,43,683.6627965131775,685.6641596002155,left,1,1,0.5181867380742915,D17T06,2021_Oct_18_1005,t1_Paradigm,2021.1.4,59.95943319077199,
Z,left,Distractor,0,44,44,44,687.1625826987438,689.1650631386437,left,1,1,0.45730752928648144,D17T06,2021_Oct_18_1005,t1_Paradigm,2021.1.4,59.95943319077199,
F,left,Pretarget,0,45,45,45,690.6626989893848,692.6638962219004,left,1,1,0.49441467941505834,D17T06,2021_Oct_18_1005,t1_Paradigm,2021.1.4,59.95943319077199,
F,right,Target,0,46,46,46,694.1626789392903,696.1627957111341,right,1,1,0.5156081328168511,D17T06,2021_Oct_18_1005,t1_Paradigm,2021.1.4,59.95943319077199,
G,left,Pretarget,0,47,47,47,697.6628122324473,699.6620567440987,left,1,1,0.5363871103036217,D17T06,2021_Oct_18_1005,t1_Paradigm,2021.1.4,59.95943319077199,
G,right,Target,0,48,48,48,701.1631736157578,703.1628637211397,right,1,1,0.5074507833924145,D17T06,2021_Oct_18_1005,t1_Paradigm,2021.1.4,59.95943319077199,
V,left,Distractor,0,49,49,49,704.6633518211893,706.6647979958798,left,1,1,0.6214916708995588,D17T06,2021_Oct_18_1005,t1_Paradigm,2021.1.4,59.95943319077199,
G,left,Lure,0,50,50,50,708.1627087738598,710.1623199619935,left,1,1,0.4842536015785299,D17T06,2021_Oct_18_1005,t1_Paradigm,2021.1.4,59.95943319077199,
Q,left,Pretarget,0,51,51,51,711.6634554401389,713.6642773345229,left,1,1,0.5660038579371758,D17T06,2021_Oct_18_1005,t1_Paradigm,2021.1.4,59.95943319077199,
Q,right,Target,0,52,52,52,715.1627260971582,717.1627302675624,right,1,1,0.635556265595369,D17T06,2021_Oct_18_1005,t1_Paradigm,2021.1.4,59.95943319077199,
Y,left,Distractor,0,53,53,53,718.6634592897608,720.6648977652658,left,1,1,0.493512584536802,D17T06,2021_Oct_18_1005,t1_Paradigm,2021.1.4,59.95943319077199,
V,left,Distractor,0,54,54,54,722.163521685754,724.1622083229595,left,1,1,0.5960661994176917,D17T06,2021_Oct_18_1005,t1_Paradigm,2021.1.4,59.95943319077199,
B,left,Distractor,0,55,55,55,725.663385826163,727.6649179757806,left,1,1,0.4693950222572312,D17T06,2021_Oct_18_1005,t1_Paradigm,2021.1.4,59.95943319077199,
J,left,Pretarget,0,56,56,56,729.1626725232345,731.1645453644451,left,1,1,0.6498159078764729,D17T06,2021_Oct_18_1005,t1_Paradigm,2021.1.4,59.95943319077199,
J,right,Target,0,57,57,57,732.6626329041901,734.6626200721366,right,1,1,0.527892277284991,D17T06,2021_Oct_18_1005,t1_Paradigm,2021.1.4,59.95943319077199,
H,left,Distractor,0,58,58,58,736.1626314605819,738.1623764231335,left,1,1,0.468125288549345,D17T06,2021_Oct_18_1005,t1_Paradigm,2021.1.4,59.95943319077199,
J,left,Lure,0,59,59,59,739.6631901370129,741.6649449231336,left,1,1,0.4852663729689084,D17T06,2021_Oct_18_1005,t1_Paradigm,2021.1.4,59.95943319077199,
D,left,Pretarget,0,60,60,60,743.1633138061152,745.1649486123933,left,1,1,0.5213312378618866,D17T06,2021_Oct_18_1005,t1_Paradigm,2021.1.4,59.95943319077199,
D,right,Target,0,61,61,61,746.6627185583347,748.6627124630613,right,1,1,0.6235242713592015,D17T06,2021_Oct_18_1005,t1_Paradigm,2021.1.4,59.95943319077199,
R,left,Distractor,0,62,62,62,750.1627139066695,752.1756813590764,left,1,1,0.534752624866087,D17T06,2021_Oct_18_1005,t1_Paradigm,2021.1.4,59.95943319077199,
F,left,Distractor,0,63,63,63,753.6626053152722,755.6637091943994,left,1,1,0.55063103325665,D17T06,2021_Oct_18_1005,t1_Paradigm,2021.1.4,59.95943319077199,
F,left,Distractor,0,0,0,0,890.0544323748327,892.0459061032161,left,1,2,0.6004079316044226,D17T06,2021_Oct_18_1005,t1_Paradigm,2021.1.4,59.95943319077199,
N,left,Pretarget,0,1,1,1,893.5463175316108,895.5456326196436,left,1,2,0.4766008734004572,D17T06,2021_Oct_18_1005,t1_Paradigm,2021.1.4,59.95943319077199,
V,left,Distractor,0,2,2,2,897.0466795564862,899.048238011892,left,1,2,0.7020270506618544,D17T06,2021_Oct_18_1005,t1_Paradigm,2021.1.4,59.95943319077199,
N,right,Target,0,3,3,3,900.5458943939884,902.5455344542861,right,1,2,0.8047757130116224,D17T06,2021_Oct_18_1005,t1_Paradigm,2021.1.4,59.95943319077199,
N,left,Lure,0,4,4,4,904.0459885493037,906.04616595275,left,1,2,1.2400441551581025,D17T06,2021_Oct_18_1005,t1_Paradigm,2021.1.4,59.95943319077199,
X,left,Distractor,0,5,5,5,907.5465972708189,909.5480906034354,left,1,2,0.7622723550302908,D17T06,2021_Oct_18_1005,t1_Paradigm,2021.1.4,59.95943319077199,
G,left,Pretarget,0,6,6,6,911.046036669577,913.0455888301949,left,1,2,0.720768615603447,D17T06,2021_Oct_18_1005,t1_Paradigm,2021.1.4,59.95943319077199,
H,left,Pretarget,0,7,7,7,914.5466672056355,916.5481092099799,left,1,2,0.7380794042255729,D17T06,2021_Oct_18_1005,t1_Paradigm,2021.1.4,59.95943319077199,
G,right,Target,0,8,8,8,918.0459311257582,920.0478155158344,right,1,2,1.1425977058243006,D17T06,2021_Oct_18_1005,t1_Paradigm,2021.1.4,59.95943319077199,
H,right,Target,0,9,9,9,921.5458190055215,923.5480922074639,right,1,2,0.7145216410863213,D17T06,2021_Oct_18_1005,t1_Paradigm,2021.1.4,59.95943319077199,
T,left,Pretarget,0,10,10,10,925.0459911157377,927.0456247600378,left,1,2,0.5765832613687962,D17T06,2021_Oct_18_1005,t1_Paradigm,2021.1.4,59.95943319077199,
K,left,Distractor,0,11,11,11,928.546567115467,930.5480559568387,left,1,2,0.8182805084506981,D17T06,2021_Oct_18_1005,t1_Paradigm,2021.1.4,59.95943319077199,
T,right,Target,0,12,12,12,932.0466628748109,934.0480936510721,right,1,2,0.9821393569582142,D17T06,2021_Oct_18_1005,t1_Paradigm,2021.1.4,59.95943319077199,
T,left,Lure,0,13,13,13,935.5456807399169,937.5459970505908,left,1,2,0.668306284933351,D17T06,2021_Oct_18_1005,t1_Paradigm,2021.1.4,59.95943319077199,
J,left,Distractor,0,14,14,14,939.0459805292776,941.0456083991448,left,1,2,0.5125540992594324,D17T06,2021_Oct_18_1005,t1_Paradigm,2021.1.4,59.95943319077199,
Q,left,Pretarget,0,15,15,15,942.5465937420377,944.54753818264,left,1,2,0.5468221529154107,D17T06,2021_Oct_18_1005,t1_Paradigm,2021.1.4,59.95943319077199,
M,left,Distractor,0,16,16,16,946.0458313564304,948.047815836675,left,1,2,0.5503852990223095,D17T06,2021_Oct_18_1005,t1_Paradigm,2021.1.4,59.95943319077199,
Q,right,Target,0,17,17,17,949.5459056220134,951.545592198614,right,1,2,0.5726527970982715,D17T06,2021_Oct_18_1005,t1_Paradigm,2021.1.4,59.95943319077199,
R,left,Distractor,0,18,18,18,953.0465364788543,955.048111936776,left,1,2,0.6381101691513322,D17T06,2021_Oct_18_1005,t1_Paradigm,2021.1.4,59.95943319077199,
W,left,Distractor,0,19,19,19,956.5465497921687,958.5480511448113,left,1,2,0.7545217822771519,D17T06,2021_Oct_18_1005,t1_Paradigm,2021.1.4,59.95943319077199,
C,left,Pretarget,0,20,20,20,960.0460376319825,962.0479948440916,left,1,2,0.6784327161731198,D17T06,2021_Oct_18_1005,t1_Paradigm,2021.1.4,59.95943319077199,
T,left,Distractor,0,21,21,21,963.546681320935,965.5481528390083,left,1,2,0.7142088593100198,D17T06,2021_Oct_18_1005,t1_Paradigm,2021.1.4,59.95943319077199,
C,right,Target,0,22,22,22,967.0459189353278,969.0478418216226,right,1,2,0.8305065878666937,D17T06,2021_Oct_18_1005,t1_Paradigm,2021.1.4,59.95943319077199,
F,left,Pretarget,0,23,23,23,970.5458344040089,972.5481210796279,left,1,2,0.6101388141978532,D17T06,2021_Oct_18_1005,t1_Paradigm,2021.1.4,59.95943319077199,
C,right,Target,0,24,24,24,974.0458849302959,976.0455265946803,right,1,2,0.6006918412749656,D17T06,2021_Oct_18_1005,t1_Paradigm,2021.1.4,59.95943319077199,
F,right,Target,0,25,25,25,977.5459450806957,979.5454237776576,right,1,2,0.7010126751847565,D17T06,2021_Oct_18_1005,t1_Paradigm,2021.1.4,59.95943319077199,
H,left,Distractor,0,26,26,26,981.0465489901253,983.0481430545333,left,1,2,0.605970956501551,D17T06,2021_Oct_18_1005,t1_Paradigm,2021.1.4,59.95943319077199,
H,left,Lure,0,27,27,27,984.5457230858156,986.5460416420246,left,1,2,1.07621193327941,D17T06,2021_Oct_18_1005,t1_Paradigm,2021.1.4,59.95943319077199,
P,left,Distractor,0,28,28,28,988.0458198075648,990.0480378315551,left,1,2,0.8861333079403266,D17T06,2021_Oct_18_1005,t1_Paradigm,2021.1.4,59.95943319077199,
G,left,Pretarget,0,29,29,29,991.5458315167925,993.545608559507,left,1,2,0.6526784227462485,D17T06,2021_Oct_18_1005,t1_Paradigm,2021.1.4,59.95943319077199,
K,left,Distractor,0,30,30,30,995.0464752057451,997.0481183528318,left,1,2,0.7182159952353686,D17T06,2021_Oct_18_1005,t1_Paradigm,2021.1.4,59.95943319077199,
G,right,Target,0,31,31,31,998.5458286295761,1000.5477367590065,left,0,2,0.6263344956096262,D17T06,2021_Oct_18_1005,t1_Paradigm,2021.1.4,59.95943319077199,
M,left,Pretarget,0,32,32,32,1002.0465313460445,1004.0479996561189,left,1,2,0.5981963236699812,D17T06,2021_Oct_18_1005,t1_Paradigm,2021.1.4,59.95943319077199,
B,left,Distractor,0,33,33,33,1005.546695115394,1007.5480431247852,left,1,2,0.6662390377605334,D17T06,2021_Oct_18_1005,t1_Paradigm,2021.1.4,59.95943319077199,
M,right,Target,0,34,34,34,1009.0458223739406,1011.0455769605469,right,1,2,0.7206098186434247,D17T06,2021_Oct_18_1005,t1_Paradigm,2021.1.4,59.95943319077199,
M,left,Lure,0,35,35,35,1012.5474698518519,1014.5461327497615,left,1,2,0.9481799146160483,D17T06,2021_Oct_18_1005,t1_Paradigm,2021.1.4,59.95943319077199,
T,left,Distractor,0,36,36,36,1016.0464841881767,1018.048112578399,left,1,2,0.6301886090659536,D17T06,2021_Oct_18_1005,t1_Paradigm,2021.1.4,59.95943319077199,
F,left,Distractor,0,37,37,37,1019.5458786746603,1021.5449740134645,left,1,2,0.7173815896385349,D17T06,2021_Oct_18_1005,t1_Paradigm,2021.1.4,59.95943319077199,
X,left,Distractor,0,38,38,38,1023.0464716769056,1025.0480275658774,left,1,2,0.6701319682179019,D17T06,2021_Oct_18_1005,t1_Paradigm,2021.1.4,59.95943319077199,
C,left,Distractor,0,39,39,39,1026.5458257423597,1028.5475882277242,left,1,2,0.6745352944708429,D17T06,2021_Oct_18_1005,t1_Paradigm,2021.1.4,59.95943319077199,
R,left,Distractor,0,40,40,40,1030.0458663238096,1032.0479765583877,left,1,2,0.6303172506159171,D17T06,2021_Oct_18_1005,t1_Paradigm,2021.1.4,59.95943319077199,
B,left,Pretarget,0,41,41,41,1033.5459540631273,1035.5468869549222,left,1,2,0.6033265868900344,D17T06,2021_Oct_18_1005,t1_Paradigm,2021.1.4,59.95943319077199,
H,left,Distractor,0,42,42,42,1037.045910594461,1039.0481039167498,left,1,2,0.6380559536046349,D17T06,2021_Oct_18_1005,t1_Paradigm,2021.1.4,59.95943319077199,
B,right,Target,0,43,43,43,1040.545971707208,1042.5479763979674,right,1,2,0.5463380629080348,D17T06,2021_Oct_18_1005,t1_Paradigm,2021.1.4,59.95943319077199,
W,left,Pretarget,0,44,44,44,1044.0458605493768,1046.047852728865,left,1,2,0.6464744357508607,D17T06,2021_Oct_18_1005,t1_Paradigm,2021.1.4,59.95943319077199,
L,left,Pretarget,0,45,45,45,1047.5456679078634,1049.5464343035128,left,1,2,0.7797810783958994,D17T06,2021_Oct_18_1005,t1_Paradigm,2021.1.4,59.95943319077199,
W,right,Target,0,46,46,46,1051.045662293851,1053.0480368691497,right,1,2,0.8302717608748935,D17T06,2021_Oct_18_1005,t1_Paradigm,2021.1.4,59.95943319077199,
L,right,Target,0,47,47,47,1054.5456082387245,1056.547937260184,right,1,2,0.5463781631551683,D17T06,2021_Oct_18_1005,t1_Paradigm,2021.1.4,59.95943319077199,
W,right,Target,0,48,48,48,1058.0458031258313,1060.0472598870401,right,1,2,0.5349431811482646,D17T06,2021_Oct_18_1005,t1_Paradigm,2021.1.4,59.95943319077199,
X,left,Distractor,0,49,49,49,1061.5457808301435,1063.5480126485927,left,1,2,0.6021944771055132,D17T06,2021_Oct_18_1005,t1_Paradigm,2021.1.4,59.95943319077199,
R,left,Distractor,0,50,50,50,1065.0457460231264,1067.0470000375644,left,1,2,0.5591358111123554,D17T06,2021_Oct_18_1005,t1_Paradigm,2021.1.4,59.95943319077199,
V,left,Pretarget,0,51,51,51,1068.5460079578334,1070.546976779413,left,1,2,0.6752256600302644,D17T06,2021_Oct_18_1005,t1_Paradigm,2021.1.4,59.95943319077199,
Z,left,Distractor,0,52,52,52,1072.0631389370537,1074.0481831547804,left,1,2,0.6780185609241016,D17T06,2021_Oct_18_1005,t1_Paradigm,2021.1.4,59.95943319077199,
V,right,Target,0,53,53,53,1075.5456874767551,1077.5456425645389,right,1,2,0.7327117476961575,D17T06,2021_Oct_18_1005,t1_Paradigm,2021.1.4,59.95943319077199,
V,left,Lure,0,54,54,54,1079.0464678272838,1081.046055596904,left,1,2,0.6080648302449845,D17T06,2021_Oct_18_1005,t1_Paradigm,2021.1.4,59.95943319077199,
N,left,Distractor,0,55,55,55,1082.5463592358283,1084.5480020621326,left,1,2,0.6741195352515206,D17T06,2021_Oct_18_1005,t1_Paradigm,2021.1.4,59.95943319077199,
B,left,Distractor,0,56,56,56,1086.0459166896762,1088.0455243490287,left,1,2,0.5845853427308612,D17T06,2021_Oct_18_1005,t1_Paradigm,2021.1.4,59.95943319077199,
V,left,Lure,0,57,57,57,1089.5465574914124,1091.5480505031883,left,1,2,0.8581189655233175,D17T06,2021_Oct_18_1005,t1_Paradigm,2021.1.4,59.95943319077199,
J,left,Distractor,0,58,58,58,1093.045576960547,1095.0454945144593,left,1,2,0.6887262851232663,D17T06,2021_Oct_18_1005,t1_Paradigm,2021.1.4,59.95943319077199,
H,left,Distractor,0,59,59,59,1096.546479857352,1098.5479866636451,left,1,2,0.5302941207191907,D17T06,2021_Oct_18_1005,t1_Paradigm,2021.1.4,59.95943319077199,
X,left,Pretarget,0,60,60,60,1100.0464562784182,1102.048008317768,left,1,2,0.6622498668148182,D17T06,2021_Oct_18_1005,t1_Paradigm,2021.1.4,59.95943319077199,
P,left,Distractor,0,61,61,61,1103.5457381634624,1105.5480719969491,left,1,2,0.5380106884986162,D17T06,2021_Oct_18_1005,t1_Paradigm,2021.1.4,59.95943319077199,
X,right,Target,0,62,62,62,1107.0457165093394,1109.0465955064283,right,1,2,0.8156906751100905,D17T06,2021_Oct_18_1005,t1_Paradigm,2021.1.4,59.95943319077199,
Q,left,Distractor,0,63,63,63,1110.5457978326012,1112.5465626242221,left,1,2,0.6596096675493754,D17T06,2021_Oct_18_1005,t1_Paradigm,2021.1.4,59.95943319077199,
B,left,Pretarget,0,0,0,0,1120.4693414483336,1122.4648341823486,left,1,2,0.4054948224220425,D17T06,2021_Oct_18_1005,t1_Paradigm,2021.1.4,59.95943319077199,
F,left,Distractor,0,1,1,1,1123.962837992818,1125.9621133014443,left,1,2,0.47608021198539063,D17T06,2021_Oct_18_1005,t1_Paradigm,2021.1.4,59.95943319077199,
B,right,Target,0,2,2,2,1127.463115646853,1129.4646410596324,right,1,2,0.6054095532745123,D17T06,2021_Oct_18_1005,t1_Paradigm,2021.1.4,59.95943319077199,
V,left,Distractor,0,3,3,3,1130.9624530306319,1132.9640843080124,left,1,2,0.5939662304590456,D17T06,2021_Oct_18_1005,t1_Paradigm,2021.1.4,59.95943319077199,
G,left,Pretarget,0,4,4,4,1134.4631191756343,1136.4646625533933,left,1,2,0.6296082784538157,D17T06,2021_Oct_18_1005,t1_Paradigm,2021.1.4,59.95943319077199,
B,left,Lure,0,5,5,5,1137.9624039479531,1139.9645834757248,None,0,2,,D17T06,2021_Oct_18_1005,t1_Paradigm,2021.1.4,59.95943319077199,
G,right,Target,0,6,6,6,1141.4630287095206,1143.4640251200763,right,1,2,0.9580837094108574,D17T06,2021_Oct_18_1005,t1_Paradigm,2021.1.4,59.95943319077199,
Y,left,Pretarget,0,7,7,7,1144.9623709053267,1146.963556909759,left,1,2,0.5786505084834062,D17T06,2021_Oct_18_1005,t1_Paradigm,2021.1.4,59.95943319077199,
P,left,Distractor,0,8,8,8,1148.4623668953427,1150.4634643584723,left,1,2,0.7745946748764254,D17T06,2021_Oct_18_1005,t1_Paradigm,2021.1.4,59.95943319077199,
Y,right,Target,0,9,9,9,1151.9623628853005,1153.9634802381624,right,1,2,0.9385760696604848,D17T06,2021_Oct_18_1005,t1_Paradigm,2021.1.4,59.95943319077199,
X,left,Distractor,0,10,10,10,1155.4629876469262,1157.4645515559241,left,1,2,0.6694756076904014,D17T06,2021_Oct_18_1005,t1_Paradigm,2021.1.4,59.95943319077199,
Y,right,Target,0,11,11,11,1158.9622294317232,1160.962128058367,right,1,2,0.9321478421334177,D17T06,2021_Oct_18_1005,t1_Paradigm,2021.1.4,59.95943319077199,
N,left,Distractor,0,12,12,12,1162.4625702836784,1164.4617958680028,left,1,2,0.7122785946121439,D17T06,2021_Oct_18_1005,t1_Paradigm,2021.1.4,59.95943319077199,
Y,right,Target,0,13,13,13,1165.9635213007568,1167.964672979433,right,1,2,0.7776015506242402,D17T06,2021_Oct_18_1005,t1_Paradigm,2021.1.4,59.95943319077199,
Y,left,Lure,0,14,14,14,1169.4630155566847,1171.4626655618194,left,1,2,0.83157582039712,D17T06,2021_Oct_18_1005,t1_Paradigm,2021.1.4,59.95943319077199,
K,left,Distractor,0,15,15,15,1172.9632110854145,1174.9645866837236,left,1,2,0.721470530028455,D17T06,2021_Oct_18_1005,t1_Paradigm,2021.1.4,59.95943319077199,
T,left,Pretarget,0,16,16,16,1176.4624188652379,1178.4618401386542,left,1,2,0.6805644444539212,D17T06,2021_Oct_18_1005,t1_Paradigm,2021.1.4,59.95943319077199,
J,left,Distractor,0,17,17,17,1179.9631469250307,1181.9646482776734,left,1,2,1.273417171672918,D17T06,2021_Oct_18_1005,t1_Paradigm,2021.1.4,59.95943319077199,
T,right,Target,0,18,18,18,1183.4624772511306,1185.46416146087,right,1,2,1.1019261264009401,D17T06,2021_Oct_18_1005,t1_Paradigm,2021.1.4,59.95943319077199,
S,left,Pretarget,0,19,19,19,1186.9624841483892,1188.9645529995323,left,1,2,0.6257471073768102,D17T06,2021_Oct_18_1005,t1_Paradigm,2021.1.4,59.95943319077199,
R,left,Distractor,0,20,20,20,1190.4623681785306,1192.464567916817,left,1,2,0.6297247295733541,D17T06,2021_Oct_18_1005,t1_Paradigm,2021.1.4,59.95943319077199,
S,right,Target,0,21,21,21,1193.9623551860568,1195.964197551075,right,1,2,0.7139653707272373,D17T06,2021_Oct_18_1005,t1_Paradigm,2021.1.4,59.95943319077199,
Q,left,Distractor,0,22,22,22,1197.4625728501123,1199.4645505935187,left,1,2,0.5734801451326348,D17T06,2021_Oct_18_1005,t1_Paradigm,2021.1.4,59.95943319077199,
D,left,Distractor,0,23,23,23,1200.9623571108677,1202.9633602582617,left,1,2,1.0426887814537622,D17T06,2021_Oct_18_1005,t1_Paradigm,2021.1.4,59.95943319077199,
F,left,Distractor,0,24,24,24,1204.4624304141034,1206.4645262125996,left,1,2,0.6298366894479841,D17T06,2021_Oct_18_1005,t1_Paradigm,2021.1.4,59.95943319077199,
Z,left,Distractor,0,25,25,25,1207.9622204492916,1209.9641426939634,left,1,2,0.6499852912384085,D17T06,2021_Oct_18_1005,t1_Paradigm,2021.1.4,59.95943319077199,
P,left,Distractor,0,26,26,26,1211.4624705142924,1213.462015938072,left,1,2,0.768070527643431,D17T06,2021_Oct_18_1005,t1_Paradigm,2021.1.4,59.95943319077199,
H,left,Distractor,0,27,27,27,1214.9630622333498,1216.9646405784297,left,1,2,0.5455716672586277,D17T06,2021_Oct_18_1005,t1_Paradigm,2021.1.4,59.95943319077199,
Z,left,Pretarget,0,28,28,28,1218.4624185443972,1220.4639426739886,left,1,2,0.5661857526283711,D17T06,2021_Oct_18_1005,t1_Paradigm,2021.1.4,59.95943319077199,
J,left,Pretarget,0,29,29,29,1221.962487356388,1223.9646341623738,left,1,2,0.8256650462863036,D17T06,2021_Oct_18_1005,t1_Paradigm,2021.1.4,59.95943319077199,
Z,right,Target,0,30,30,30,1225.4625032361364,1227.4642894607969,right,1,2,0.6217088536941446,D17T06,2021_Oct_18_1005,t1_Paradigm,2021.1.4,59.95943319077199,
J,right,Target,0,31,31,31,1228.962522003043,1230.9635123183252,right,1,2,0.7704858448123559,D17T06,2021_Oct_18_1005,t1_Paradigm,2021.1.4,59.95943319077199,
V,left,Pretarget,0,32,32,32,1232.4624547950225,1234.4635484085302,left,1,2,0.7104099238058552,D17T06,2021_Oct_18_1005,t1_Paradigm,2021.1.4,59.95943319077199,
Z,left,Lure,0,33,33,33,1235.9625515167718,1237.9633333109086,left,1,2,0.7788914948469028,D17T06,2021_Oct_18_1005,t1_Paradigm,2021.1.4,59.95943319077199,
V,right,Target,0,34,34,34,1239.4632106042118,1241.4754565732437,right,1,2,0.8985319786006585,D17T06,2021_Oct_18_1005,t1_Paradigm,2021.1.4,59.95943319077199,
X,left,Distractor,0,35,35,35,1242.9624219128164,1244.9640397165786,left,1,2,0.5946424807771109,D17T06,2021_Oct_18_1005,t1_Paradigm,2021.1.4,59.95943319077199,
S,left,Distractor,0,36,36,36,1246.463199696911,1248.4645759368432,left,1,2,1.0934723560349084,D17T06,2021_Oct_18_1005,t1_Paradigm,2021.1.4,59.95943319077199,
Q,left,Distractor,0,37,37,37,1249.962415175978,1251.962070314039,left,1,2,0.7481477703549899,D17T06,2021_Oct_18_1005,t1_Paradigm,2021.1.4,59.95943319077199,
P,left,Distractor,0,38,38,38,1253.4624089203426,1255.478492641938,left,1,2,0.671643586596474,D17T06,2021_Oct_18_1005,t1_Paradigm,2021.1.4,59.95943319077199,
S,left,Lure,0,39,39,39,1256.963199536549,1258.9648061121698,left,1,2,1.2653592707938515,D17T06,2021_Oct_18_1005,t1_Paradigm,2021.1.4,59.95943319077199,
K,left,Pretarget,0,40,40,40,1260.4624349052901,1262.4641515160329,left,1,2,1.0620822157361545,D17T06,2021_Oct_18_1005,t1_Paradigm,2021.1.4,59.95943319077199,
L,left,Distractor,0,41,41,41,1263.962321181083,1265.9616715573356,left,1,2,0.7326963492087089,D17T06,2021_Oct_18_1005,t1_Paradigm,2021.1.4,59.95943319077199,
K,right,Target,0,42,42,42,1267.4623781233677,1269.4620727200527,right,1,2,0.5281453899806365,D17T06,2021_Oct_18_1005,t1_Paradigm,2021.1.4,59.95943319077199,
B,left,Distractor,0,43,43,43,1270.9629307045834,1272.9646733002155,left,1,2,0.49749598116613925,D17T06,2021_Oct_18_1005,t1_Paradigm,2021.1.4,59.95943319077199,
N,left,Distractor,0,44,44,44,1274.4624002586934,1276.4641643480863,left,1,2,0.6938501322874799,D17T06,2021_Oct_18_1005,t1_Paradigm,2021.1.4,59.95943319077199,
S,left,Pretarget,0,45,45,45,1277.9624963388778,1279.9643107941374,left,1,2,0.8417240661219694,D17T06,2021_Oct_18_1005,t1_Paradigm,2021.1.4,59.95943319077199,
Z,left,Distractor,0,46,46,46,1281.4623643289087,1283.4642236964428,left,1,2,0.7338438573642634,D17T06,2021_Oct_18_1005,t1_Paradigm,2021.1.4,59.95943319077199,
S,right,Target,0,47,47,47,1284.9623911158415,1286.9621742538293,right,1,2,0.5320559645188041,D17T06,2021_Oct_18_1005,t1_Paradigm,2021.1.4,59.95943319077199,
C,left,Distractor,0,48,48,48,1288.4631034563645,1290.4644120071316,left,1,2,0.5177113097743131,D17T06,2021_Oct_18_1005,t1_Paradigm,2021.1.4,59.95943319077199,
T,left,Pretarget,0,49,49,49,1291.9622862136457,1293.962050103466,left,1,2,0.5880830453243107,D17T06,2021_Oct_18_1005,t1_Paradigm,2021.1.4,59.95943319077199,
S,left,Lure,0,50,50,50,1295.4630838874727,1297.4645425734925,left,1,2,0.653392527718097,D17T06,2021_Oct_18_1005,t1_Paradigm,2021.1.4,59.95943319077199,
T,right,Target,0,51,51,51,1298.9622291109408,1300.9642674858915,right,1,2,0.561944110551849,D17T06,2021_Oct_18_1005,t1_Paradigm,2021.1.4,59.95943319077199,
N,left,Pretarget,0,52,52,52,1302.4622741835774,1304.4633719675476,left,1,2,0.5345732966670766,D17T06,2021_Oct_18_1005,t1_Paradigm,2021.1.4,59.95943319077199,
B,left,Distractor,0,53,53,53,1305.9629845992895,1307.964466062258,left,1,2,1.0977332462207414,D17T06,2021_Oct_18_1005,t1_Paradigm,2021.1.4,59.95943319077199,
N,right,Target,0,54,54,54,1309.4622950357152,1311.462040960614,right,1,2,0.7360808087396435,D17T06,2021_Oct_18_1005,t1_Paradigm,2021.1.4,59.95943319077199,
N,left,Lure,0,55,55,55,1312.9629801080446,1314.9626079779118,left,1,2,0.7074139553587884,D17T06,2021_Oct_18_1005,t1_Paradigm,2021.1.4,59.95943319077199,
X,left,Distractor,0,56,56,56,1316.463146443828,1318.4618032464641,left,1,2,0.712163426738698,D17T06,2021_Oct_18_1005,t1_Paradigm,2021.1.4,59.95943319077199,
W,left,Distractor,0,57,57,57,1319.962395286304,1321.9619785646792,left,1,2,0.7804156244383194,D17T06,2021_Oct_18_1005,t1_Paradigm,2021.1.4,59.95943319077199,
S,left,Distractor,0,58,58,58,1323.4628657422145,1325.4645287789754,left,1,2,0.6534717657486908,D17T06,2021_Oct_18_1005,t1_Paradigm,2021.1.4,59.95943319077199,
L,left,Distractor,0,59,59,59,1326.962445972953,1328.9642299520783,left,1,2,0.7537377425469458,D17T06,2021_Oct_18_1005,t1_Paradigm,2021.1.4,59.95943319077199,
K,left,Pretarget,0,60,60,60,1330.462438754912,1332.4644902827567,left,1,2,0.48549029271816835,D17T06,2021_Oct_18_1005,t1_Paradigm,2021.1.4,59.95943319077199,
V,left,Pretarget,0,61,61,61,1333.9623202186776,1335.962854995334,left,1,2,0.5870988252572715,D17T06,2021_Oct_18_1005,t1_Paradigm,2021.1.4,59.95943319077199,
K,right,Target,0,62,62,62,1337.46296005795,1339.461994123587,right,1,2,0.7041549293790013,D17T06,2021_Oct_18_1005,t1_Paradigm,2021.1.4,59.95943319077199,
V,right,Target,0,63,63,63,1340.9630593461334,1342.9644606086076,right,1,2,1.4415535920416005,D17T06,2021_Oct_18_1005,t1_Paradigm,2021.1.4,59.95943319077199,
R,left,Distractor,0,0,0,0,1461.3524444620125,1463.3452912223293,left,1,3,0.40476981026586145,D17T06,2021_Oct_18_1005,t1_Paradigm,2021.1.4,59.95943319077199,
P,left,Lure,0,1,1,1,1464.8462383897859,1466.8477182487259,left,1,3,0.40621534339152277,D17T06,2021_Oct_18_1005,t1_Paradigm,2021.1.4,59.95943319077199,
V,left,Distractor,0,2,2,2,1468.345733608061,1470.3452915431117,left,1,3,0.4606464349781163,D17T06,2021_Oct_18_1005,t1_Paradigm,2021.1.4,59.95943319077199,
P,left,Pretarget,0,3,3,3,1471.8461777582415,1473.8477083038888,left,1,3,1.118267451878637,D17T06,2021_Oct_18_1005,t1_Paradigm,2021.1.4,59.95943319077199,
Z,left,Distractor,0,4,4,4,1475.3462401542347,1477.34780887526,left,1,3,0.8982836779905483,D17T06,2021_Oct_18_1005,t1_Paradigm,2021.1.4,59.95943319077199,
L,left,Pretarget,0,5,5,5,1478.8453975681332,1480.8453709416208,left,1,3,0.7285762910032645,D17T06,2021_Oct_18_1005,t1_Paradigm,2021.1.4,59.95943319077199,
P,right,Target,0,6,6,6,1482.3462157732574,1484.347781927907,right,1,3,1.034244955983013,D17T06,2021_Oct_18_1005,t1_Paradigm,2021.1.4,59.95943319077199,
S,left,Distractor,0,7,7,7,1485.84559101169,1487.8452785506379,left,1,3,0.7687637804774567,D17T06,2021_Oct_18_1005,t1_Paradigm,2021.1.4,59.95943319077199,
L,right,Target,0,8,8,8,1489.3463113722391,1491.3453178488999,left,0,3,1.07661774760345,D17T06,2021_Oct_18_1005,t1_Paradigm,2021.1.4,59.95943319077199,
D,left,Distractor,0,9,9,9,1492.8462303697597,1494.858570975368,left,1,3,0.5873262737877667,D17T06,2021_Oct_18_1005,t1_Paradigm,2021.1.4,59.95943319077199,
G,left,Distractor,0,10,10,10,1496.345301488007,1498.345253046893,left,1,3,0.5886900024488568,D17T06,2021_Oct_18_1005,t1_Paradigm,2021.1.4,59.95943319077199,
M,left,Pretarget,0,11,11,11,1499.846091462532,1501.8477105494821,left,1,3,1.230319688678719,D17T06,2021_Oct_18_1005,t1_Paradigm,2021.1.4,59.95943319077199,
Y,left,Distractor,0,12,12,12,1503.345309508033,1505.3451064404799,left,1,3,0.7568443876807578,D17T06,2021_Oct_18_1005,t1_Paradigm,2021.1.4,59.95943319077199,
V,left,Distractor,0,13,13,13,1506.8461970063508,1508.8481574264588,left,1,3,0.8377990555018187,D17T06,2021_Oct_18_1005,t1_Paradigm,2021.1.4,59.95943319077199,
M,right,Target,0,14,14,14,1510.3453419090365,1512.3477639629855,right,1,3,0.8901423686766066,D17T06,2021_Oct_18_1005,t1_Paradigm,2021.1.4,59.95943319077199,
S,left,Pretarget,0,15,15,15,1513.8455691971467,1515.8467048357124,left,1,3,0.6393221585312858,D17T06,2021_Oct_18_1005,t1_Paradigm,2021.1.4,59.95943319077199,
Q,left,Distractor,0,16,16,16,1517.3454573976924,1519.3462350213667,left,1,3,1.1398041633074172,D17T06,2021_Oct_18_1005,t1_Paradigm,2021.1.4,59.95943319077199,
R,left,Pretarget,0,17,17,17,1520.8456131470157,1522.8477506497293,left,1,3,0.6782719944021665,D17T06,2021_Oct_18_1005,t1_Paradigm,2021.1.4,59.95943319077199,
S,right,Target,0,18,18,18,1524.345556204673,1526.347330880526,right,1,3,0.8265183792100288,D17T06,2021_Oct_18_1005,t1_Paradigm,2021.1.4,59.95943319077199,
F,left,Distractor,0,19,19,19,1527.8456076933653,1529.8474523039768,left,1,3,0.5584756009047851,D17T06,2021_Oct_18_1005,t1_Paradigm,2021.1.4,59.95943319077199,
R,right,Target,0,20,20,20,1531.3455546006444,1533.3473462790134,None,0,3,,D17T06,2021_Oct_18_1005,t1_Paradigm,2021.1.4,59.95943319077199,
P,left,Distractor,0,21,21,21,1534.8455236432492,1536.8475706799072,left,1,3,1.1743574098218232,D17T06,2021_Oct_18_1005,t1_Paradigm,2021.1.4,59.95943319077199,
L,left,Distractor,0,22,22,22,1538.3453569867415,1540.347609978111,None,0,3,,D17T06,2021_Oct_18_1005,t1_Paradigm,2021.1.4,59.95943319077199,
R,right,Target,0,23,23,23,1541.8454835430603,1543.8472165146377,None,0,3,,D17T06,2021_Oct_18_1005,t1_Paradigm,2021.1.4,59.95943319077199,
H,left,Pretarget,0,24,24,24,1545.3454962146934,1547.3453685356071,left,1,3,1.0765497375978157,D17T06,2021_Oct_18_1005,t1_Paradigm,2021.1.4,59.95943319077199,
G,left,Pretarget,0,25,25,25,1548.8461848158622,1550.848098398943,left,1,3,1.4619610809604637,D17T06,2021_Oct_18_1005,t1_Paradigm,2021.1.4,59.95943319077199,
T,left,Distractor,0,26,26,26,1552.3461474424694,1554.347764283826,left,1,3,0.7142803980968893,D17T06,2021_Oct_18_1005,t1_Paradigm,2021.1.4,59.95943319077199,
H,right,Target,0,27,27,27,1555.8455999941216,1557.8472883742652,right,1,3,0.49470885464688763,D17T06,2021_Oct_18_1005,t1_Paradigm,2021.1.4,59.95943319077199,
G,right,Target,0,28,28,28,1559.3454025405808,1561.347816895286,right,1,3,0.8821714050718583,D17T06,2021_Oct_18_1005,t1_Paradigm,2021.1.4,59.95943319077199,
D,left,Distractor,0,29,29,29,1562.8454200242995,1564.8467359534698,left,1,3,0.66329183120979,D17T06,2021_Oct_18_1005,t1_Paradigm,2021.1.4,59.95943319077199,
N,left,Pretarget,0,30,30,30,1566.3454294879339,1568.3464711315464,left,1,3,0.6513740424416028,D17T06,2021_Oct_18_1005,t1_Paradigm,2021.1.4,59.95943319077199,
V,left,Distractor,0,31,31,31,1569.8454501796514,1571.8471520334715,left,1,3,0.8149454524391331,D17T06,2021_Oct_18_1005,t1_Paradigm,2021.1.4,59.95943319077199,
R,left,Distractor,0,32,32,32,1573.3462327757734,1575.3474184594234,left,1,3,1.266546237631701,D17T06,2021_Oct_18_1005,t1_Paradigm,2021.1.4,59.95943319077199,
N,right,Target,0,33,33,33,1576.8453568263212,1578.8478558727074,right,1,3,0.5020667659700848,D17T06,2021_Oct_18_1005,t1_Paradigm,2021.1.4,59.95943319077199,
Z,left,Distractor,0,34,34,34,1580.3455019891262,1582.3473334469018,left,1,3,0.6025518503738567,D17T06,2021_Oct_18_1005,t1_Paradigm,2021.1.4,59.95943319077199,
N,left,Lure,0,35,35,35,1583.845600314904,1585.847338098567,left,1,3,0.958531548792962,D17T06,2021_Oct_18_1005,t1_Paradigm,2021.1.4,59.95943319077199,
Y,left,Pretarget,0,36,36,36,1587.3454772874247,1589.3477257876075,None,0,3,,D17T06,2021_Oct_18_1005,t1_Paradigm,2021.1.4,59.95943319077199,
Y,left,Lure,0,37,37,37,1590.8454431220307,1592.8455817084177,left,1,3,1.0964888558373787,D17T06,2021_Oct_18_1005,t1_Paradigm,2021.1.4,59.95943319077199,
B,left,Distractor,0,38,38,38,1594.3455270116683,1596.345048054529,left,1,3,0.6530752546386793,D17T06,2021_Oct_18_1005,t1_Paradigm,2021.1.4,59.95943319077199,
Y,right,Target,0,39,39,39,1597.8462547506788,1599.8479511509067,right,1,3,0.6698544746614061,D17T06,2021_Oct_18_1005,t1_Paradigm,2021.1.4,59.95943319077199,
J,left,Distractor,0,40,40,40,1601.345296996762,1603.34742295061,left,1,3,0.7864617769373581,D17T06,2021_Oct_18_1005,t1_Paradigm,2021.1.4,59.95943319077199,
X,left,Distractor,0,41,41,41,1604.84617936227,1606.8476563339937,left,1,3,0.7742408304475248,D17T06,2021_Oct_18_1005,t1_Paradigm,2021.1.4,59.95943319077199,
W,left,Pretarget,0,42,42,42,1608.345505838748,1610.34477697697,left,1,3,0.7652625490445644,D17T06,2021_Oct_18_1005,t1_Paradigm,2021.1.4,59.95943319077199,
S,left,Pretarget,0,43,43,43,1611.8462159336777,1613.8476306698285,left,1,3,0.846385317039676,D17T06,2021_Oct_18_1005,t1_Paradigm,2021.1.4,59.95943319077199,
R,left,Distractor,0,44,44,44,1615.3455244452925,1617.3476462287363,left,1,3,0.6742209086078219,D17T06,2021_Oct_18_1005,t1_Paradigm,2021.1.4,59.95943319077199,
W,right,Target,0,45,45,45,1618.8453731872141,1620.8447331875213,right,1,3,0.6492997377063148,D17T06,2021_Oct_18_1005,t1_Paradigm,2021.1.4,59.95943319077199,
S,right,Target,0,46,46,46,1622.3455212372355,1624.3476680432213,right,1,3,0.7946762291248888,D17T06,2021_Oct_18_1005,t1_Paradigm,2021.1.4,59.95943319077199,
D,left,Distractor,0,47,47,47,1625.8460988409934,1627.8478667800082,left,1,3,0.9899556940654293,D17T06,2021_Oct_18_1005,t1_Paradigm,2021.1.4,59.95943319077199,
T,left,Distractor,0,48,48,48,1629.345524124452,1631.3475169455633,left,1,3,0.6584156430908479,D17T06,2021_Oct_18_1005,t1_Paradigm,2021.1.4,59.95943319077199,
S,right,Target,0,49,49,49,1632.8454116834328,1634.8448332776898,right,1,3,0.633414271636866,D17T06,2021_Oct_18_1005,t1_Paradigm,2021.1.4,59.95943319077199,
K,left,Distractor,0,50,50,50,1636.3459847959457,1638.34768023371,left,1,3,0.6182217375608161,D17T06,2021_Oct_18_1005,t1_Paradigm,2021.1.4,59.95943319077199,
S,left,Lure,0,51,51,51,1639.8462768860045,1641.8452714930172,None,0,3,,D17T06,2021_Oct_18_1005,t1_Paradigm,2021.1.4,59.95943319077199,
T,left,Pretarget,0,52,52,52,1643.3459710014286,1645.3476359630586,left,1,3,0.658238239644561,D17T06,2021_Oct_18_1005,t1_Paradigm,2021.1.4,59.95943319077199,
V,left,Distractor,0,53,53,53,1646.8454257987323,1648.845252244908,left,1,3,0.8566362193669192,D17T06,2021_Oct_18_1005,t1_Paradigm,2021.1.4,59.95943319077199,
B,left,Distractor,0,54,54,54,1650.346342169214,1652.3476536071394,left,1,3,0.5862262442242354,D17T06,2021_Oct_18_1005,t1_Paradigm,2021.1.4,59.95943319077199,
T,right,Target,0,55,55,55,1653.8460924249375,1655.8478106396506,right,1,3,0.7340677771135233,D17T06,2021_Oct_18_1005,t1_Paradigm,2021.1.4,59.95943319077199,
Y,left,Pretarget,0,56,56,56,1657.3452103802701,1659.345186640916,left,1,3,0.6448309678817168,D17T06,2021_Oct_18_1005,t1_Paradigm,2021.1.4,59.95943319077199,
T,left,Lure,0,57,57,57,1660.8454902798985,1662.845090881572,left,1,3,1.1608769953018054,D17T06,2021_Oct_18_1005,t1_Paradigm,2021.1.4,59.95943319077199,
P,left,Pretarget,0,58,58,58,1664.3461750314455,1666.3476552111679,left,1,3,0.6501203487860039,D17T06,2021_Oct_18_1005,t1_Paradigm,2021.1.4,59.95943319077199,
Y,right,Target,0,59,59,59,1667.8452262599603,1669.8475687550963,right,1,3,0.7663179871160537,D17T06,2021_Oct_18_1005,t1_Paradigm,2021.1.4,59.95943319077199,
R,left,Distractor,0,60,60,60,1671.345384254877,1673.3452325155959,left,1,3,0.5969512916635722,D17T06,2021_Oct_18_1005,t1_Paradigm,2021.1.4,59.95943319077199,
P,right,Target,0,61,61,61,1674.8461331668077,1676.847247632395,right,1,3,0.502572028839495,D17T06,2021_Oct_18_1005,t1_Paradigm,2021.1.4,59.95943319077199,
L,left,Distractor,0,62,62,62,1678.3461140790605,1680.3478425594512,left,1,3,0.7300285609671846,D17T06,2021_Oct_18_1005,t1_Paradigm,2021.1.4,59.95943319077199,
V,left,Distractor,0,63,63,63,1681.8454431220307,1683.8454087962164,left,1,3,1.2325941737508401,D17T06,2021_Oct_18_1005,t1_Paradigm,2021.1.4,59.95943319077199,
H,left,Lure,0,0,0,0,1689.1838124027709,1691.1808918227325,left,1,3,0.9528921730234288,D17T06,2021_Oct_18_1005,t1_Paradigm,2021.1.4,59.95943319077199,
B,left,Distractor,0,1,1,1,1692.679223171901,1694.6787294578971,left,1,3,0.4152597099891864,D17T06,2021_Oct_18_1005,t1_Paradigm,2021.1.4,59.95943319077199,
T,left,Distractor,0,2,2,2,1696.1792817182723,1698.1810836622608,left,1,3,0.481032109411899,D17T06,2021_Oct_18_1005,t1_Paradigm,2021.1.4,59.95943319077199,
R,left,Distractor,0,3,3,3,1699.6787050769199,1701.6809407450492,left,1,3,0.8528696848079562,D17T06,2021_Oct_18_1005,t1_Paradigm,2021.1.4,59.95943319077199,
H,left,Pretarget,0,4,4,4,1703.1786516634165,1705.1797459185473,left,1,3,1.1302647994598374,D17T06,2021_Oct_18_1005,t1_Paradigm,2021.1.4,59.95943319077199,
K,left,Distractor,0,5,5,5,1706.6795516730053,1708.6810061886208,left,1,3,0.6208953002351336,D17T06,2021_Oct_18_1005,t1_Paradigm,2021.1.4,59.95943319077199,
G,left,Distractor,0,6,6,6,1710.1784678439726,1712.1784659191617,left,1,3,0.6914101134170778,D17T06,2021_Oct_18_1005,t1_Paradigm,2021.1.4,59.95943319077199,
H,right,Target,0,7,7,7,1713.6793636831571,1715.6810324943508,right,1,3,0.6767985514597967,D17T06,2021_Oct_18_1005,t1_Paradigm,2021.1.4,59.95943319077199,
Y,left,Pretarget,0,8,8,8,1717.1787562448299,1719.1784691271605,left,1,3,0.7155151644255966,D17T06,2021_Oct_18_1005,t1_Paradigm,2021.1.4,59.95943319077199,
S,left,Distractor,0,9,9,9,1720.6791493875207,1722.680960313941,left,1,3,0.6689228661125526,D17T06,2021_Oct_18_1005,t1_Paradigm,2021.1.4,59.95943319077199,
P,left,Distractor,0,10,10,10,1724.179445006419,1726.1809803640353,left,1,3,1.2808552834321745,D17T06,2021_Oct_18_1005,t1_Paradigm,2021.1.4,59.95943319077199,
Y,right,Target,0,11,11,11,1727.678871252283,1729.6785225406638,right,1,3,0.5995010248152539,D17T06,2021_Oct_18_1005,t1_Paradigm,2021.1.4,59.95943319077199,
H,left,Lure,0,12,12,12,1731.1787450167467,1733.1785377787892,left,1,3,0.6353766165557317,D17T06,2021_Oct_18_1005,t1_Paradigm,2021.1.4,59.95943319077199,
Q,left,Distractor,0,13,13,13,1734.678813507955,1736.6806744795176,left,1,3,0.893040492606815,D17T06,2021_Oct_18_1005,t1_Paradigm,2021.1.4,59.95943319077199,
V,left,Pretarget,0,14,14,14,1738.1786587210372,1740.180825095973,None,0,3,,D17T06,2021_Oct_18_1005,t1_Paradigm,2021.1.4,59.95943319077199,
G,left,Distractor,0,15,15,15,1741.6787435731385,1743.6783698389772,None,0,3,,D17T06,2021_Oct_18_1005,t1_Paradigm,2021.1.4,59.95943319077199,
Z,left,Pretarget,0,16,16,16,1745.1794347407413,1747.1809431510628,left,1,3,1.0169351297081448,D17T06,2021_Oct_18_1005,t1_Paradigm,2021.1.4,59.95943319077199,
V,right,Target,0,17,17,17,1748.6784837236628,1750.6806263592443,left,0,3,0.9252294295001775,D17T06,2021_Oct_18_1005,t1_Paradigm,2021.1.4,59.95943319077199,
N,left,Distractor,0,18,18,18,1752.1786779692047,1754.1808578177588,left,1,3,0.656912365637254,D17T06,2021_Oct_18_1005,t1_Paradigm,2021.1.4,59.95943319077199,
Z,right,Target,0,19,19,19,1755.678649899026,1757.6808951911516,right,1,3,0.740948655991815,D17T06,2021_Oct_18_1005,t1_Paradigm,2021.1.4,59.95943319077199,
R,left,Distractor,0,20,20,20,1759.178834520455,1761.180584173766,left,1,3,0.6492968504317105,D17T06,2021_Oct_18_1005,t1_Paradigm,2021.1.4,59.95943319077199,
P,left,Distractor,0,21,21,21,1762.6787756533595,1764.678529277502,left,1,3,0.7194087365060113,D17T06,2021_Oct_18_1005,t1_Paradigm,2021.1.4,59.95943319077199,
Z,right,Target,0,22,22,22,1766.1794023397379,1768.1809264693293,right,1,3,0.6888286208850332,D17T06,2021_Oct_18_1005,t1_Paradigm,2021.1.4,59.95943319077199,
D,left,Pretarget,0,23,23,23,1769.6787243250292,1771.6802600034862,left,1,3,0.9336312299128622,D17T06,2021_Oct_18_1005,t1_Paradigm,2021.1.4,59.95943319077199,
K,left,Distractor,0,24,24,24,1773.179359031492,1775.180853968137,left,1,3,0.7928117287228815,D17T06,2021_Oct_18_1005,t1_Paradigm,2021.1.4,59.95943319077199,
W,left,Distractor,0,25,25,25,1776.6793107507983,1778.680787080957,None,0,3,,D17T06,2021_Oct_18_1005,t1_Paradigm,2021.1.4,59.95943319077199,
D,right,Target,0,26,26,26,1780.1792788310559,1782.1808591009467,right,1,3,0.5928876946563832,D17T06,2021_Oct_18_1005,t1_Paradigm,2021.1.4,59.95943319077199,
G,left,Pretarget,0,27,27,27,1783.678759613249,1785.680578880536,left,1,3,0.6453464964870363,D17T06,2021_Oct_18_1005,t1_Paradigm,2021.1.4,59.95943319077199,
V,left,Distractor,0,28,28,28,1787.178694009257,1789.1781951623852,left,1,3,1.2276127626537345,D17T06,2021_Oct_18_1005,t1_Paradigm,2021.1.4,59.95943319077199,
D,right,Target,0,29,29,29,1790.679308505205,1792.6809141184785,right,1,3,0.8130758192855865,D17T06,2021_Oct_18_1005,t1_Paradigm,2021.1.4,59.95943319077199,
G,right,Target,0,30,30,30,1794.178783833806,1796.1806024594698,left,0,3,1.0411749174818397,D17T06,2021_Oct_18_1005,t1_Paradigm,2021.1.4,59.95943319077199,
B,left,Pretarget,0,31,31,31,1797.6787098889472,1799.6797297180165,None,0,3,,D17T06,2021_Oct_18_1005,t1_Paradigm,2021.1.4,59.95943319077199,
N,left,Distractor,0,32,32,32,1801.1786006559269,1803.179751051357,left,1,3,0.7784067632746883,D17T06,2021_Oct_18_1005,t1_Paradigm,2021.1.4,59.95943319077199,
F,left,Distractor,0,33,33,33,1804.6792549312813,1806.681039231189,left,1,3,0.5407041408470832,D17T06,2021_Oct_18_1005,t1_Paradigm,2021.1.4,59.95943319077199,
B,right,Target,0,34,34,34,1808.1784229316982,1810.1783805858577,right,1,3,0.5155847143032588,D17T06,2021_Oct_18_1005,t1_Paradigm,2021.1.4,59.95943319077199,
Q,left,Pretarget,0,35,35,35,1811.6792225303361,1813.6810151710524,left,1,3,0.5968585799564607,D17T06,2021_Oct_18_1005,t1_Paradigm,2021.1.4,59.95943319077199,
S,left,Pretarget,0,36,36,36,1815.1784745808109,1817.1783796234522,left,1,3,0.7315366504481062,D17T06,2021_Oct_18_1005,t1_Paradigm,2021.1.4,59.95943319077199,
W,left,Distractor,0,37,37,37,1818.6787650668994,1820.6805859381566,left,1,3,0.9412088904646225,D17T06,2021_Oct_18_1005,t1_Paradigm,2021.1.4,59.95943319077199,
Q,right,Target,0,38,38,38,1822.1784938289202,1824.1809996121447,right,1,3,0.624835709342733,D17T06,2021_Oct_18_1005,t1_Paradigm,2021.1.4,59.95943319077199,
S,right,Target,0,39,39,39,1825.678670430323,1827.6808271812042,right,1,3,0.7250429794075899,D17T06,2021_Oct_18_1005,t1_Paradigm,2021.1.4,59.95943319077199,
T,left,Distractor,0,40,40,40,1829.1786327360896,1831.1807436122908,left,1,3,0.5369812353164889,D17T06,2021_Oct_18_1005,t1_Paradigm,2021.1.4,59.95943319077199,
G,left,Distractor,0,41,41,41,1832.6785944002913,1834.6798246753751,left,1,3,0.6699215222033672,D17T06,2021_Oct_18_1005,t1_Paradigm,2021.1.4,59.95943319077199,
D,left,Distractor,0,42,42,42,1836.1788589014322,1838.1796785501647,left,1,3,0.6580489665502682,D17T06,2021_Oct_18_1005,t1_Paradigm,2021.1.4,59.95943319077199,
S,left,Lure,0,43,43,43,1839.6794336179155,1841.680982770049,left,1,3,0.6772332380060107,D17T06,2021_Oct_18_1005,t1_Paradigm,2021.1.4,59.95943319077199,
Z,left,Pretarget,0,44,44,44,1843.1787475831807,1845.180386559805,left,1,3,0.5373463078285567,D17T06,2021_Oct_18_1005,t1_Paradigm,2021.1.4,59.95943319077199,
J,left,Distractor,0,45,45,45,1846.6788420593366,1848.6807242037612,left,1,3,0.5890961375553161,D17T06,2021_Oct_18_1005,t1_Paradigm,2021.1.4,59.95943319077199,
M,left,Pretarget,0,46,46,46,1850.1786141296034,1852.18031887064,left,1,3,0.7055340564693324,D17T06,2021_Oct_18_1005,t1_Paradigm,2021.1.4,59.95943319077199,
Z,right,Target,0,47,47,47,1853.6786399541306,1855.6808352012304,right,1,3,1.284989136038348,D17T06,2021_Oct_18_1005,t1_Paradigm,2021.1.4,59.95943319077199,
P,left,Distractor,0,48,48,48,1857.1793365753838,1859.1808068102691,None,0,3,,D17T06,2021_Oct_18_1005,t1_Paradigm,2021.1.4,59.95943319077199,
M,right,Target,0,49,49,49,1860.6786377085373,1862.6808162739035,right,1,3,0.684982527513057,D17T06,2021_Oct_18_1005,t1_Paradigm,2021.1.4,59.95943319077199,
K,left,Distractor,0,50,50,50,1864.179326309706,1866.1808966347598,left,1,3,1.0089725069701672,D17T06,2021_Oct_18_1005,t1_Paradigm,2021.1.4,59.95943319077199,
Y,left,Distractor,0,51,51,51,1867.6786771671614,1869.6805660484824,left,1,3,1.2371684873942286,D17T06,2021_Oct_18_1005,t1_Paradigm,2021.1.4,59.95943319077199,
X,left,Distractor,0,52,52,52,1871.1785990518983,1873.1809312813566,left,1,3,0.7289291730849072,D17T06,2021_Oct_18_1005,t1_Paradigm,2021.1.4,59.95943319077199,
F,left,Pretarget,0,53,53,53,1874.6785873426707,1876.6781747914501,left,1,3,1.247803068778012,D17T06,2021_Oct_18_1005,t1_Paradigm,2021.1.4,59.95943319077199,
M,left,Lure,0,54,54,54,1878.1793125152471,1880.180842098489,None,0,3,,D17T06,2021_Oct_18_1005,t1_Paradigm,2021.1.4,59.95943319077199,
V,left,Distractor,0,55,55,55,1881.6787637836533,1883.6784474730375,left,1,3,0.8392699319520034,D17T06,2021_Oct_18_1005,t1_Paradigm,2021.1.4,59.95943319077199,
F,right,Target,0,56,56,56,1885.1786564754439,1887.1795274524484,right,1,3,0.6823657468194142,D17T06,2021_Oct_18_1005,t1_Paradigm,2021.1.4,59.95943319077199,
S,left,Distractor,0,57,57,57,1888.6785299191251,1890.6808236523648,left,1,3,0.5409084915881976,D17T06,2021_Oct_18_1005,t1_Paradigm,2021.1.4,59.95943319077199,
D,left,Distractor,0,58,58,58,1892.179391111713,1894.1808911811677,left,1,3,0.9613398481742479,D17T06,2021_Oct_18_1005,t1_Paradigm,2021.1.4,59.95943319077199,
F,right,Target,0,59,59,59,1895.6793184501003,1897.6783653477905,right,1,3,0.9836885090917349,D17T06,2021_Oct_18_1005,t1_Paradigm,2021.1.4,59.95943319077199,
V,left,Pretarget,0,60,60,60,1899.1793808460352,1901.1783510720707,left,1,3,0.7155729087535292,D17T06,2021_Oct_18_1005,t1_Paradigm,2021.1.4,59.95943319077199,
J,left,Distractor,0,61,61,61,1902.6791551619535,1904.6809673715616,left,1,3,0.9887382510351017,D17T06,2021_Oct_18_1005,t1_Paradigm,2021.1.4,59.95943319077199,
V,left,Lure,0,62,62,62,1906.1793481242494,1908.1807445746963,left,1,3,1.04101868707221,D17T06,2021_Oct_18_1005,t1_Paradigm,2021.1.4,59.95943319077199,
V,right,Target,0,63,63,63,1909.678464154771,1911.678706360166,None,0,3,,D17T06,2021_Oct_18_1005,t1_Paradigm,2021.1.4,59.95943319077199,
R,left,Distractor,0,0,0,0,2020.7875909994473,2022.7805311131524,left,1,4,0.3616447382955812,D17T06,2021_Oct_18_1005,t1_Paradigm,2021.1.4,59.95943319077199,
F,left,Distractor,0,1,1,1,2024.279389218951,2026.2807288874756,left,1,4,0.46105770295253024,D17T06,2021_Oct_18_1005,t1_Paradigm,2021.1.4,59.95943319077199,
P,left,Pretarget,0,2,2,2,2027.7783002570504,2029.7780875654425,left,1,4,0.5157643632846884,D17T06,2021_Oct_18_1005,t1_Paradigm,2021.1.4,59.95943319077199,
H,left,Distractor,0,3,3,3,2031.2792252892395,2033.2783430841519,left,1,4,0.47137693606782705,D17T06,2021_Oct_18_1005,t1_Paradigm,2021.1.4,59.95943319077199,
Z,left,Distractor,0,4,4,4,2034.7789646377205,2036.780720707029,left,1,4,0.6168974675820209,D17T06,2021_Oct_18_1005,t1_Paradigm,2021.1.4,59.95943319077199,
T,left,Distractor,0,5,5,5,2038.2784284173977,2040.280885438784,left,1,4,0.668717232067138,D17T06,2021_Oct_18_1005,t1_Paradigm,2021.1.4,59.95943319077199,
P,right,Target,0,6,6,6,2041.7783204676234,2043.7802212185343,right,1,4,0.5776508899289183,D17T06,2021_Oct_18_1005,t1_Paradigm,2021.1.4,59.95943319077199,
G,left,Distractor,0,7,7,7,2045.2785804775194,2047.2804353538086,left,1,4,0.789210086397361,D17T06,2021_Oct_18_1005,t1_Paradigm,2021.1.4,59.95943319077199,
L,left,Distractor,0,8,8,8,2048.7784895301447,2050.778402272088,left,1,4,0.8754050524439663,D17T06,2021_Oct_18_1005,t1_Paradigm,2021.1.4,59.95943319077199,
P,left,Lure,0,9,9,9,2052.279256406997,2054.280694561661,left,1,4,1.0689800971304066,D17T06,2021_Oct_18_1005,t1_Paradigm,2021.1.4,59.95943319077199,
Q,left,Pretarget,0,10,10,10,2055.778531555203,2057.78065558424,left,1,4,1.1050006913137622,D17T06,2021_Oct_18_1005,t1_Paradigm,2021.1.4,59.95943319077199,
D,left,Distractor,0,11,11,11,2059.278538131679,2061.2809637144674,None,0,4,,D17T06,2021_Oct_18_1005,t1_Paradigm,2021.1.4,59.95943319077199,
M,left,Pretarget,0,12,12,12,2062.778517119121,2064.7794971687836,None,0,4,,D17T06,2021_Oct_18_1005,t1_Paradigm,2021.1.4,59.95943319077199,
C,left,Distractor,0,13,13,13,2066.278450231941,2068.2796429732116,None,0,4,,D17T06,2021_Oct_18_1005,t1_Paradigm,2021.1.4,59.95943319077199,
Q,right,Target,0,14,14,14,2069.7785148735275,2071.778318221972,right,1,4,1.2675522722420283,D17T06,2021_Oct_18_1005,t1_Paradigm,2021.1.4,59.95943319077199,
R,left,Distractor,0,15,15,15,2073.2792897704057,2075.2804064816446,left,1,4,0.8372520883567631,D17T06,2021_Oct_18_1005,t1_Paradigm,2021.1.4,59.95943319077199,
M,right,Target,0,16,16,16,2076.778544066474,2078.7803941307357,right,1,4,0.4735176468384452,D17T06,2021_Oct_18_1005,t1_Paradigm,2021.1.4,59.95943319077199,
S,left,Distractor,0,17,17,17,2080.2790828531724,2082.280606982764,left,1,4,0.6691422945586964,D17T06,2021_Oct_18_1005,t1_Paradigm,2021.1.4,59.95943319077199,
Z,left,Distractor,0,18,18,18,2083.7785354048247,2085.7782267934526,left,1,4,1.1394159930641763,D17T06,2021_Oct_18_1005,t1_Paradigm,2021.1.4,59.95943319077199,
L,left,Pretarget,0,19,19,19,2087.278629560198,2089.2803310931777,left,1,4,1.3814343627891503,D17T06,2021_Oct_18_1005,t1_Paradigm,2021.1.4,59.95943319077199,
M,right,Target,0,20,20,20,2090.779112206539,2092.78067515319,left,0,4,1.2729751067236066,D17T06,2021_Oct_18_1005,t1_Paradigm,2021.1.4,59.95943319077199,
P,left,Distractor,0,21,21,21,2094.2784434951027,2096.2778067034087,left,1,4,0.7199149618390948,D17T06,2021_Oct_18_1005,t1_Paradigm,2021.1.4,59.95943319077199,
F,left,Distractor,0,22,22,22,2097.779268437065,2099.780837478931,left,1,4,0.6408427592832595,D17T06,2021_Oct_18_1005,t1_Paradigm,2021.1.4,59.95943319077199,
L,right,Target,0,23,23,23,2101.278315815958,2103.278794452315,right,1,4,0.4707571468898095,D17T06,2021_Oct_18_1005,t1_Paradigm,2021.1.4,59.95943319077199,
L,left,Lure,0,24,24,24,2104.7785065326607,2106.778824447305,left,1,4,0.9228182827937417,D17T06,2021_Oct_18_1005,t1_Paradigm,2021.1.4,59.95943319077199,
V,left,Pretarget,0,25,25,25,2108.279053018603,2110.280719263421,left,1,4,0.7168448881711811,D17T06,2021_Oct_18_1005,t1_Paradigm,2021.1.4,59.95943319077199,
Z,left,Distractor,0,26,26,26,2111.7783008986735,2113.780672586756,left,1,4,0.7369254799559712,D17T06,2021_Oct_18_1005,t1_Paradigm,2021.1.4,59.95943319077199,
H,left,Distractor,0,27,27,27,2115.2784059612895,2117.279646502051,left,1,4,0.7899960508802906,D17T06,2021_Oct_18_1005,t1_Paradigm,2021.1.4,59.95943319077199,
X,left,Distractor,0,28,28,28,2118.7785241767415,2120.7806610378902,left,1,4,0.569149961695075,D17T06,2021_Oct_18_1005,t1_Paradigm,2021.1.4,59.95943319077199,
V,right,Target,0,29,29,29,2122.2784297006438,2124.2802528175525,left,0,4,0.909422559896484,D17T06,2021_Oct_18_1005,t1_Paradigm,2021.1.4,59.95943319077199,
C,left,Distractor,0,30,30,30,2125.7791673844913,2127.780736426357,None,0,4,,D17T06,2021_Oct_18_1005,t1_Paradigm,2021.1.4,59.95943319077199,
S,left,Pretarget,0,31,31,31,2129.2785281867837,2131.28062398528,left,1,4,0.9490496084908955,D17T06,2021_Oct_18_1005,t1_Paradigm,2021.1.4,59.95943319077199,
D,left,Distractor,0,32,32,32,2132.7792055599275,2134.780777168169,left,1,4,0.8728569233207963,D17T06,2021_Oct_18_1005,t1_Paradigm,2021.1.4,59.95943319077199,
V,left,Distractor,0,33,33,33,2136.278429379803,2138.2781085780007,right,0,4,0.7355771497823298,D17T06,2021_Oct_18_1005,t1_Paradigm,2021.1.4,59.95943319077199,
R,left,Distractor,0,34,34,34,2139.7791144521907,2141.780721348652,left,1,4,0.5610118603799492,D17T06,2021_Oct_18_1005,t1_Paradigm,2021.1.4,59.95943319077199,
S,right,Target,0,35,35,35,2143.2783915252076,2145.280469038,right,1,4,0.5972265396849252,D17T06,2021_Oct_18_1005,t1_Paradigm,2021.1.4,59.95943319077199,
Y,left,Distractor,0,36,36,36,2146.778405800869,2148.7796463416307,left,1,4,0.6179144094348885,D17T06,2021_Oct_18_1005,t1_Paradigm,2021.1.4,59.95943319077199,
N,left,Pretarget,0,37,37,37,2150.278522412351,2152.2808129375917,left,1,4,0.5888414208893664,D17T06,2021_Oct_18_1005,t1_Paradigm,2021.1.4,59.95943319077199,
Z,left,Pretarget,0,38,38,38,2153.7784000264364,2155.7793499207473,left,1,4,0.6422619866789319,D17T06,2021_Oct_18_1005,t1_Paradigm,2021.1.4,59.95943319077199,
P,left,Pretarget,0,39,39,39,2157.278991424653,2159.280582601845,left,1,4,1.1250809623743407,D17T06,2021_Oct_18_1005,t1_Paradigm,2021.1.4,59.95943319077199,
M,left,Distractor,0,40,40,40,2160.7791237554047,2162.780627353699,left,1,4,0.8569830061751418,D17T06,2021_Oct_18_1005,t1_Paradigm,2021.1.4,59.95943319077199,
N,right,Target,0,41,41,41,2164.2784973898088,2166.280595754739,left,0,4,0.6849491641623899,D17T06,2021_Oct_18_1005,t1_Paradigm,2021.1.4,59.95943319077199,
Z,right,Target,0,42,42,42,2167.7791112441337,2169.780677398783,right,1,4,0.5614131835172884,D17T06,2021_Oct_18_1005,t1_Paradigm,2021.1.4,59.95943319077199,
P,right,Target,0,43,43,43,2171.2792451789137,2173.2807689877227,right,1,4,1.0449404896935448,D17T06,2021_Oct_18_1005,t1_Paradigm,2021.1.4,59.95943319077199,
X,left,Pretarget,0,44,44,44,2174.7782444375334,2176.778144988988,None,0,4,,D17T06,2021_Oct_18_1005,t1_Paradigm,2021.1.4,59.95943319077199,
Z,left,Lure,0,45,45,45,2178.278988537437,2180.280617569224,left,1,4,0.8929522720864043,D17T06,2021_Oct_18_1005,t1_Paradigm,2021.1.4,59.95943319077199,
R,left,Pretarget,0,46,46,46,2181.7784420514945,2183.779919023218,left,1,4,0.6097227341379039,D17T06,2021_Oct_18_1005,t1_Paradigm,2021.1.4,59.95943319077199,
K,left,Distractor,0,47,47,47,2185.2784887281596,2187.2794572289567,None,0,4,,D17T06,2021_Oct_18_1005,t1_Paradigm,2021.1.4,59.95943319077199,
X,right,Target,0,48,48,48,2188.7784224826028,2190.7806032935623,right,1,4,1.0329723350005224,D17T06,2021_Oct_18_1005,t1_Paradigm,2021.1.4,59.95943319077199,
B,left,Distractor,0,49,49,49,2192.2783665026654,2194.2780120166135,left,1,4,0.6556342910043895,D17T06,2021_Oct_18_1005,t1_Paradigm,2021.1.4,59.95943319077199,
R,right,Target,0,50,50,50,2195.779291855579,2197.7806369777536,left,0,4,0.8649703306728043,D17T06,2021_Oct_18_1005,t1_Paradigm,2021.1.4,59.95943319077199,
Y,left,Pretarget,0,51,51,51,2199.2783758059377,2201.278010412585,left,1,4,0.7435920632560737,D17T06,2021_Oct_18_1005,t1_Paradigm,2021.1.4,59.95943319077199,
W,left,Pretarget,0,52,52,52,2202.779006983561,2204.7807617696817,left,1,4,0.6329333896865137,D17T06,2021_Oct_18_1005,t1_Paradigm,2021.1.4,59.95943319077199,
Z,left,Distractor,0,53,53,53,2206.278514713107,2208.280508496624,left,1,4,0.6050666160881519,D17T06,2021_Oct_18_1005,t1_Paradigm,2021.1.4,59.95943319077199,
Q,left,Distractor,0,54,54,54,2209.778177069151,2211.778299936268,left,1,4,0.8675797328469343,D17T06,2021_Oct_18_1005,t1_Paradigm,2021.1.4,59.95943319077199,
Y,right,Target,0,55,55,55,2213.2791367478785,2215.2804825116764,left,0,4,1.3492078920826316,D17T06,2021_Oct_18_1005,t1_Paradigm,2021.1.4,59.95943319077199,
W,right,Target,0,56,56,56,2216.778436597844,2218.779522512108,right,1,4,0.8739976946962997,D17T06,2021_Oct_18_1005,t1_Paradigm,2021.1.4,59.95943319077199,
H,left,Pretarget,0,57,57,57,2220.278321590391,2222.2779799364507,left,1,4,1.071711724915076,D17T06,2021_Oct_18_1005,t1_Paradigm,2021.1.4,59.95943319077199,
M,left,Distractor,0,58,58,58,2223.7790900712134,2225.780486842501,left,1,4,1.105082495836541,D17T06,2021_Oct_18_1005,t1_Paradigm,2021.1.4,59.95943319077199,
R,left,Pretarget,0,59,59,59,2227.278278923768,2229.2779988637194,None,0,4,,D17T06,2021_Oct_18_1005,t1_Paradigm,2021.1.4,59.95943319077199,
J,left,Distractor,0,60,60,60,2230.7784359562793,2232.7803684666287,left,1,4,0.6813468801556155,D17T06,2021_Oct_18_1005,t1_Paradigm,2021.1.4,59.95943319077199,
H,right,Target,0,61,61,61,2234.2783507833956,2236.2779825028265,right,1,4,0.5916590236010961,D17T06,2021_Oct_18_1005,t1_Paradigm,2021.1.4,59.95943319077199,
Z,left,Distractor,0,62,62,62,2237.778847545036,2239.780215123319,left,1,4,0.8014249376719818,D17T06,2021_Oct_18_1005,t1_Paradigm,2021.1.4,59.95943319077199,
R,right,Target,0,63,63,63,2241.278233049088,2243.279113329365,left,0,4,1.1108514755032957,D17T06,2021_Oct_18_1005,t1_Paradigm,2021.1.4,59.95943319077199,
J,left,Pretarget,0,0,0,0,2251.903859855782,2253.894764160912,left,1,4,0.3670130363898352,D17T06,2021_Oct_18_1005,t1_Paradigm,2021.1.4,59.95943319077199,
G,left,Pretarget,0,1,1,1,2255.3954825967085,2257.39698202454,left,1,4,0.3526600407785736,D17T06,2021_Oct_18_1005,t1_Paradigm,2021.1.4,59.95943319077199,
Z,left,Distractor,0,2,2,2,2258.894953113224,2260.895879588963,left,1,4,0.3736420858767815,D17T06,2021_Oct_18_1005,t1_Paradigm,2021.1.4,59.95943319077199,
F,left,Distractor,0,3,3,3,2262.3949385167216,2264.397166485607,left,1,4,0.4243412895593792,D17T06,2021_Oct_18_1005,t1_Paradigm,2021.1.4,59.95943319077199,
J,right,Target,0,4,4,4,2265.8949980254984,2267.896099659032,right,1,4,0.637412745913025,D17T06,2021_Oct_18_1005,t1_Paradigm,2021.1.4,59.95943319077199,
G,right,Target,0,5,5,5,2269.394946536806,2271.3959949172568,right,1,4,0.44948413455858827,D17T06,2021_Oct_18_1005,t1_Paradigm,2021.1.4,59.95943319077199,
H,left,Distractor,0,6,6,6,2272.8950557698263,2274.897170495591,left,1,4,0.6762355442624539,D17T06,2021_Oct_18_1005,t1_Paradigm,2021.1.4,59.95943319077199,
P,left,Distractor,0,7,7,7,2276.394970917725,2278.3969849117566,left,1,4,0.6647396099288017,D17T06,2021_Oct_18_1005,t1_Paradigm,2021.1.4,59.95943319077199,
G,left,Lure,0,8,8,8,2279.895086566801,2281.8968862651964,left,1,4,1.084708049427718,D17T06,2021_Oct_18_1005,t1_Paradigm,2021.1.4,59.95943319077199,
S,left,Distractor,0,9,9,9,2283.395037323702,2285.396726024628,left,1,4,0.9129379065707326,D17T06,2021_Oct_18_1005,t1_Paradigm,2021.1.4,59.95943319077199,
R,left,Pretarget,0,10,10,10,2286.894977494143,2288.8962363206083,left,1,4,0.8052694270154461,D17T06,2021_Oct_18_1005,t1_Paradigm,2021.1.4,59.95943319077199,
T,left,Pretarget,0,11,11,11,2290.395775809593,2292.394728070707,left,1,4,0.6671276589040644,D17T06,2021_Oct_18_1005,t1_Paradigm,2021.1.4,59.95943319077199,
X,left,Distractor,0,12,12,12,2293.895709563978,2295.897124941752,left,1,4,0.5563538175192662,D17T06,2021_Oct_18_1005,t1_Paradigm,2021.1.4,59.95943319077199,
F,left,Pretarget,0,13,13,13,2297.394980862562,2299.3960571527714,left,1,4,0.6414169946219772,D17T06,2021_Oct_18_1005,t1_Paradigm,2021.1.4,59.95943319077199,
R,right,Target,0,14,14,14,2300.895041975309,2302.8947035293677,None,0,4,,D17T06,2021_Oct_18_1005,t1_Paradigm,2021.1.4,59.95943319077199,
T,right,Target,0,15,15,15,2304.395591990091,2306.397204981826,right,1,4,0.8243369266274385,D17T06,2021_Oct_18_1005,t1_Paradigm,2021.1.4,59.95943319077199,
C,left,Distractor,0,16,16,16,2307.895638025191,2309.894747800019,left,1,4,0.5748316832468845,D17T06,2021_Oct_18_1005,t1_Paradigm,2021.1.4,59.95943319077199,
F,right,Target,0,17,17,17,2311.3950841607875,2313.3946173940785,left,0,4,0.787021576135885,D17T06,2021_Oct_18_1005,t1_Paradigm,2021.1.4,59.95943319077199,
M,left,Distractor,0,18,18,18,2314.8957531930646,2316.8973328213324,left,1,4,0.900162935256958,D17T06,2021_Oct_18_1005,t1_Paradigm,2021.1.4,59.95943319077199,
N,left,Distractor,0,19,19,19,2318.394772020576,2320.394768170954,left,1,4,0.6348017396521755,D17T06,2021_Oct_18_1005,t1_Paradigm,2021.1.4,59.95943319077199,
R,left,Lure,0,20,20,20,2321.89566240611,2323.8973912072834,left,1,4,0.7806539802695625,D17T06,2021_Oct_18_1005,t1_Paradigm,2021.1.4,59.95943319077199,
F,right,Target,0,21,21,21,2325.3949009829084,2327.394675459247,left,0,4,0.7388512534671463,D17T06,2021_Oct_18_1005,t1_Paradigm,2021.1.4,59.95943319077199,
P,left,Distractor,0,22,22,22,2328.8949563212227,2330.8960499347304,left,1,4,1.1254495637258515,D17T06,2021_Oct_18_1005,t1_Paradigm,2021.1.4,59.95943319077199,
L,left,Pretarget,0,23,23,23,2332.395014225971,2334.3959108671406,left,1,4,1.4657333898940124,D17T06,2021_Oct_18_1005,t1_Paradigm,2021.1.4,59.95943319077199,
T,left,Distractor,0,24,24,24,2335.8950868875836,2337.895798746904,left,1,4,0.8775967707042582,D17T06,2021_Oct_18_1005,t1_Paradigm,2021.1.4,59.95943319077199,
F,left,Distractor,0,25,25,25,2339.3948859052616,2341.39470753941,right,0,4,0.867280424805358,D17T06,2021_Oct_18_1005,t1_Paradigm,2021.1.4,59.95943319077199,
V,left,Distractor,0,26,26,26,2342.8955469174543,2344.896731317858,left,1,4,0.6767215590807609,D17T06,2021_Oct_18_1005,t1_Paradigm,2021.1.4,59.95943319077199,
L,right,Target,0,27,27,27,2346.39571870683,2348.397241874016,right,1,4,0.6163200242444873,D17T06,2021_Oct_18_1005,t1_Paradigm,2021.1.4,59.95943319077199,
S,left,Pretarget,0,28,28,28,2349.895064110693,2351.8964910372742,left,1,4,0.6049745459458791,D17T06,2021_Oct_18_1005,t1_Paradigm,2021.1.4,59.95943319077199,
W,left,Distractor,0,29,29,29,2353.3949936946738,2355.3959731027135,left,1,4,0.8817216408788227,D17T06,2021_Oct_18_1005,t1_Paradigm,2021.1.4,59.95943319077199,
Q,left,Distractor,0,30,30,30,2356.8956842206535,2358.8971554179443,left,1,4,1.1243976544355974,D17T06,2021_Oct_18_1005,t1_Paradigm,2021.1.4,59.95943319077199,
L,right,Target,0,31,31,31,2360.3949423663435,2362.397155257524,right,1,4,0.8243526459555142,D17T06,2021_Oct_18_1005,t1_Paradigm,2021.1.4,59.95943319077199,
S,right,Target,0,32,32,32,2363.894884782436,2365.8960743157077,left,0,4,0.5733861501794308,D17T06,2021_Oct_18_1005,t1_Paradigm,2021.1.4,59.95943319077199,
Z,left,Pretarget,0,33,33,33,2367.394919589453,2369.395769072755,left,1,4,0.4978831890039146,D17T06,2021_Oct_18_1005,t1_Paradigm,2021.1.4,59.95943319077199,
F,left,Distractor,0,34,34,34,2370.89492424106,2372.8961076790583,left,1,4,0.7415238537359983,D17T06,2021_Oct_18_1005,t1_Paradigm,2021.1.4,59.95943319077199,
V,left,Distractor,0,35,35,35,2374.3955226968974,2376.397128310171,left,1,4,0.6647149081691168,D17T06,2021_Oct_18_1005,t1_Paradigm,2021.1.4,59.95943319077199,
M,left,Distractor,0,36,36,36,2377.895629363542,2379.8968772827066,left,1,4,1.0045858624507673,D17T06,2021_Oct_18_1005,t1_Paradigm,2021.1.4,59.95943319077199,
Z,right,Target,0,37,37,37,2381.394939479127,2383.3942641912727,left,0,4,1.0272588540101424,D17T06,2021_Oct_18_1005,t1_Paradigm,2021.1.4,59.95943319077199,
H,left,Pretarget,0,38,38,38,2384.895567769592,2386.8971377738053,left,1,4,0.5164688442018814,D17T06,2021_Oct_18_1005,t1_Paradigm,2021.1.4,59.95943319077199,
L,left,Distractor,0,39,39,39,2388.394894566911,2390.3973073175875,left,1,4,0.808241656224709,D17T06,2021_Oct_18_1005,t1_Paradigm,2021.1.4,59.95943319077199,
G,left,Distractor,0,40,40,40,2391.8949810229824,2393.8945511485217,left,1,4,0.6710677472874522,D17T06,2021_Oct_18_1005,t1_Paradigm,2021.1.4,59.95943319077199,
K,left,Distractor,0,41,41,41,2395.3956311279326,2397.397304751212,left,1,4,0.640258899948094,D17T06,2021_Oct_18_1005,t1_Paradigm,2021.1.4,59.95943319077199,
H,right,Target,0,42,42,42,2398.895649894839,2400.897132320213,right,1,4,0.7243195712799206,D17T06,2021_Oct_18_1005,t1_Paradigm,2021.1.4,59.95943319077199,
B,left,Distractor,0,43,43,43,2402.394720050681,2404.39434278768,left,1,4,0.6675341149093583,D17T06,2021_Oct_18_1005,t1_Paradigm,2021.1.4,59.95943319077199,
Z,left,Distractor,0,44,44,44,2405.895636741945,2407.896786816593,left,1,4,0.6206569444620982,D17T06,2021_Oct_18_1005,t1_Paradigm,2021.1.4,59.95943319077199,
T,left,Pretarget,0,45,45,45,2409.3949102861807,2411.3944111185265,left,1,4,0.6911092012887821,D17T06,2021_Oct_18_1005,t1_Paradigm,2021.1.4,59.95943319077199,
H,right,Target,0,46,46,46,2412.8957445314154,2414.894918466627,left,0,4,0.9987681208876893,D17T06,2021_Oct_18_1005,t1_Paradigm,2021.1.4,59.95943319077199,
F,left,Distractor,0,47,47,47,2416.395674115396,2418.3968004506896,left,1,4,0.6969811583403498,D17T06,2021_Oct_18_1005,t1_Paradigm,2021.1.4,59.95943319077199,
R,left,Distractor,0,48,48,48,2419.8948594391113,2421.8962122604717,left,1,4,1.357408229028806,D17T06,2021_Oct_18_1005,t1_Paradigm,2021.1.4,59.95943319077199,
T,right,Target,0,49,49,49,2423.3956266366877,2425.397134405386,right,1,4,0.9284637537202798,D17T06,2021_Oct_18_1005,t1_Paradigm,2021.1.4,59.95943319077199,
H,right,Target,0,50,50,50,2426.8948032987537,2428.8942576147965,right,1,4,0.8552429769188166,D17T06,2021_Oct_18_1005,t1_Paradigm,2021.1.4,59.95943319077199,
Y,left,Pretarget,0,51,51,51,2430.3956429975806,2432.39710007963,left,1,4,0.6004775456385687,D17T06,2021_Oct_18_1005,t1_Paradigm,2021.1.4,59.95943319077199,
H,left,Distractor,0,52,52,52,2433.8955751479953,2435.8971262249397,left,1,4,1.068452378094662,D17T06,2021_Oct_18_1005,t1_Paradigm,2021.1.4,59.95943319077199,
S,left,Distractor,0,53,53,53,2437.3949969026726,2439.3965226362925,left,1,4,0.7850569856236689,D17T06,2021_Oct_18_1005,t1_Paradigm,2021.1.4,59.95943319077199,
Q,left,Distractor,0,54,54,54,2440.8949415643583,2442.896540761576,left,1,4,0.740928445418831,D17T06,2021_Oct_18_1005,t1_Paradigm,2021.1.4,59.95943319077199,
Y,right,Target,0,55,55,55,2444.3948926421,2446.3960783256916,right,1,4,0.7295091827982105,D17T06,2021_Oct_18_1005,t1_Paradigm,2021.1.4,59.95943319077199,
R,left,Distractor,0,56,56,56,2447.894904672168,2449.8958799097454,left,1,4,0.7977549645002,D17T06,2021_Oct_18_1005,t1_Paradigm,2021.1.4,59.95943319077199,
H,left,Pretarget,0,57,57,57,2451.394932100724,2453.397277483018,left,1,4,0.9123495559906587,D17T06,2021_Oct_18_1005,t1_Paradigm,2021.1.4,59.95943319077199,
J,left,Distractor,0,58,58,58,2454.8949293738697,2456.897163758753,left,1,4,0.9004529401427135,D17T06,2021_Oct_18_1005,t1_Paradigm,2021.1.4,59.95943319077199,
V,left,Distractor,0,59,59,59,2458.3948425970157,2460.3946286221617,left,1,4,1.0831746166222729,D17T06,2021_Oct_18_1005,t1_Paradigm,2021.1.4,59.95943319077199,
Y,left,Lure,0,60,60,60,2461.8950461457716,2463.896705012128,right,0,4,0.8928255553473718,D17T06,2021_Oct_18_1005,t1_Paradigm,2021.1.4,59.95943319077199,
H,right,Target,0,61,61,61,2465.394801534363,2467.3970420144615,right,1,4,0.9445946331834421,D17T06,2021_Oct_18_1005,t1_Paradigm,2021.1.4,59.95943319077199,
L,left,Distractor,0,62,62,62,2468.8948466069996,2470.8941976248752,left,1,4,0.5676579123246484,D17T06,2021_Oct_18_1005,t1_Paradigm,2021.1.4,59.95943319077199,
P,left,Distractor,0,63,63,63,2472.395485483925,2474.3971915081493,left,1,4,0.8562281594495289,D17T06,2021_Oct_18_1005,t1_Paradigm,2021.1.4,59.95943319077199,
