Letter,CorrAnswer,Stimulus,nback_run.thisRepN,nback_run.thisTrialN,nback_run.thisN,nback_run.thisIndex,fixcross.started,nback_trial.started,trial_resp.keys,trial_resp.corr,currentlevel,trial_resp.rt,Participant,date,expName,psychopyVersion,frameRate,
H,left,Distractor,0,0,0,0,100.33762299153022,102.32951504032826,None,0,1,,E12K08_neu,2021_Oct_07_1317,t1_Paradigm,2021.1.4,60.015267637035834,
Q,left,Pretarget,0,1,1,1,103.82590489438735,105.83018118579639,left,1,1,0.7421845401404426,E12K08_neu,2021_Oct_07_1317,t1_Paradigm,2021.1.4,60.015267637035834,
Q,right,Target,0,2,2,2,107.32544277905254,109.32552169635892,right,1,1,0.6866322103887796,E12K08_neu,2021_Oct_07_1317,t1_Paradigm,2021.1.4,60.015267637035834,
T,left,Distractor,0,3,3,3,110.82536434294889,112.82732283946825,left,1,1,0.5450763781554997,E12K08_neu,2021_Oct_07_1317,t1_Paradigm,2021.1.4,60.015267637035834,
Q,left,Lure,0,4,4,4,114.32601733552292,116.32756039337255,left,1,1,0.5326902107917704,E12K08_neu,2021_Oct_07_1317,t1_Paradigm,2021.1.4,60.015267637035834,
L,left,Distractor,0,5,5,5,117.82536273892038,119.82792819297174,left,1,1,0.5523268254473805,E12K08_neu,2021_Oct_07_1317,t1_Paradigm,2021.1.4,60.015267637035834,
V,left,Pretarget,0,6,6,6,121.3260917615844,123.3280521829729,left,1,1,0.6040952948969789,E12K08_neu,2021_Oct_07_1317,t1_Paradigm,2021.1.4,60.015267637035834,
V,right,Target,0,7,7,7,124.8254759820411,126.82542433292838,right,1,1,0.7386826648726128,E12K08_neu,2021_Oct_07_1317,t1_Paradigm,2021.1.4,60.015267637035834,
K,left,Distractor,0,8,8,8,128.3253895259113,130.3291271906346,left,1,1,0.38752022257540375,E12K08_neu,2021_Oct_07_1317,t1_Paradigm,2021.1.4,60.015267637035834,
G,left,Pretarget,0,9,9,9,131.82550613745116,133.827272152761,left,1,1,0.6329633095301688,E12K08_neu,2021_Oct_07_1317,t1_Paradigm,2021.1.4,60.015267637035834,
G,right,Target,0,10,10,10,135.32589061866747,137.32575267378706,right,1,1,0.5584695431753062,E12K08_neu,2021_Oct_07_1317,t1_Paradigm,2021.1.4,60.015267637035834,
G,right,Target,0,11,11,11,138.82603706483496,140.82562194694765,right,1,1,0.8668395575950854,E12K08_neu,2021_Oct_07_1317,t1_Paradigm,2021.1.4,60.015267637035834,
P,left,Pretarget,0,12,12,12,142.32604749087477,144.32896069437265,left,1,1,0.6273415742907673,E12K08_neu,2021_Oct_07_1317,t1_Paradigm,2021.1.4,60.015267637035834,
P,right,Target,0,13,13,13,145.8259773956379,147.82556420261972,right,1,1,0.7632852953393012,E12K08_neu,2021_Oct_07_1317,t1_Paradigm,2021.1.4,60.015267637035834,
G,left,Lure,0,14,14,14,149.32600771146826,151.3274965537712,left,1,1,0.8127834486658685,E12K08_neu,2021_Oct_07_1317,t1_Paradigm,2021.1.4,60.015267637035834,
Y,left,Distractor,0,15,15,15,152.8259215761209,154.8305260480265,left,1,1,0.7656832907232456,E12K08_neu,2021_Oct_07_1317,t1_Paradigm,2021.1.4,60.015267637035834,
B,left,Distractor,0,16,16,16,156.3260125234956,158.32705192215508,left,1,1,0.8533267333405092,E12K08_neu,2021_Oct_07_1317,t1_Paradigm,2021.1.4,60.015267637035834,
T,left,Pretarget,0,17,17,17,159.82590329035884,161.82752205757424,left,1,1,0.8247102275490761,E12K08_neu,2021_Oct_07_1317,t1_Paradigm,2021.1.4,60.015267637035834,
T,right,Target,0,18,18,18,163.3254774256493,165.325437966967,right,1,1,0.7507775439880788,E12K08_neu,2021_Oct_07_1317,t1_Paradigm,2021.1.4,60.015267637035834,
S,left,Distractor,0,19,19,19,166.82534284918802,168.8288559524808,left,1,1,0.6393645937787369,E12K08_neu,2021_Oct_07_1317,t1_Paradigm,2021.1.4,60.015267637035834,
T,left,Lure,0,20,20,20,170.32549314491916,172.32658643834293,left,1,1,0.853541349992156,E12K08_neu,2021_Oct_07_1317,t1_Paradigm,2021.1.4,60.015267637035834,
J,left,Distractor,0,21,21,21,173.82537075894652,175.82742966653313,left,1,1,0.9207641376415268,E12K08_neu,2021_Oct_07_1317,t1_Paradigm,2021.1.4,60.015267637035834,
P,left,Distractor,0,22,22,22,177.32599840819603,179.3275523733464,left,1,1,1.0045986974728294,E12K08_neu,2021_Oct_07_1317,t1_Paradigm,2021.1.4,60.015267637035834,
F,left,Distractor,0,23,23,23,180.8253807038418,182.82978274964262,left,1,1,0.5105638513341546,E12K08_neu,2021_Oct_07_1317,t1_Paradigm,2021.1.4,60.015267637035834,
L,left,Distractor,0,24,24,24,184.325995200139,186.32742790214252,left,1,1,0.581006208434701,E12K08_neu,2021_Oct_07_1317,t1_Paradigm,2021.1.4,60.015267637035834,
W,left,Pretarget,0,25,25,25,187.8254378066049,189.83118593785912,left,1,1,0.5810799929313362,E12K08_neu,2021_Oct_07_1317,t1_Paradigm,2021.1.4,60.015267637035834,
W,right,Target,0,26,26,26,191.32604171644198,193.32564103469485,right,1,1,0.8628503840300255,E12K08_neu,2021_Oct_07_1317,t1_Paradigm,2021.1.4,60.015267637035834,
V,left,Distractor,0,27,27,27,194.8260434808908,196.82755477936007,left,1,1,0.8167168026557192,E12K08_neu,2021_Oct_07_1317,t1_Paradigm,2021.1.4,60.015267637035834,
W,left,Lure,0,28,28,28,198.32592430291697,200.32767620292725,left,1,1,0.7244948731386103,E12K08_neu,2021_Oct_07_1317,t1_Paradigm,2021.1.4,60.015267637035834,
R,left,Pretarget,0,29,29,29,201.8260271199979,203.82963197265053,left,1,1,0.6628825925290585,E12K08_neu,2021_Oct_07_1317,t1_Paradigm,2021.1.4,60.015267637035834,
R,right,Target,0,30,30,30,205.32591467886232,207.3255990096368,right,1,1,0.7669026593794115,E12K08_neu,2021_Oct_07_1317,t1_Paradigm,2021.1.4,60.015267637035834,
G,left,Distractor,0,31,31,31,208.82603866886348,210.82750056381337,None,0,1,,E12K08_neu,2021_Oct_07_1317,t1_Paradigm,2021.1.4,60.015267637035834,
R,left,Lure,0,32,32,32,212.3254334757803,214.32719179184642,left,1,1,1.3811343368142843,E12K08_neu,2021_Oct_07_1317,t1_Paradigm,2021.1.4,60.015267637035834,
S,left,Distractor,0,33,33,33,215.8261416463065,217.82765679439763,left,1,1,0.7286787735065445,E12K08_neu,2021_Oct_07_1317,t1_Paradigm,2021.1.4,60.015267637035834,
R,left,Lure,0,34,34,34,219.3252384281368,221.32733262394322,left,1,1,0.8290250151767395,E12K08_neu,2021_Oct_07_1317,t1_Paradigm,2021.1.4,60.015267637035834,
P,left,Pretarget,0,35,35,35,222.82575090939645,224.8271152805537,left,1,1,0.9930353873642161,E12K08_neu,2021_Oct_07_1317,t1_Paradigm,2021.1.4,60.015267637035834,
P,right,Target,0,36,36,36,226.32545721513452,228.3254892952973,right,1,1,0.726648417301476,E12K08_neu,2021_Oct_07_1317,t1_Paradigm,2021.1.4,60.015267637035834,
Y,left,Pretarget,0,37,37,37,229.8253322627279,231.8271079020924,left,1,1,0.6330861767637543,E12K08_neu,2021_Oct_07_1317,t1_Paradigm,2021.1.4,60.015267637035834,
Y,right,Target,0,38,38,38,233.32535070885206,235.32539786671987,right,1,1,0.6708769797696732,E12K08_neu,2021_Oct_07_1317,t1_Paradigm,2021.1.4,60.015267637035834,
J,left,Distractor,0,39,39,39,236.82546186674153,238.8272047843202,left,1,1,0.7369612410548143,E12K08_neu,2021_Oct_07_1317,t1_Paradigm,2021.1.4,60.015267637035834,
Y,left,Lure,0,40,40,40,240.32540973642608,242.32711191213457,left,1,1,1.269139130890835,E12K08_neu,2021_Oct_07_1317,t1_Paradigm,2021.1.4,60.015267637035834,
T,left,Distractor,0,41,41,41,243.8254451850662,245.82730359135894,left,1,1,0.7450489816255867,E12K08_neu,2021_Oct_07_1317,t1_Paradigm,2021.1.4,60.015267637035834,
V,left,Distractor,0,42,42,42,247.325443741458,249.32765727560036,left,1,1,0.8447321254643612,E12K08_neu,2021_Oct_07_1317,t1_Paradigm,2021.1.4,60.015267637035834,
N,left,Pretarget,0,43,43,43,250.82543908979278,252.827407210425,left,1,1,0.5928081953315996,E12K08_neu,2021_Oct_07_1317,t1_Paradigm,2021.1.4,60.015267637035834,
N,right,Target,0,44,44,44,254.32600289944094,256.3257177064079,right,1,1,0.45441098016453907,E12K08_neu,2021_Oct_07_1317,t1_Paradigm,2021.1.4,60.015267637035834,
N,right,Target,0,45,45,45,257.8259924733429,259.82556773140095,right,1,1,0.7307155457674526,E12K08_neu,2021_Oct_07_1317,t1_Paradigm,2021.1.4,60.015267637035834,
X,left,Distractor,0,46,46,46,261.32504145562416,263.3302066895412,left,1,1,0.617971587809734,E12K08_neu,2021_Oct_07_1317,t1_Paradigm,2021.1.4,60.015267637035834,
Z,left,Distractor,0,47,47,47,264.82600305980304,266.8280167343328,left,1,1,0.5761017866316251,E12K08_neu,2021_Oct_07_1317,t1_Paradigm,2021.1.4,60.015267637035834,
H,left,Pretarget,0,48,48,48,268.3254321925342,270.32729669410037,left,1,1,0.613066524383612,E12K08_neu,2021_Oct_07_1317,t1_Paradigm,2021.1.4,60.015267637035834,
H,right,Target,0,49,49,49,271.8254394105752,273.8253986687632,right,1,1,0.6507915630354546,E12K08_neu,2021_Oct_07_1317,t1_Paradigm,2021.1.4,60.015267637035834,
K,left,Distractor,0,50,50,50,275.32545625272905,277.3264683831949,left,1,1,0.9417009630706161,E12K08_neu,2021_Oct_07_1317,t1_Paradigm,2021.1.4,60.015267637035834,
V,left,Pretarget,0,51,51,51,278.8253364331322,280.8265285335947,left,1,1,1.0256410667789169,E12K08_neu,2021_Oct_07_1317,t1_Paradigm,2021.1.4,60.015267637035834,
V,right,Target,0,52,52,52,282.32598846330075,284.3256243529613,right,1,1,0.5987449581734836,E12K08_neu,2021_Oct_07_1317,t1_Paradigm,2021.1.4,60.015267637035834,
R,left,Distractor,0,53,53,53,285.82589142071083,287.82771133078495,left,1,1,0.4886174618732184,E12K08_neu,2021_Oct_07_1317,t1_Paradigm,2021.1.4,60.015267637035834,
V,left,Lure,0,54,54,54,289.3254421374295,291.3270679622656,left,1,1,0.8292739575845189,E12K08_neu,2021_Oct_07_1317,t1_Paradigm,2021.1.4,60.015267637035834,
Y,left,Distractor,0,55,55,55,292.8253511900548,294.82728498481447,left,1,1,0.8330257376655936,E12K08_neu,2021_Oct_07_1317,t1_Paradigm,2021.1.4,60.015267637035834,
Q,left,Distractor,0,56,56,56,296.3253997915308,298.32696819282137,left,1,1,0.613419727422297,E12K08_neu,2021_Oct_07_1317,t1_Paradigm,2021.1.4,60.015267637035834,
Z,left,Pretarget,0,57,57,57,299.82597065879963,301.8275627993862,left,1,1,0.6167047405615449,E12K08_neu,2021_Oct_07_1317,t1_Paradigm,2021.1.4,60.015267637035834,
Z,right,Target,0,58,58,58,303.3253282526857,305.32548287929967,right,1,1,0.6708080073003657,E12K08_neu,2021_Oct_07_1317,t1_Paradigm,2021.1.4,60.015267637035834,
B,left,Distractor,0,59,59,59,306.82542657852173,308.82721857877914,left,1,1,0.5769910499802791,E12K08_neu,2021_Oct_07_1317,t1_Paradigm,2021.1.4,60.015267637035834,
S,left,Pretarget,0,60,60,60,310.3254068492097,312.3266563732177,left,1,1,0.5176109100575559,E12K08_neu,2021_Oct_07_1317,t1_Paradigm,2021.1.4,60.015267637035834,
S,right,Target,0,61,61,61,313.82537428778596,315.8255507289432,right,1,1,0.5867482444737107,E12K08_neu,2021_Oct_07_1317,t1_Paradigm,2021.1.4,60.015267637035834,
T,left,Distractor,0,62,62,62,317.3259980873554,319.3274336765753,left,1,1,0.5888963350444101,E12K08_neu,2021_Oct_07_1317,t1_Paradigm,2021.1.4,60.015267637035834,
D,left,Distractor,0,63,63,63,320.82546058355365,322.8276199022075,left,1,1,0.7525894340360537,E12K08_neu,2021_Oct_07_1317,t1_Paradigm,2021.1.4,60.015267637035834,
R,left,Distractor,0,0,0,0,344.13998550619,346.1275646921713,None,0,1,,E12K08_neu,2021_Oct_07_1317,t1_Paradigm,2021.1.4,60.015267637035834,
V,left,Distractor,0,1,1,1,347.62578408035915,349.638650167617,left,1,1,0.805621221952606,E12K08_neu,2021_Oct_07_1317,t1_Paradigm,2021.1.4,60.015267637035834,
N,left,Pretarget,0,2,2,2,351.12597447633743,353.12760350917233,left,1,1,0.5166841129539534,E12K08_neu,2021_Oct_07_1317,t1_Paradigm,2021.1.4,60.015267637035834,
N,right,Target,0,3,3,3,354.6259489725926,356.6255883910926,right,1,1,0.41067122376989573,E12K08_neu,2021_Oct_07_1317,t1_Paradigm,2021.1.4,60.015267637035834,
S,left,Distractor,0,4,4,4,358.125974155555,360.12764008063823,left,1,1,0.5565367108210921,E12K08_neu,2021_Oct_07_1317,t1_Paradigm,2021.1.4,60.015267637035834,
N,left,Lure,0,5,5,5,361.6255572732771,363.62714909308124,left,1,1,0.6092306941864081,E12K08_neu,2021_Oct_07_1317,t1_Paradigm,2021.1.4,60.015267637035834,
Z,left,Distractor,0,6,6,6,365.1252568421769,367.1267338148318,left,1,1,0.5818380482378416,E12K08_neu,2021_Oct_07_1317,t1_Paradigm,2021.1.4,60.015267637035834,
L,left,Pretarget,0,7,7,7,368.6254299148568,370.6265764614218,left,1,1,0.617631216882728,E12K08_neu,2021_Oct_07_1317,t1_Paradigm,2021.1.4,60.015267637035834,
L,right,Target,0,8,8,8,372.12541916797636,374.12537938851165,right,1,1,0.4947688413085416,E12K08_neu,2021_Oct_07_1317,t1_Paradigm,2021.1.4,60.015267637035834,
H,left,Distractor,0,9,9,9,375.6253753785277,377.62648471200373,left,1,1,0.6576727671781555,E12K08_neu,2021_Oct_07_1317,t1_Paradigm,2021.1.4,60.015267637035834,
L,left,Lure,0,10,10,10,379.1254534937907,381.1268005416496,left,1,1,0.6615499808103777,E12K08_neu,2021_Oct_07_1317,t1_Paradigm,2021.1.4,60.015267637035834,
X,left,Pretarget,0,11,11,11,382.6259727119468,384.62763863703003,left,1,1,0.8405867213150486,E12K08_neu,2021_Oct_07_1317,t1_Paradigm,2021.1.4,60.015267637035834,
X,right,Target,0,12,12,12,386.12535885721445,388.12545285222586,right,1,1,0.6227152878418565,E12K08_neu,2021_Oct_07_1317,t1_Paradigm,2021.1.4,60.015267637035834,
X,right,Target,0,13,13,13,389.62542895245133,391.62551749381237,right,1,1,0.7707757026073523,E12K08_neu,2021_Oct_07_1317,t1_Paradigm,2021.1.4,60.015267637035834,
R,left,Distractor,0,14,14,14,393.125402486301,395.12717972969403,left,1,1,0.5814213263220154,E12K08_neu,2021_Oct_07_1317,t1_Paradigm,2021.1.4,60.015267637035834,
T,left,Distractor,0,15,15,15,396.6254462757497,398.62683823588304,left,1,1,0.5374114545993507,E12K08_neu,2021_Oct_07_1317,t1_Paradigm,2021.1.4,60.015267637035834,
V,left,Pretarget,0,16,16,16,400.1258994086529,402.1276554791257,left,1,1,0.6205469867563806,E12K08_neu,2021_Oct_07_1317,t1_Paradigm,2021.1.4,60.015267637035834,
V,right,Target,0,17,17,17,403.6253400903079,405.6254462757497,right,1,1,0.38677339535206556,E12K08_neu,2021_Oct_07_1317,t1_Paradigm,2021.1.4,60.015267637035834,
N,left,Distractor,0,18,18,18,407.1253174737212,409.1273904966074,left,1,1,0.5969324265606701,E12K08_neu,2021_Oct_07_1317,t1_Paradigm,2021.1.4,60.015267637035834,
B,left,Distractor,0,19,19,19,410.6253375238739,412.62712439132156,left,1,1,0.8890785185503773,E12K08_neu,2021_Oct_07_1317,t1_Paradigm,2021.1.4,60.015267637035834,
V,left,Lure,0,20,20,20,414.1253829173511,416.1278508476098,None,0,1,,E12K08_neu,2021_Oct_07_1317,t1_Paradigm,2021.1.4,60.015267637035834,
P,left,Distractor,0,21,21,21,417.6253375238739,419.6271275993204,left,1,1,0.6093195563880727,E12K08_neu,2021_Oct_07_1317,t1_Paradigm,2021.1.4,60.015267637035834,
K,left,Pretarget,0,22,22,22,421.1255484512076,423.1250941955368,left,1,1,0.5511709756101482,E12K08_neu,2021_Oct_07_1317,t1_Paradigm,2021.1.4,60.015267637035834,
K,right,Target,0,23,23,23,424.6259800904081,426.6256041103625,right,1,1,0.4746147728874348,E12K08_neu,2021_Oct_07_1317,t1_Paradigm,2021.1.4,60.015267637035834,
J,left,Pretarget,0,24,24,24,428.1259019750869,430.12763911823276,left,1,1,0.4765145626734011,E12K08_neu,2021_Oct_07_1317,t1_Paradigm,2021.1.4,60.015267637035834,
J,right,Target,0,25,25,25,431.6255681805196,433.62561533844564,right,1,1,0.578714398550801,E12K08_neu,2021_Oct_07_1317,t1_Paradigm,2021.1.4,60.015267637035834,
H,left,Distractor,0,26,26,26,435.12601553899003,437.1276250029332,left,1,1,0.692559028393589,E12K08_neu,2021_Oct_07_1317,t1_Paradigm,2021.1.4,60.015267637035834,
J,left,Lure,0,27,27,27,438.62545269180555,440.62717700283974,left,1,1,0.681417252169922,E12K08_neu,2021_Oct_07_1317,t1_Paradigm,2021.1.4,60.015267637035834,
V,left,Distractor,0,28,28,28,442.1253803509171,444.12713610060746,left,1,1,0.7011555610806681,E12K08_neu,2021_Oct_07_1317,t1_Paradigm,2021.1.4,60.015267637035834,
Z,left,Pretarget,0,29,29,29,445.6255563108716,447.627186947735,left,1,1,0.6732316668494605,E12K08_neu,2021_Oct_07_1317,t1_Paradigm,2021.1.4,60.015267637035834,
Z,right,Target,0,30,30,30,449.1260617345106,451.1255872682668,right,1,1,0.6786535424762405,E12K08_neu,2021_Oct_07_1317,t1_Paradigm,2021.1.4,60.015267637035834,
T,left,Distractor,0,31,31,31,452.62592491245596,454.62762420094805,left,1,1,0.5045725521049462,E12K08_neu,2021_Oct_07_1317,t1_Paradigm,2021.1.4,60.015267637035834,
Z,left,Lure,0,32,32,32,456.1254124311381,458.1271085116314,left,1,1,0.6210731021710671,E12K08_neu,2021_Oct_07_1317,t1_Paradigm,2021.1.4,60.015267637035834,
F,left,Distractor,0,33,33,33,459.62536030082265,461.6271122008329,left,1,1,0.8491226224577986,E12K08_neu,2021_Oct_07_1317,t1_Paradigm,2021.1.4,60.015267637035834,
Y,left,Pretarget,0,34,34,34,463.1254345664638,465.12719897780335,left,1,1,0.5971922762691975,E12K08_neu,2021_Oct_07_1317,t1_Paradigm,2021.1.4,60.015267637035834,
Y,right,Target,0,35,35,35,466.62600575457327,468.6255248722737,right,1,1,0.6508836332359351,E12K08_neu,2021_Oct_07_1317,t1_Paradigm,2021.1.4,60.015267637035834,
Y,right,Target,0,36,36,36,470.1253011128283,472.1254153183545,right,1,1,0.6547800950356759,E12K08_neu,2021_Oct_07_1317,t1_Paradigm,2021.1.4,60.015267637035834,
W,left,Distractor,0,37,37,37,473.62544820056064,475.6271510178922,left,1,1,0.5612890725024045,E12K08_neu,2021_Oct_07_1317,t1_Paradigm,2021.1.4,60.015267637035834,
Q,left,Distractor,0,38,38,38,477.1253768221359,479.1270488424343,left,1,1,0.5490937823196873,E12K08_neu,2021_Oct_07_1317,t1_Paradigm,2021.1.4,60.015267637035834,
P,left,Pretarget,0,39,39,39,480.6253699248773,482.6276540355175,left,1,1,0.5045539456186816,E12K08_neu,2021_Oct_07_1317,t1_Paradigm,2021.1.4,60.015267637035834,
P,right,Target,0,40,40,40,484.125495518907,486.12540890229866,right,1,1,0.5587890620809048,E12K08_neu,2021_Oct_07_1317,t1_Paradigm,2021.1.4,60.015267637035834,
J,left,Distractor,0,41,41,41,487.6254405013169,489.6271997797885,left,1,1,0.5291613881126978,E12K08_neu,2021_Oct_07_1317,t1_Paradigm,2021.1.4,60.015267637035834,
P,left,Lure,0,42,42,42,491.1254576642532,493.1271203812794,left,1,1,0.8050617431290448,E12K08_neu,2021_Oct_07_1317,t1_Paradigm,2021.1.4,60.015267637035834,
L,left,Distractor,0,43,43,43,494.6254578246153,496.6271144464845,left,1,1,0.7611888539395295,E12K08_neu,2021_Oct_07_1317,t1_Paradigm,2021.1.4,60.015267637035834,
Z,left,Distractor,0,44,44,44,498.1254384161439,500.12745273223845,left,1,1,0.5089232696336694,E12K08_neu,2021_Oct_07_1317,t1_Paradigm,2021.1.4,60.015267637035834,
F,left,Pretarget,0,45,45,45,501.6258992482908,503.6277085718466,left,1,1,0.4966958992299624,E12K08_neu,2021_Oct_07_1317,t1_Paradigm,2021.1.4,60.015267637035834,
F,right,Target,0,46,46,46,505.12602612550836,507.12553914793534,right,1,1,0.6308165021473542,E12K08_neu,2021_Oct_07_1317,t1_Paradigm,2021.1.4,60.015267637035834,
G,left,Pretarget,0,47,47,47,508.6259448021883,510.6274958801223,left,1,1,0.42469412327045575,E12K08_neu,2021_Oct_07_1317,t1_Paradigm,2021.1.4,60.015267637035834,
G,right,Target,0,48,48,48,512.1253983158385,514.1254390577087,left,0,1,0.4631951820338145,E12K08_neu,2021_Oct_07_1317,t1_Paradigm,2021.1.4,60.015267637035834,
V,left,Distractor,0,49,49,49,515.6258655640413,517.6275388675858,left,1,1,0.656658070278354,E12K08_neu,2021_Oct_07_1317,t1_Paradigm,2021.1.4,60.015267637035834,
G,left,Lure,0,50,50,50,519.1253947870573,521.1272163011017,left,1,1,1.0291320347459987,E12K08_neu,2021_Oct_07_1317,t1_Paradigm,2021.1.4,60.015267637035834,
Q,left,Pretarget,0,51,51,51,522.6253615840105,524.6273313086713,left,1,1,0.6009334698319435,E12K08_neu,2021_Oct_07_1317,t1_Paradigm,2021.1.4,60.015267637035834,
Q,right,Target,0,52,52,52,526.1254294336541,528.1254653634969,right,1,1,0.622748009627685,E12K08_neu,2021_Oct_07_1317,t1_Paradigm,2021.1.4,60.015267637035834,
Y,left,Distractor,0,53,53,53,529.6253384862794,531.6270464364206,left,1,1,0.8171973641728982,E12K08_neu,2021_Oct_07_1317,t1_Paradigm,2021.1.4,60.015267637035834,
V,left,Distractor,0,54,54,54,533.125976080366,535.1277481909492,left,1,1,0.9325651620747522,E12K08_neu,2021_Oct_07_1317,t1_Paradigm,2021.1.4,60.015267637035834,
B,left,Distractor,0,55,55,55,536.6253660752554,538.6272642610129,left,1,1,0.5850771865807474,E12K08_neu,2021_Oct_07_1317,t1_Paradigm,2021.1.4,60.015267637035834,
J,left,Pretarget,0,56,56,56,540.1254538146313,542.1270575040835,left,1,1,0.5571411019191146,E12K08_neu,2021_Oct_07_1317,t1_Paradigm,2021.1.4,60.015267637035834,
J,right,Target,0,57,57,57,543.6253859649878,545.6253724913113,right,1,1,0.7068096973234788,E12K08_neu,2021_Oct_07_1317,t1_Paradigm,2021.1.4,60.015267637035834,
H,left,Distractor,0,58,58,58,547.1253476291313,549.1287035394344,left,1,1,0.5960617697564885,E12K08_neu,2021_Oct_07_1317,t1_Paradigm,2021.1.4,60.015267637035834,
J,left,Lure,0,59,59,59,550.6259909976507,552.6271840605186,left,1,1,0.7132032823283225,E12K08_neu,2021_Oct_07_1317,t1_Paradigm,2021.1.4,60.015267637035834,
D,left,Pretarget,0,60,60,60,554.1253588572145,556.1272904063808,left,1,1,0.5569200693280436,E12K08_neu,2021_Oct_07_1317,t1_Paradigm,2021.1.4,60.015267637035834,
D,right,Target,0,61,61,61,557.6253699248773,559.6253843609593,right,1,1,0.6588177096564323,E12K08_neu,2021_Oct_07_1317,t1_Paradigm,2021.1.4,60.015267637035834,
R,left,Distractor,0,62,62,62,561.125443869736,563.1271389878239,left,1,1,0.5971159253385849,E12K08_neu,2021_Oct_07_1317,t1_Paradigm,2021.1.4,60.015267637035834,
F,left,Distractor,0,63,63,63,564.6254514086177,566.6273210429936,left,1,1,0.6169780638883822,E12K08_neu,2021_Oct_07_1317,t1_Paradigm,2021.1.4,60.015267637035834,
F,left,Distractor,0,0,0,0,668.042647746217,670.0255736983381,left,1,2,0.9308523999643512,E12K08_neu,2021_Oct_07_1317,t1_Paradigm,2021.1.4,60.015267637035834,
N,left,Pretarget,0,1,1,1,671.5259674828849,673.527497708681,left,1,2,0.7089779984089546,E12K08_neu,2021_Oct_07_1317,t1_Paradigm,2021.1.4,60.015267637035834,
V,left,Distractor,0,2,2,2,675.0257697083871,677.0271199642448,left,1,2,0.7132934276596643,E12K08_neu,2021_Oct_07_1317,t1_Paradigm,2021.1.4,60.015267637035834,
N,right,Target,0,3,3,3,678.5253579589771,680.5271701697493,right,1,2,0.7652174861286767,E12K08_neu,2021_Oct_07_1317,t1_Paradigm,2021.1.4,60.015267637035834,
N,left,Lure,0,4,4,4,682.0254809865728,684.0255910216365,left,1,2,1.2828585515962914,E12K08_neu,2021_Oct_07_1317,t1_Paradigm,2021.1.4,60.015267637035834,
X,left,Distractor,0,5,5,5,685.5259844854008,687.5276305207517,left,1,2,1.0129068291280419,E12K08_neu,2021_Oct_07_1317,t1_Paradigm,2021.1.4,60.015267637035834,
G,left,Pretarget,0,6,6,6,689.0254643048393,691.0272951221559,None,0,2,,E12K08_neu,2021_Oct_07_1317,t1_Paradigm,2021.1.4,60.015267637035834,
H,left,Pretarget,0,7,7,7,692.5253415980842,694.5270784203894,left,1,2,1.021167802857235,E12K08_neu,2021_Oct_07_1317,t1_Paradigm,2021.1.4,60.015267637035834,
G,right,Target,0,8,8,8,696.0253728762618,698.0271324755158,right,1,2,0.7692121133441105,E12K08_neu,2021_Oct_07_1317,t1_Paradigm,2021.1.4,60.015267637035834,
H,right,Target,0,9,9,9,699.526048966567,701.5275994029362,right,1,2,0.6128195068449713,E12K08_neu,2021_Oct_07_1317,t1_Paradigm,2021.1.4,60.015267637035834,
T,left,Pretarget,0,10,10,10,703.025366460206,705.0276143202209,left,1,2,0.8565992351504974,E12K08_neu,2021_Oct_07_1317,t1_Paradigm,2021.1.4,60.015267637035834,
K,left,Distractor,0,11,11,11,706.525288344943,708.5270729667391,left,1,2,1.1172582844737917,E12K08_neu,2021_Oct_07_1317,t1_Paradigm,2021.1.4,60.015267637035834,
T,right,Target,0,12,12,12,710.0256574276718,712.0272665707744,right,1,2,0.8971479734755121,E12K08_neu,2021_Oct_07_1317,t1_Paradigm,2021.1.4,60.015267637035834,
T,left,Lure,0,13,13,13,713.5254294978222,715.525373678247,left,1,2,0.9830754459253512,E12K08_neu,2021_Oct_07_1317,t1_Paradigm,2021.1.4,60.015267637035834,
J,left,Distractor,0,14,14,14,717.026000365091,719.0275934680831,left,1,2,0.6648404474835843,E12K08_neu,2021_Oct_07_1317,t1_Paradigm,2021.1.4,60.015267637035834,
Q,left,Pretarget,0,15,15,15,720.5252723048325,722.527153488074,left,1,2,0.7170727967168204,E12K08_neu,2021_Oct_07_1317,t1_Paradigm,2021.1.4,60.015267637035834,
M,left,Distractor,0,16,16,16,724.0255143499817,726.0285189819988,left,1,2,0.7037136367289349,E12K08_neu,2021_Oct_07_1317,t1_Paradigm,2021.1.4,60.015267637035834,
Q,right,Target,0,17,17,17,727.5254763349076,729.5271878138883,right,1,2,0.6614328880677931,E12K08_neu,2021_Oct_07_1317,t1_Paradigm,2021.1.4,60.015267637035834,
R,left,Distractor,0,18,18,18,731.02578606928,733.0270400845329,left,1,2,0.8412183805485256,E12K08_neu,2021_Oct_07_1317,t1_Paradigm,2021.1.4,60.015267637035834,
W,left,Distractor,0,19,19,19,734.5253525053267,736.527136485558,left,1,2,0.7332001577015035,E12K08_neu,2021_Oct_07_1317,t1_Paradigm,2021.1.4,60.015267637035834,
C,left,Pretarget,0,20,20,20,738.0254941394087,740.0280287964852,left,1,2,0.7201714238035493,E12K08_neu,2021_Oct_07_1317,t1_Paradigm,2021.1.4,60.015267637035834,
T,left,Distractor,0,21,21,21,741.5253319739713,743.5276613177266,left,1,2,0.6610100709367543,E12K08_neu,2021_Oct_07_1317,t1_Paradigm,2021.1.4,60.015267637035834,
C,right,Target,0,22,22,22,745.0253337384202,747.0271395331947,right,1,2,0.7452764303307049,E12K08_neu,2021_Oct_07_1317,t1_Paradigm,2021.1.4,60.015267637035834,
F,left,Pretarget,0,23,23,23,748.5256171670044,750.527509578329,left,1,2,1.1008072342374362,E12K08_neu,2021_Oct_07_1317,t1_Paradigm,2021.1.4,60.015267637035834,
C,right,Target,0,24,24,24,752.0252897885512,754.0272415482323,right,1,2,0.6570029324502684,E12K08_neu,2021_Oct_07_1317,t1_Paradigm,2021.1.4,60.015267637035834,
F,right,Target,0,25,25,25,755.5252992521855,757.5271438640193,right,1,2,0.8370854876702651,E12K08_neu,2021_Oct_07_1317,t1_Paradigm,2021.1.4,60.015267637035834,
H,left,Distractor,0,26,26,26,759.0253234727425,761.0272229416878,left,1,2,0.6971031895373017,E12K08_neu,2021_Oct_07_1317,t1_Paradigm,2021.1.4,60.015267637035834,
H,left,Lure,0,27,27,27,762.5255446657538,764.5253656582208,None,0,2,,E12K08_neu,2021_Oct_07_1317,t1_Paradigm,2021.1.4,60.015267637035834,
P,left,Distractor,0,28,28,28,766.0259474327322,768.0275870520272,left,1,2,1.200707881769631,E12K08_neu,2021_Oct_07_1317,t1_Paradigm,2021.1.4,60.015267637035834,
G,left,Pretarget,0,29,29,29,769.5259896182106,771.5276719041867,left,1,2,1.20458317064913,E12K08_neu,2021_Oct_07_1317,t1_Paradigm,2021.1.4,60.015267637035834,
K,left,Distractor,0,30,30,30,773.0253812171286,775.0271539692767,left,1,2,0.889083651418332,E12K08_neu,2021_Oct_07_1317,t1_Paradigm,2021.1.4,60.015267637035834,
G,right,Target,0,31,31,31,776.5253906807629,778.5271396935568,right,1,2,0.44532394112320617,E12K08_neu,2021_Oct_07_1317,t1_Paradigm,2021.1.4,60.015267637035834,
M,left,Pretarget,0,32,32,32,780.0253488161252,782.0271847662516,left,1,2,0.9931755778379738,E12K08_neu,2021_Oct_07_1317,t1_Paradigm,2021.1.4,60.015267637035834,
B,left,Distractor,0,33,33,33,783.5260316432687,785.5274957838701,left,1,2,0.7407608205685392,E12K08_neu,2021_Oct_07_1317,t1_Paradigm,2021.1.4,60.015267637035834,
M,right,Target,0,34,34,34,787.0252644451684,789.038579976128,right,1,2,0.42964057018980384,E12K08_neu,2021_Oct_07_1317,t1_Paradigm,2021.1.4,60.015267637035834,
M,left,Lure,0,35,35,35,790.5254060792504,792.525344806083,left,1,2,0.9748837653896771,E12K08_neu,2021_Oct_07_1317,t1_Paradigm,2021.1.4,60.015267637035834,
T,left,Distractor,0,36,36,36,794.0253629313665,796.026437618304,left,1,2,0.8659830160904676,E12K08_neu,2021_Oct_07_1317,t1_Paradigm,2021.1.4,60.015267637035834,
F,left,Distractor,0,37,37,37,797.5253476932994,799.5263880543644,left,1,2,1.0779215362854302,E12K08_neu,2021_Oct_07_1317,t1_Paradigm,2021.1.4,60.015267637035834,
X,left,Distractor,0,38,38,38,801.0253677434521,803.026496004255,left,1,2,1.1139078278210945,E12K08_neu,2021_Oct_07_1317,t1_Paradigm,2021.1.4,60.015267637035834,
C,left,Distractor,0,39,39,39,804.5254115329008,806.5276407863712,left,1,2,0.7809765663696453,E12K08_neu,2021_Oct_07_1317,t1_Paradigm,2021.1.4,60.015267637035834,
R,left,Distractor,0,40,40,40,808.0254344702698,810.0262624603347,left,1,2,0.6260019049514085,E12K08_neu,2021_Oct_07_1317,t1_Paradigm,2021.1.4,60.015267637035834,
B,left,Pretarget,0,41,41,41,811.52537431987,813.5272362550022,left,1,2,0.6769876173348166,E12K08_neu,2021_Oct_07_1317,t1_Paradigm,2021.1.4,60.015267637035834,
H,left,Distractor,0,42,42,42,815.0253571569338,817.0276050169487,left,1,2,1.0327368874568492,E12K08_neu,2021_Oct_07_1317,t1_Paradigm,2021.1.4,60.015267637035834,
B,right,Target,0,43,43,43,818.5259126257151,820.527558661066,right,1,2,0.6047186132636853,E12K08_neu,2021_Oct_07_1317,t1_Paradigm,2021.1.4,60.015267637035834,
W,left,Pretarget,0,44,44,44,822.0261681445409,824.0275386109133,left,1,2,0.5927251076209359,E12K08_neu,2021_Oct_07_1317,t1_Paradigm,2021.1.4,60.015267637035834,
L,left,Pretarget,0,45,45,45,825.5254513123655,827.5271522048861,left,1,2,0.6132776121376082,E12K08_neu,2021_Oct_07_1317,t1_Paradigm,2021.1.4,60.015267637035834,
W,right,Target,0,46,46,46,829.0254370366456,831.0273477337323,right,1,2,0.6009732492966577,E12K08_neu,2021_Oct_07_1317,t1_Paradigm,2021.1.4,60.015267637035834,
L,right,Target,0,47,47,47,832.52603902173,834.5276385407778,right,1,2,0.7166621700744145,E12K08_neu,2021_Oct_07_1317,t1_Paradigm,2021.1.4,60.015267637035834,
W,right,Target,0,48,48,48,836.0253648561775,838.0270712023485,right,1,2,0.7852332888287492,E12K08_neu,2021_Oct_07_1317,t1_Paradigm,2021.1.4,60.015267637035834,
X,left,Distractor,0,49,49,49,839.5254320642562,841.5274993127096,left,1,2,0.6449382087448612,E12K08_neu,2021_Oct_07_1317,t1_Paradigm,2021.1.4,60.015267637035834,
R,left,Distractor,0,50,50,50,843.0254335078644,845.027487282583,left,1,2,0.8247888240148313,E12K08_neu,2021_Oct_07_1317,t1_Paradigm,2021.1.4,60.015267637035834,
V,left,Pretarget,0,51,51,51,846.5255530066206,848.5272869417095,left,1,2,0.6370795207330957,E12K08_neu,2021_Oct_07_1317,t1_Paradigm,2021.1.4,60.015267637035834,
Z,left,Distractor,0,52,52,52,850.0260231420398,852.0276111122221,left,1,2,0.6886487720767036,E12K08_neu,2021_Oct_07_1317,t1_Paradigm,2021.1.4,60.015267637035834,
V,right,Target,0,53,53,53,853.5253813774907,855.5274098088848,right,1,2,0.6768012313405052,E12K08_neu,2021_Oct_07_1317,t1_Paradigm,2021.1.4,60.015267637035834,
V,left,Lure,0,54,54,54,857.025366460206,859.0253738386673,left,1,2,0.7310276862117462,E12K08_neu,2021_Oct_07_1317,t1_Paradigm,2021.1.4,60.015267637035834,
N,left,Distractor,0,55,55,55,860.5253646958154,862.5269873125944,left,1,2,0.7652761929202825,E12K08_neu,2021_Oct_07_1317,t1_Paradigm,2021.1.4,60.015267637035834,
B,left,Distractor,0,56,56,56,864.0254675128381,866.0276970871491,left,1,2,0.8967822591075674,E12K08_neu,2021_Oct_07_1317,t1_Paradigm,2021.1.4,60.015267637035834,
V,left,Lure,0,57,57,57,867.5253544301377,869.5271852474543,left,1,2,0.5331861707381904,E12K08_neu,2021_Oct_07_1317,t1_Paradigm,2021.1.4,60.015267637035834,
J,left,Distractor,0,58,58,58,871.0254537183791,873.0271600644919,left,1,2,0.74533545790473,E12K08_neu,2021_Oct_07_1317,t1_Paradigm,2021.1.4,60.015267637035834,
H,left,Distractor,0,59,59,59,874.5253868311411,876.5268307612278,left,1,2,0.5413807384902611,E12K08_neu,2021_Oct_07_1317,t1_Paradigm,2021.1.4,60.015267637035834,
X,left,Pretarget,0,60,60,60,878.0254367158632,880.0263574177516,left,1,2,1.1378877815441228,E12K08_neu,2021_Oct_07_1317,t1_Paradigm,2021.1.4,60.015267637035834,
P,left,Distractor,0,61,61,61,881.5253239539452,883.5276003653416,left,1,2,0.7407143042655662,E12K08_neu,2021_Oct_07_1317,t1_Paradigm,2021.1.4,60.015267637035834,
X,right,Target,0,62,62,62,885.0254264501855,887.0249407558586,right,1,2,0.6835691923624836,E12K08_neu,2021_Oct_07_1317,t1_Paradigm,2021.1.4,60.015267637035834,
Q,left,Distractor,0,63,63,63,888.525963633263,890.5271082549589,left,1,2,0.49315456533804536,E12K08_neu,2021_Oct_07_1317,t1_Paradigm,2021.1.4,60.015267637035834,
B,left,Pretarget,0,0,0,0,910.1594492085278,912.1442258677562,left,1,2,0.4600365650258027,E12K08_neu,2021_Oct_07_1317,t1_Paradigm,2021.1.4,60.015267637035834,
F,left,Distractor,0,1,1,1,913.6424353110488,915.6437615067698,left,1,2,0.5446519569959491,E12K08_neu,2021_Oct_07_1317,t1_Paradigm,2021.1.4,60.015267637035834,
B,right,Target,0,2,2,2,917.1420357521274,919.1436978275888,right,1,2,0.6765673666959628,E12K08_neu,2021_Oct_07_1317,t1_Paradigm,2021.1.4,60.015267637035834,
V,left,Distractor,0,3,3,3,920.6419974162709,922.6443302888074,left,1,2,0.43995307304430753,E12K08_neu,2021_Oct_07_1317,t1_Paradigm,2021.1.4,60.015267637035834,
G,left,Pretarget,0,4,4,4,924.1421027997276,926.1438232611981,left,1,2,0.5244430315215141,E12K08_neu,2021_Oct_07_1317,t1_Paradigm,2021.1.4,60.015267637035834,
B,left,Lure,0,5,5,5,927.6421116217971,929.6437323137652,left,1,2,1.264948172844015,E12K08_neu,2021_Oct_07_1317,t1_Paradigm,2021.1.4,60.015267637035834,
G,right,Target,0,6,6,6,931.1420649450738,933.1442749504931,right,1,2,0.8040441590128466,E12K08_neu,2021_Oct_07_1317,t1_Paradigm,2021.1.4,60.015267637035834,
Y,left,Pretarget,0,7,7,7,934.6426643637242,936.6442475218792,left,1,2,0.6000714746769518,E12K08_neu,2021_Oct_07_1317,t1_Paradigm,2021.1.4,60.015267637035834,
P,left,Distractor,0,8,8,8,938.1422073811991,940.1437908601365,left,1,2,0.8764883209951222,E12K08_neu,2021_Oct_07_1317,t1_Paradigm,2021.1.4,60.015267637035834,
Y,right,Target,0,9,9,9,941.6421459476114,943.6437813965022,right,1,2,0.8012778828851879,E12K08_neu,2021_Oct_07_1317,t1_Paradigm,2021.1.4,60.015267637035834,
X,left,Distractor,0,10,10,10,945.1420941380784,947.1439073113143,left,1,2,0.660334461776074,E12K08_neu,2021_Oct_07_1317,t1_Paradigm,2021.1.4,60.015267637035834,
Y,right,Target,0,11,11,11,948.6423788499087,950.6443771258928,right,1,2,1.4319426457514055,E12K08_neu,2021_Oct_07_1317,t1_Paradigm,2021.1.4,60.015267637035834,
N,left,Distractor,0,12,12,12,952.142061737075,954.1437757824897,left,1,2,1.3245134155149572,E12K08_neu,2021_Oct_07_1317,t1_Paradigm,2021.1.4,60.015267637035834,
Y,right,Target,0,13,13,13,955.6419887546217,957.6437974366127,right,1,2,0.9926539537264034,E12K08_neu,2021_Oct_07_1317,t1_Paradigm,2021.1.4,60.015267637035834,
Y,left,Lure,0,14,14,14,959.1419937270693,961.1420562834246,left,1,2,0.8702599491225556,E12K08_neu,2021_Oct_07_1317,t1_Paradigm,2021.1.4,60.015267637035834,
K,left,Distractor,0,15,15,15,962.6421026393655,964.6440521534532,left,1,2,1.2882332692970522,E12K08_neu,2021_Oct_07_1317,t1_Paradigm,2021.1.4,60.015267637035834,
T,left,Pretarget,0,16,16,16,966.1425692459452,968.1443448853097,left,1,2,1.2442413624958135,E12K08_neu,2021_Oct_07_1317,t1_Paradigm,2021.1.4,60.015267637035834,
J,left,Distractor,0,17,17,17,969.64194961678,971.6438818075694,left,1,2,0.8965714921941981,E12K08_neu,2021_Oct_07_1317,t1_Paradigm,2021.1.4,60.015267637035834,
T,right,Target,0,18,18,18,973.1420274112606,975.1437850857037,right,1,2,0.6926879908423871,E12K08_neu,2021_Oct_07_1317,t1_Paradigm,2021.1.4,60.015267637035834,
S,left,Pretarget,0,19,19,19,976.642040082952,978.6437916621799,left,1,2,0.7604474803665653,E12K08_neu,2021_Oct_07_1317,t1_Paradigm,2021.1.4,60.015267637035834,
R,left,Distractor,0,20,20,20,980.1420412057196,982.143855982984,left,1,2,0.8924556018318981,E12K08_neu,2021_Oct_07_1317,t1_Paradigm,2021.1.4,60.015267637035834,
S,right,Target,0,21,21,21,983.6425026794896,985.6443950908142,right,1,2,0.8159985268721357,E12K08_neu,2021_Oct_07_1317,t1_Paradigm,2021.1.4,60.015267637035834,
Q,left,Distractor,0,22,22,22,987.1418721430819,989.1438418676844,left,1,2,0.6445978377014399,E12K08_neu,2021_Oct_07_1317,t1_Paradigm,2021.1.4,60.015267637035834,
D,left,Distractor,0,23,23,23,990.6421177170123,992.6437791509088,left,1,2,0.7446614527725615,E12K08_neu,2021_Oct_07_1317,t1_Paradigm,2021.1.4,60.015267637035834,
F,left,Distractor,0,24,24,24,994.1420851556468,996.1441909003188,left,1,2,0.668181280081626,E12K08_neu,2021_Oct_07_1317,t1_Paradigm,2021.1.4,60.015267637035834,
Z,left,Distractor,0,25,25,25,997.6420144187869,999.6442436722573,left,1,2,0.7681310104671866,E12K08_neu,2021_Oct_07_1317,t1_Paradigm,2021.1.4,60.015267637035834,
P,left,Distractor,0,26,26,26,1001.1425397321582,1003.1450391009566,left,1,2,0.6113900128402747,E12K08_neu,2021_Oct_07_1317,t1_Paradigm,2021.1.4,60.015267637035834,
H,left,Distractor,0,27,27,27,1004.6425832008244,1006.644344404107,left,1,2,0.8879403128521517,E12K08_neu,2021_Oct_07_1317,t1_Paradigm,2021.1.4,60.015267637035834,
Z,left,Pretarget,0,28,28,28,1008.1421101781889,1010.1438117122743,left,1,2,0.8446743810782209,E12K08_neu,2021_Oct_07_1317,t1_Paradigm,2021.1.4,60.015267637035834,
J,left,Pretarget,0,29,29,29,1011.642025005247,1013.6436713613803,None,0,2,,E12K08_neu,2021_Oct_07_1317,t1_Paradigm,2021.1.4,60.015267637035834,
Z,right,Target,0,30,30,30,1015.142125897517,1017.1442454366479,right,1,2,1.2680727848201059,E12K08_neu,2021_Oct_07_1317,t1_Paradigm,2021.1.4,60.015267637035834,
J,right,Target,0,31,31,31,1018.642084032821,1020.6437589403358,right,1,2,0.6005632642190903,E12K08_neu,2021_Oct_07_1317,t1_Paradigm,2021.1.4,60.015267637035834,
V,left,Pretarget,0,32,32,32,1022.1420995917288,1024.144204053213,left,1,2,0.796282674127724,E12K08_neu,2021_Oct_07_1317,t1_Paradigm,2021.1.4,60.015267637035834,
Z,left,Lure,0,33,33,33,1025.6427330153529,1027.6442109504715,left,1,2,0.9442523018224165,E12K08_neu,2021_Oct_07_1317,t1_Paradigm,2021.1.4,60.015267637035834,
V,right,Target,0,34,34,34,1029.1420954212663,1031.1437725744327,right,1,2,0.7245054595987312,E12K08_neu,2021_Oct_07_1317,t1_Paradigm,2021.1.4,60.015267637035834,
X,left,Distractor,0,35,35,35,1032.6419836217538,1034.6439867098234,left,1,2,0.6804696028702892,E12K08_neu,2021_Oct_07_1317,t1_Paradigm,2021.1.4,60.015267637035834,
S,left,Distractor,0,36,36,36,1036.1419337370316,1038.14367505064,left,1,2,0.5246470615966246,E12K08_neu,2021_Oct_07_1317,t1_Paradigm,2021.1.4,60.015267637035834,
Q,left,Distractor,0,37,37,37,1039.6420391205465,1041.6441127849976,left,1,2,0.5922548117814586,E12K08_neu,2021_Oct_07_1317,t1_Paradigm,2021.1.4,60.015267637035834,
P,left,Distractor,0,38,38,38,1043.142125255894,1045.143699431559,left,1,2,0.6606270332704298,E12K08_neu,2021_Oct_07_1317,t1_Paradigm,2021.1.4,60.015267637035834,
S,left,Lure,0,39,39,39,1046.6420063987025,1048.6437874917174,None,0,2,,E12K08_neu,2021_Oct_07_1317,t1_Paradigm,2021.1.4,60.015267637035834,
K,left,Pretarget,0,40,40,40,1050.1426459176,1052.1443169755512,left,1,2,1.0681011437554844,E12K08_neu,2021_Oct_07_1317,t1_Paradigm,2021.1.4,60.015267637035834,
L,left,Distractor,0,41,41,41,1053.642095902469,1055.643760223582,left,1,2,0.7045493260375224,E12K08_neu,2021_Oct_07_1317,t1_Paradigm,2021.1.4,60.015267637035834,
K,right,Target,0,42,42,42,1057.1420091255568,1059.1437847649213,left,0,2,0.7566206326591782,E12K08_neu,2021_Oct_07_1317,t1_Paradigm,2021.1.4,60.015267637035834,
B,left,Distractor,0,43,43,43,1060.6422232608893,1062.6438118726946,None,0,2,,E12K08_neu,2021_Oct_07_1317,t1_Paradigm,2021.1.4,60.015267637035834,
N,left,Distractor,0,44,44,44,1064.14246755169,1066.1442601935705,left,1,2,1.2922320669749752,E12K08_neu,2021_Oct_07_1317,t1_Paradigm,2021.1.4,60.015267637035834,
S,left,Pretarget,0,45,45,45,1067.6420047947322,1069.6438243839657,left,1,2,0.6085101728094742,E12K08_neu,2021_Oct_07_1317,t1_Paradigm,2021.1.4,60.015267637035834,
Z,left,Distractor,0,46,46,46,1071.1419773661182,1073.1438470004941,left,1,2,0.5805574064143002,E12K08_neu,2021_Oct_07_1317,t1_Paradigm,2021.1.4,60.015267637035834,
S,right,Target,0,47,47,47,1074.6420019075158,1076.6439604040352,right,1,2,0.6646277557592839,E12K08_neu,2021_Oct_07_1317,t1_Paradigm,2021.1.4,60.015267637035834,
C,left,Distractor,0,48,48,48,1078.1420389601262,1080.1440943389316,left,1,2,0.8123609523754567,E12K08_neu,2021_Oct_07_1317,t1_Paradigm,2021.1.4,60.015267637035834,
T,left,Pretarget,0,49,49,49,1081.6420227596536,1083.6444239630364,left,1,2,0.6398984083789401,E12K08_neu,2021_Oct_07_1317,t1_Paradigm,2021.1.4,60.015267637035834,
S,left,Lure,0,50,50,50,1085.141983782174,1087.143761025567,left,1,2,0.964907142217271,E12K08_neu,2021_Oct_07_1317,t1_Paradigm,2021.1.4,60.015267637035834,
T,right,Target,0,51,51,51,1088.6420189100318,1090.6436848350568,right,1,2,0.4246488902135752,E12K08_neu,2021_Oct_07_1317,t1_Paradigm,2021.1.4,60.015267637035834,
N,left,Pretarget,0,52,52,52,1092.1420524338027,1094.143747872673,left,1,2,0.5566769013530575,E12K08_neu,2021_Oct_07_1317,t1_Paradigm,2021.1.4,60.015267637035834,
B,left,Distractor,0,53,53,53,1095.6420917320647,1097.6438949604053,left,1,2,1.264855140238069,E12K08_neu,2021_Oct_07_1317,t1_Paradigm,2021.1.4,60.015267637035834,
N,right,Target,0,54,54,54,1099.1419574763859,1101.1549676037976,right,1,2,0.6653219713480212,E12K08_neu,2021_Oct_07_1317,t1_Paradigm,2021.1.4,60.015267637035834,
N,left,Lure,0,55,55,55,1102.6420173060033,1104.6421786694555,left,1,2,0.6021297406987287,E12K08_neu,2021_Oct_07_1317,t1_Paradigm,2021.1.4,60.015267637035834,
X,left,Distractor,0,56,56,56,1106.1420213160454,1108.1442364542163,None,0,2,,E12K08_neu,2021_Oct_07_1317,t1_Paradigm,2021.1.4,60.015267637035834,
W,left,Distractor,0,57,57,57,1109.6421212458517,1111.6439754817402,left,1,2,1.1043251495575532,E12K08_neu,2021_Oct_07_1317,t1_Paradigm,2021.1.4,60.015267637035834,
S,left,Distractor,0,58,58,58,1113.1420072007459,1115.143775461649,right,0,2,1.3646980434423313,E12K08_neu,2021_Oct_07_1317,t1_Paradigm,2021.1.4,60.015267637035834,
L,left,Distractor,0,59,59,59,1116.6426467196434,1118.644327401591,left,1,2,0.5520958479610272,E12K08_neu,2021_Oct_07_1317,t1_Paradigm,2021.1.4,60.015267637035834,
K,left,Pretarget,0,60,60,60,1120.1420190703939,1122.1439153313404,left,1,2,0.6684914957149886,E12K08_neu,2021_Oct_07_1317,t1_Paradigm,2021.1.4,60.015267637035834,
V,left,Pretarget,0,61,61,61,1123.6420157019747,1125.6437810757197,left,1,2,0.6727488597971387,E12K08_neu,2021_Oct_07_1317,t1_Paradigm,2021.1.4,60.015267637035834,
K,right,Target,0,62,62,62,1127.141986348608,1129.1438097874634,right,1,2,1.012650508317165,E12K08_neu,2021_Oct_07_1317,t1_Paradigm,2021.1.4,60.015267637035834,
V,right,Target,0,63,63,63,1130.6420153811923,1132.6586762359948,left,0,2,0.7937015007482842,E12K08_neu,2021_Oct_07_1317,t1_Paradigm,2021.1.4,60.015267637035834,
R,left,Distractor,0,0,0,0,1223.5254837133689,1225.5109010142623,left,1,3,0.5978207274456508,E12K08_neu,2021_Oct_07_1317,t1_Paradigm,2021.1.4,60.015267637035834,
P,left,Lure,0,1,1,1,1227.0090870390413,1229.0104411445209,left,1,3,0.6659792948048562,E12K08_neu,2021_Oct_07_1317,t1_Paradigm,2021.1.4,60.015267637035834,
V,left,Distractor,0,2,2,2,1230.508853976382,1232.5103957510437,left,1,3,1.1819191469694488,E12K08_neu,2021_Oct_07_1317,t1_Paradigm,2021.1.4,60.015267637035834,
P,left,Pretarget,0,3,3,3,1234.0087912595482,1236.010528402694,right,0,3,0.9781180917634629,E12K08_neu,2021_Oct_07_1317,t1_Paradigm,2021.1.4,60.015267637035834,
Z,left,Distractor,0,4,4,4,1237.509273585456,1239.5108596308273,left,1,3,1.2374811007757671,E12K08_neu,2021_Oct_07_1317,t1_Paradigm,2021.1.4,60.015267637035834,
L,left,Pretarget,0,5,5,5,1241.0092731042532,1243.010939991742,None,0,3,,E12K08_neu,2021_Oct_07_1317,t1_Paradigm,2021.1.4,60.015267637035834,
P,right,Target,0,6,6,6,1244.5087545277202,1246.5104865380563,right,1,3,0.7982581731630489,E12K08_neu,2021_Oct_07_1317,t1_Paradigm,2021.1.4,60.015267637035834,
S,left,Distractor,0,7,7,7,1248.0087835603044,1250.0110644629458,left,1,3,0.9133908232324757,E12K08_neu,2021_Oct_07_1317,t1_Paradigm,2021.1.4,60.015267637035834,
L,right,Target,0,8,8,8,1251.5087833998841,1253.5104608738911,right,1,3,1.349980928353034,E12K08_neu,2021_Oct_07_1317,t1_Paradigm,2021.1.4,60.015267637035834,
D,left,Distractor,0,9,9,9,1255.008928242023,1257.010518457857,left,1,3,1.209797487303149,E12K08_neu,2021_Oct_07_1317,t1_Paradigm,2021.1.4,60.015267637035834,
G,left,Distractor,0,10,10,10,1258.508765435021,1260.5104579866165,None,0,3,,E12K08_neu,2021_Oct_07_1317,t1_Paradigm,2021.1.4,60.015267637035834,
M,left,Pretarget,0,11,11,11,1262.0087120214594,1264.010471299931,left,1,3,0.8819830186548643,E12K08_neu,2021_Oct_07_1317,t1_Paradigm,2021.1.4,60.015267637035834,
Y,left,Distractor,0,12,12,12,1265.5089033799013,1267.510783279955,left,1,3,1.0616373030934483,E12K08_neu,2021_Oct_07_1317,t1_Paradigm,2021.1.4,60.015267637035834,
V,left,Distractor,0,13,13,13,1269.0092756706872,1271.010439861333,right,0,3,1.0339392535970546,E12K08_neu,2021_Oct_07_1317,t1_Paradigm,2021.1.4,60.015267637035834,
M,right,Target,0,14,14,14,1272.5087660765857,1274.5107374052168,left,0,3,1.4055746414815076,E12K08_neu,2021_Oct_07_1317,t1_Paradigm,2021.1.4,60.015267637035834,
S,left,Pretarget,0,15,15,15,1276.0087075302145,1278.0104145179503,left,1,3,1.2339256515842862,E12K08_neu,2021_Oct_07_1317,t1_Paradigm,2021.1.4,60.015267637035834,
Q,left,Distractor,0,16,16,16,1279.5087237307453,1281.5104704979458,left,1,3,0.9179497411823831,E12K08_neu,2021_Oct_07_1317,t1_Paradigm,2021.1.4,60.015267637035834,
R,left,Pretarget,0,17,17,17,1283.0093022972578,1285.0108366934583,left,1,3,1.0496069052023813,E12K08_neu,2021_Oct_07_1317,t1_Paradigm,2021.1.4,60.015267637035834,
S,right,Target,0,18,18,18,1286.5086630991427,1288.5103909390164,right,1,3,0.6859309370629489,E12K08_neu,2021_Oct_07_1317,t1_Paradigm,2021.1.4,60.015267637035834,
F,left,Distractor,0,19,19,19,1290.008751159301,1292.0104337661178,left,1,3,0.9620690064039081,E12K08_neu,2021_Oct_07_1317,t1_Paradigm,2021.1.4,60.015267637035834,
R,right,Target,0,20,20,20,1293.5086400014115,1295.510779430333,right,1,3,0.8375461593968794,E12K08_neu,2021_Oct_07_1317,t1_Paradigm,2021.1.4,60.015267637035834,
P,left,Distractor,0,21,21,21,1297.008721645514,1299.0105511796428,left,1,3,0.9058057793881744,E12K08_neu,2021_Oct_07_1317,t1_Paradigm,2021.1.4,60.015267637035834,
L,left,Distractor,0,22,22,22,1300.5090932946769,1302.5109876308125,left,1,3,1.2134693876141682,E12K08_neu,2021_Oct_07_1317,t1_Paradigm,2021.1.4,60.015267637035834,
R,right,Target,0,23,23,23,1304.0087187582976,1306.0105495756143,right,1,3,1.441823349101469,E12K08_neu,2021_Oct_07_1317,t1_Paradigm,2021.1.4,60.015267637035834,
H,left,Pretarget,0,24,24,24,1307.5086945377407,1309.510658167128,left,1,3,1.0618278595502488,E12K08_neu,2021_Oct_07_1317,t1_Paradigm,2021.1.4,60.015267637035834,
G,left,Pretarget,0,25,25,25,1311.0087498761131,1313.010485094448,left,1,3,1.0659360506688245,E12K08_neu,2021_Oct_07_1317,t1_Paradigm,2021.1.4,60.015267637035834,
T,left,Distractor,0,26,26,26,1314.508836973866,1316.5109067886951,left,1,3,1.0054613341926597,E12K08_neu,2021_Oct_07_1317,t1_Paradigm,2021.1.4,60.015267637035834,
H,right,Target,0,27,27,27,1318.0092451944947,1320.0108222573763,right,1,3,0.705508524144534,E12K08_neu,2021_Oct_07_1317,t1_Paradigm,2021.1.4,60.015267637035834,
G,right,Target,0,28,28,28,1321.508760302153,1323.5105128437863,right,1,3,1.0460267542512156,E12K08_neu,2021_Oct_07_1317,t1_Paradigm,2021.1.4,60.015267637035834,
D,left,Distractor,0,29,29,29,1325.008689565293,1327.0104677710915,left,1,3,0.6339221869129688,E12K08_neu,2021_Oct_07_1317,t1_Paradigm,2021.1.4,60.015267637035834,
N,left,Pretarget,0,30,30,30,1328.508715710661,1330.5104422673467,left,1,3,0.9419322613975964,E12K08_neu,2021_Oct_07_1317,t1_Paradigm,2021.1.4,60.015267637035834,
V,left,Distractor,0,31,31,31,1332.008691490104,1334.0105518212658,left,1,3,1.1218069368624128,E12K08_neu,2021_Oct_07_1317,t1_Paradigm,2021.1.4,60.015267637035834,
R,left,Distractor,0,32,32,32,1335.508716352284,1337.5103604628239,None,0,3,,E12K08_neu,2021_Oct_07_1317,t1_Paradigm,2021.1.4,60.015267637035834,
N,right,Target,0,33,33,33,1339.0086488234228,1341.0106403626269,right,1,3,0.9216931804548949,E12K08_neu,2021_Oct_07_1317,t1_Paradigm,2021.1.4,60.015267637035834,
Z,left,Distractor,0,34,34,34,1342.508735921234,1344.5103473099298,left,1,3,0.7020198018290102,E12K08_neu,2021_Oct_07_1317,t1_Paradigm,2021.1.4,60.015267637035834,
N,left,Lure,0,35,35,35,1346.0088457959355,1348.0104729039595,left,1,3,1.169861801667139,E12K08_neu,2021_Oct_07_1317,t1_Paradigm,2021.1.4,60.015267637035834,
Y,left,Pretarget,0,36,36,36,1349.5086749687907,1351.5104958412703,left,1,3,0.8378281443729065,E12K08_neu,2021_Oct_07_1317,t1_Paradigm,2021.1.4,60.015267637035834,
Y,left,Lure,0,37,37,37,1353.0086850741063,1355.0087129838648,left,1,3,1.08363149210345,E12K08_neu,2021_Oct_07_1317,t1_Paradigm,2021.1.4,60.015267637035834,
B,left,Distractor,0,38,38,38,1356.5091998009593,1358.510657525505,left,1,3,0.8942267499514855,E12K08_neu,2021_Oct_07_1317,t1_Paradigm,2021.1.4,60.015267637035834,
Y,right,Target,0,39,39,39,1360.008694698161,1362.0106403626269,None,0,3,,E12K08_neu,2021_Oct_07_1317,t1_Paradigm,2021.1.4,60.015267637035834,
J,left,Distractor,0,40,40,40,1363.50876351021,1365.5104191696155,left,1,3,0.7099047955707647,E12K08_neu,2021_Oct_07_1317,t1_Paradigm,2021.1.4,60.015267637035834,
X,left,Distractor,0,41,41,41,1367.0093465679092,1369.0109194603865,left,1,3,1.0495404991670512,E12K08_neu,2021_Oct_07_1317,t1_Paradigm,2021.1.4,60.015267637035834,
W,left,Pretarget,0,42,42,42,1370.5087622269639,1372.5104660067009,left,1,3,1.0218440536409616,E12K08_neu,2021_Oct_07_1317,t1_Paradigm,2021.1.4,60.015267637035834,
S,left,Pretarget,0,43,43,43,1374.0087129838648,1376.0106150192441,left,1,3,0.7697334166732617,E12K08_neu,2021_Oct_07_1317,t1_Paradigm,2021.1.4,60.015267637035834,
R,left,Distractor,0,44,44,44,1377.508654116711,1379.5101063876064,left,1,3,1.0143488344037905,E12K08_neu,2021_Oct_07_1317,t1_Paradigm,2021.1.4,60.015267637035834,
W,right,Target,0,45,45,45,1381.008076512604,1383.0109268388478,right,1,3,1.0978234542999417,E12K08_neu,2021_Oct_07_1317,t1_Paradigm,2021.1.4,60.015267637035834,
S,right,Target,0,46,46,46,1384.509225144342,1386.510790658358,left,0,3,1.0535534120863304,E12K08_neu,2021_Oct_07_1317,t1_Paradigm,2021.1.4,60.015267637035834,
D,left,Distractor,0,47,47,47,1388.0088798009092,1390.0220038130647,left,1,3,0.5664774041506462,E12K08_neu,2021_Oct_07_1317,t1_Paradigm,2021.1.4,60.015267637035834,
T,left,Distractor,0,48,48,48,1391.508684272063,1393.5107582573546,left,1,3,0.7736003646859899,E12K08_neu,2021_Oct_07_1317,t1_Paradigm,2021.1.4,60.015267637035834,
S,right,Target,0,49,49,49,1395.0087553297053,1397.0097401920357,right,1,3,0.37875077757053077,E12K08_neu,2021_Oct_07_1317,t1_Paradigm,2021.1.4,60.015267637035834,
K,left,Distractor,0,50,50,50,1398.5087811542908,1400.508410307113,left,1,3,0.5120026485528797,E12K08_neu,2021_Oct_07_1317,t1_Paradigm,2021.1.4,60.015267637035834,
S,left,Lure,0,51,51,51,1402.0092249839217,1404.0109659766895,left,1,3,1.009358758397866,E12K08_neu,2021_Oct_07_1317,t1_Paradigm,2021.1.4,60.015267637035834,
T,left,Pretarget,0,52,52,52,1405.508785324695,1407.510432001669,left,1,3,1.06208321795566,E12K08_neu,2021_Oct_07_1317,t1_Paradigm,2021.1.4,60.015267637035834,
V,left,Distractor,0,53,53,53,1409.008723570325,1411.010427350062,left,1,3,1.1460999933769926,E12K08_neu,2021_Oct_07_1317,t1_Paradigm,2021.1.4,60.015267637035834,
B,left,Distractor,0,54,54,54,1412.5087436204776,1414.5107483125175,left,1,3,0.9896063341875561,E12K08_neu,2021_Oct_07_1317,t1_Paradigm,2021.1.4,60.015267637035834,
T,right,Target,0,55,55,55,1416.008750517678,1418.0111783476896,right,1,3,1.1052243576850742,E12K08_neu,2021_Oct_07_1317,t1_Paradigm,2021.1.4,60.015267637035834,
Y,left,Pretarget,0,56,56,56,1419.509305024054,1421.5108625180437,left,1,3,1.0456536614219658,E12K08_neu,2021_Oct_07_1317,t1_Paradigm,2021.1.4,60.015267637035834,
T,left,Lure,0,57,57,57,1423.0093026180402,1425.010835089488,left,1,3,1.3055245001451112,E12K08_neu,2021_Oct_07_1317,t1_Paradigm,2021.1.4,60.015267637035834,
P,left,Pretarget,0,58,58,58,1426.5093512195745,1428.5109318112954,right,0,3,1.3574261024477892,E12K08_neu,2021_Oct_07_1317,t1_Paradigm,2021.1.4,60.015267637035834,
Y,right,Target,0,59,59,59,1430.0093183373683,1432.010828031809,left,0,3,1.2655804737005383,E12K08_neu,2021_Oct_07_1317,t1_Paradigm,2021.1.4,60.015267637035834,
R,left,Distractor,0,60,60,60,1433.5087882119697,1435.510427510424,left,1,3,1.2379209203645587,E12K08_neu,2021_Oct_07_1317,t1_Paradigm,2021.1.4,60.015267637035834,
P,right,Target,0,61,61,61,1437.008781314711,1439.0104485229822,left,0,3,1.225904637714848,E12K08_neu,2021_Oct_07_1317,t1_Paradigm,2021.1.4,60.015267637035834,
L,left,Distractor,0,62,62,62,1440.5086826680927,1442.5104483625619,left,1,3,1.1819127309136093,E12K08_neu,2021_Oct_07_1317,t1_Paradigm,2021.1.4,60.015267637035834,
V,left,Distractor,0,63,63,63,1444.008711059054,1446.0104215756292,left,1,3,1.2500411428627558,E12K08_neu,2021_Oct_07_1317,t1_Paradigm,2021.1.4,60.015267637035834,
H,left,Lure,0,0,0,0,1459.3087771121645,1461.2942287389305,left,1,3,0.6701667240122333,E12K08_neu,2021_Oct_07_1317,t1_Paradigm,2021.1.4,60.015267637035834,
B,left,Distractor,0,1,1,1,1462.7925000970718,1464.7942831148976,left,1,3,0.4341738240327686,E12K08_neu,2021_Oct_07_1317,t1_Paradigm,2021.1.4,60.015267637035834,
T,left,Distractor,0,2,2,2,1466.29211080377,1468.2937831448507,left,1,3,0.5987757552065887,E12K08_neu,2021_Oct_07_1317,t1_Paradigm,2021.1.4,60.015267637035834,
R,left,Distractor,0,3,3,3,1469.7919794353074,1471.7937441674294,left,1,3,0.9386212633107789,E12K08_neu,2021_Oct_07_1317,t1_Paradigm,2021.1.4,60.015267637035834,
H,left,Pretarget,0,4,4,4,1473.2920504929498,1475.2939095408656,left,1,3,1.2626303779543377,E12K08_neu,2021_Oct_07_1317,t1_Paradigm,2021.1.4,60.015267637035834,
K,left,Distractor,0,5,5,5,1476.7919839265523,1478.7937653403496,left,1,3,1.0586432575364597,E12K08_neu,2021_Oct_07_1317,t1_Paradigm,2021.1.4,60.015267637035834,
G,left,Distractor,0,6,6,6,1480.2920180919464,1482.2937908440945,left,1,3,0.8385990317328833,E12K08_neu,2021_Oct_07_1317,t1_Paradigm,2021.1.4,60.015267637035834,
H,right,Target,0,7,7,7,1483.7926085281651,1485.7942901725182,right,1,3,1.306157442566473,E12K08_neu,2021_Oct_07_1317,t1_Paradigm,2021.1.4,60.015267637035834,
Y,left,Pretarget,0,8,8,8,1487.2920992549043,1489.2938877263223,left,1,3,0.9744641562574543,E12K08_neu,2021_Oct_07_1317,t1_Paradigm,2021.1.4,60.015267637035834,
S,left,Distractor,0,9,9,9,1490.7920824127505,1492.7938548441161,left,1,3,0.9787215203978121,E12K08_neu,2021_Oct_07_1317,t1_Paradigm,2021.1.4,60.015267637035834,
P,left,Distractor,0,10,10,10,1494.2920261120307,1496.293807525828,left,1,3,0.9986314584384672,E12K08_neu,2021_Oct_07_1317,t1_Paradigm,2021.1.4,60.015267637035834,
Y,right,Target,0,11,11,11,1497.7921106433496,1499.7939911850262,right,1,3,1.1305564921349287,E12K08_neu,2021_Oct_07_1317,t1_Paradigm,2021.1.4,60.015267637035834,
H,left,Lure,0,12,12,12,1501.2926433351822,1503.2942335509579,left,1,3,1.0701225175289437,E12K08_neu,2021_Oct_07_1317,t1_Paradigm,2021.1.4,60.015267637035834,
Q,left,Distractor,0,13,13,13,1504.7920699014794,1506.7941371499328,left,1,3,0.6902864666189998,E12K08_neu,2021_Oct_07_1317,t1_Paradigm,2021.1.4,60.015267637035834,
V,left,Pretarget,0,14,14,14,1508.2926843978348,1510.2943929895991,left,1,3,0.7899657607777044,E12K08_neu,2021_Oct_07_1317,t1_Paradigm,2021.1.4,60.015267637035834,
G,left,Distractor,0,15,15,15,1511.7920278764213,1513.7939109844738,right,0,3,1.0185125242569484,E12K08_neu,2021_Oct_07_1317,t1_Paradigm,2021.1.4,60.015267637035834,
Z,left,Pretarget,0,16,16,16,1515.2920222624089,1517.2942845585058,left,1,3,1.0060856150230393,E12K08_neu,2021_Oct_07_1317,t1_Paradigm,2021.1.4,60.015267637035834,
V,right,Target,0,17,17,17,1518.7926213602186,1520.79417725018,None,0,3,,E12K08_neu,2021_Oct_07_1317,t1_Paradigm,2021.1.4,60.015267637035834,
N,left,Distractor,0,18,18,18,1522.292029640812,1524.293752989499,left,1,3,1.0788284437148832,E12K08_neu,2021_Oct_07_1317,t1_Paradigm,2021.1.4,60.015267637035834,
Z,right,Target,0,19,19,19,1525.7919775104965,1527.793784588459,right,1,3,1.3227544578257948,E12K08_neu,2021_Oct_07_1317,t1_Paradigm,2021.1.4,60.015267637035834,
R,left,Distractor,0,20,20,20,1529.2920652498724,1531.2937821824453,left,1,3,1.0865899287164211,E12K08_neu,2021_Oct_07_1317,t1_Paradigm,2021.1.4,60.015267637035834,
P,left,Distractor,0,21,21,21,1532.7920496909646,1534.7942077263724,left,1,3,0.7861751637537964,E12K08_neu,2021_Oct_07_1317,t1_Paradigm,2021.1.4,60.015267637035834,
Z,right,Target,0,22,22,22,1536.2920235455967,1538.2941626536776,right,1,3,0.6623664220096543,E12K08_neu,2021_Oct_07_1317,t1_Paradigm,2021.1.4,60.015267637035834,
D,left,Pretarget,0,23,23,23,1539.7921205881867,1541.7939575007767,left,1,3,0.6504364351276308,E12K08_neu,2021_Oct_07_1317,t1_Paradigm,2021.1.4,60.015267637035834,
K,left,Distractor,0,24,24,24,1543.292028357624,1545.2940975308884,left,1,3,1.0062691137427464,E12K08_neu,2021_Oct_07_1317,t1_Paradigm,2021.1.4,60.015267637035834,
W,left,Distractor,0,25,25,25,1546.7920272347983,1548.79402519,left,1,3,0.8664857129333541,E12K08_neu,2021_Oct_07_1317,t1_Paradigm,2021.1.4,60.015267637035834,
D,right,Target,0,26,26,26,1550.2925666634692,1552.2941344231367,right,1,3,1.2862693190691061,E12K08_neu,2021_Oct_07_1317,t1_Paradigm,2021.1.4,60.015267637035834,
G,left,Pretarget,0,27,27,27,1553.792638683517,1555.7938891699305,left,1,3,1.3544907636824064,E12K08_neu,2021_Oct_07_1317,t1_Paradigm,2021.1.4,60.015267637035834,
V,left,Distractor,0,28,28,28,1557.2920219415682,1559.29399359104,left,1,3,1.2785235534538515,E12K08_neu,2021_Oct_07_1317,t1_Paradigm,2021.1.4,60.015267637035834,
D,right,Target,0,29,29,29,1560.7928558665444,1562.794295305328,left,0,3,1.442066196235828,E12K08_neu,2021_Oct_07_1317,t1_Paradigm,2021.1.4,60.015267637035834,
G,right,Target,0,30,30,30,1564.2922814704361,1566.293854683754,left,0,3,1.190576952882111,E12K08_neu,2021_Oct_07_1317,t1_Paradigm,2021.1.4,60.015267637035834,
B,left,Pretarget,0,31,31,31,1567.7925620118622,1569.7937820220832,left,1,3,1.1306816049618647,E12K08_neu,2021_Oct_07_1317,t1_Paradigm,2021.1.4,60.015267637035834,
N,left,Distractor,0,32,32,32,1571.2920828939532,1573.2938553253189,left,1,3,0.7825943711213768,E12K08_neu,2021_Oct_07_1317,t1_Paradigm,2021.1.4,60.015267637035834,
F,left,Distractor,0,33,33,33,1574.79199419223,1576.7937034255592,left,1,3,0.8026823542895727,E12K08_neu,2021_Oct_07_1317,t1_Paradigm,2021.1.4,60.015267637035834,
B,right,Target,0,34,34,34,1578.2920986132813,1580.293628518295,right,1,3,0.8229499866138212,E12K08_neu,2021_Oct_07_1317,t1_Paradigm,2021.1.4,60.015267637035834,
Q,left,Pretarget,0,35,35,35,1581.7921006985125,1583.7944589144317,left,1,3,0.9699215992004611,E12K08_neu,2021_Oct_07_1317,t1_Paradigm,2021.1.4,60.015267637035834,
S,left,Pretarget,0,36,36,36,1585.2920986132813,1587.2938886887277,left,1,3,0.7825869926600717,E12K08_neu,2021_Oct_07_1317,t1_Paradigm,2021.1.4,60.015267637035834,
W,left,Distractor,0,37,37,37,1588.7922594955307,1590.7938157062745,left,1,3,0.9467369138146751,E12K08_neu,2021_Oct_07_1317,t1_Paradigm,2021.1.4,60.015267637035834,
Q,right,Target,0,38,38,38,1592.2920488889795,1594.2937831448507,right,1,3,0.4545700979651883,E12K08_neu,2021_Oct_07_1317,t1_Paradigm,2021.1.4,60.015267637035834,
S,right,Target,0,39,39,39,1595.7920910743997,1597.7942805484636,left,0,3,0.842059844348114,E12K08_neu,2021_Oct_07_1317,t1_Paradigm,2021.1.4,60.015267637035834,
T,left,Distractor,0,40,40,40,1599.2924258313724,1601.294175165007,left,1,3,0.7503101353649981,E12K08_neu,2021_Oct_07_1317,t1_Paradigm,2021.1.4,60.015267637035834,
G,left,Distractor,0,41,41,41,1602.7925427636947,1604.7943386136321,left,1,3,0.8821090938872658,E12K08_neu,2021_Oct_07_1317,t1_Paradigm,2021.1.4,60.015267637035834,
D,left,Distractor,0,42,42,42,1606.292019695975,1608.293925580976,left,1,3,0.9345567012787797,E12K08_neu,2021_Oct_07_1317,t1_Paradigm,2021.1.4,60.015267637035834,
S,left,Lure,0,43,43,43,1609.791993550607,1611.7938044781913,right,0,3,1.1946954096783884,E12K08_neu,2021_Oct_07_1317,t1_Paradigm,2021.1.4,60.015267637035834,
Z,left,Pretarget,0,44,44,44,1613.292016487976,1615.293760367902,left,1,3,1.1667346232570708,E12K08_neu,2021_Oct_07_1317,t1_Paradigm,2021.1.4,60.015267637035834,
J,left,Distractor,0,45,45,45,1616.7925610494567,1618.7942221625126,left,1,3,1.0421338212909177,E12K08_neu,2021_Oct_07_1317,t1_Paradigm,2021.1.4,60.015267637035834,
M,left,Pretarget,0,46,46,46,1620.2919943525922,1622.2940548642073,left,1,3,0.8063346857670695,E12K08_neu,2021_Oct_07_1317,t1_Paradigm,2021.1.4,60.015267637035834,
Z,right,Target,0,47,47,47,1623.792109039321,1625.7943751850398,right,1,3,0.5860136077972129,E12K08_neu,2021_Oct_07_1317,t1_Paradigm,2021.1.4,60.015267637035834,
P,left,Distractor,0,48,48,48,1627.2920784027665,1629.2937995058019,left,1,3,0.5586106961127371,E12K08_neu,2021_Oct_07_1317,t1_Paradigm,2021.1.4,60.015267637035834,
M,right,Target,0,49,49,49,1630.7920326884487,1632.793739997025,right,1,3,1.3151925117126666,E12K08_neu,2021_Oct_07_1317,t1_Paradigm,2021.1.4,60.015267637035834,
K,left,Distractor,0,50,50,50,1634.2925098814885,1636.2942938617198,left,1,3,0.9983642303268425,E12K08_neu,2021_Oct_07_1317,t1_Paradigm,2021.1.4,60.015267637035834,
Y,left,Distractor,0,51,51,51,1637.792006703501,1639.7939045684761,left,1,3,0.9704801155603491,E12K08_neu,2021_Oct_07_1317,t1_Paradigm,2021.1.4,60.015267637035834,
X,left,Distractor,0,52,52,52,1641.2919792748871,1643.293964077253,left,1,3,1.198434357647784,E12K08_neu,2021_Oct_07_1317,t1_Paradigm,2021.1.4,60.015267637035834,
F,left,Pretarget,0,53,53,53,1644.7920262723928,1646.7937698315945,left,1,3,0.7066124040866271,E12K08_neu,2021_Oct_07_1317,t1_Paradigm,2021.1.4,60.015267637035834,
M,left,Lure,0,54,54,54,1648.2920059014577,1650.2942916161264,left,1,3,0.6782275172881782,E12K08_neu,2021_Oct_07_1317,t1_Paradigm,2021.1.4,60.015267637035834,
V,left,Distractor,0,55,55,55,1651.792116097,1653.7939895809977,left,1,3,0.8263565836823545,E12K08_neu,2021_Oct_07_1317,t1_Paradigm,2021.1.4,60.015267637035834,
F,right,Target,0,56,56,56,1655.2921178613906,1657.2930793051491,None,0,3,,E12K08_neu,2021_Oct_07_1317,t1_Paradigm,2021.1.4,60.015267637035834,
S,left,Distractor,0,57,57,57,1658.7921658213018,1660.7939167589066,left,1,3,0.8024789658375084,E12K08_neu,2021_Oct_07_1317,t1_Paradigm,2021.1.4,60.015267637035834,
D,left,Distractor,0,58,58,58,1662.2921281270683,1664.2931181222084,left,1,3,0.8392489766702056,E12K08_neu,2021_Oct_07_1317,t1_Paradigm,2021.1.4,60.015267637035834,
F,right,Target,0,59,59,59,1665.7920904328348,1667.7942487890832,right,1,3,1.0182109703309834,E12K08_neu,2021_Oct_07_1317,t1_Paradigm,2021.1.4,60.015267637035834,
V,left,Pretarget,0,60,60,60,1669.2920581921935,1671.2937677463633,left,1,3,0.6706062228768133,E12K08_neu,2021_Oct_07_1317,t1_Paradigm,2021.1.4,60.015267637035834,
J,left,Distractor,0,61,61,61,1672.7920201771776,1674.7938801874989,left,1,3,0.674552408978343,E12K08_neu,2021_Oct_07_1317,t1_Paradigm,2021.1.4,60.015267637035834,
V,left,Lure,0,62,62,62,1676.292002693459,1678.2938280571834,left,1,3,0.6307077503297478,E12K08_neu,2021_Oct_07_1317,t1_Paradigm,2021.1.4,60.015267637035834,
V,right,Target,0,63,63,63,1679.7921302122995,1681.7920589942369,left,0,3,1.372321262722835,E12K08_neu,2021_Oct_07_1317,t1_Paradigm,2021.1.4,60.015267637035834,
R,left,Distractor,0,0,0,0,1766.2946521976264,1768.2775370871532,left,1,4,1.1748862034874037,E12K08_neu,2021_Oct_07_1317,t1_Paradigm,2021.1.4,60.015267637035834,
F,left,Distractor,0,1,1,1,1769.7760317234788,1771.7775824806304,left,1,4,0.39504944684449583,E12K08_neu,2021_Oct_07_1317,t1_Paradigm,2021.1.4,60.015267637035834,
P,left,Pretarget,0,2,2,2,1773.2754069614457,1775.2773792525404,left,1,4,0.8150258550303988,E12K08_neu,2021_Oct_07_1317,t1_Paradigm,2021.1.4,60.015267637035834,
H,left,Distractor,0,3,3,3,1776.7753073524218,1778.7749628110323,left,1,4,0.6455185396480374,E12K08_neu,2021_Oct_07_1317,t1_Paradigm,2021.1.4,60.015267637035834,
Z,left,Distractor,0,4,4,4,1780.276058189629,1782.2775649969117,None,0,4,,E12K08_neu,2021_Oct_07_1317,t1_Paradigm,2021.1.4,60.015267637035834,
T,left,Distractor,0,5,5,5,1783.7760811269982,1785.777591463062,left,1,4,0.6668810693663545,E12K08_neu,2021_Oct_07_1317,t1_Paradigm,2021.1.4,60.015267637035834,
P,right,Target,0,6,6,6,1787.2754361544503,1789.277056525636,right,1,4,0.6713479171739891,E12K08_neu,2021_Oct_07_1317,t1_Paradigm,2021.1.4,60.015267637035834,
G,left,Distractor,0,7,7,7,1790.7753593223752,1792.7772555833217,left,1,4,0.643136263533961,E12K08_neu,2021_Oct_07_1317,t1_Paradigm,2021.1.4,60.015267637035834,
L,left,Distractor,0,8,8,8,1794.2753739188774,1796.2770889266394,left,1,4,0.6315142466919497,E12K08_neu,2021_Oct_07_1317,t1_Paradigm,2021.1.4,60.015267637035834,
P,left,Lure,0,9,9,9,1797.775329166965,1799.7770852374379,left,1,4,0.49133048485964537,E12K08_neu,2021_Oct_07_1317,t1_Paradigm,2021.1.4,60.015267637035834,
Q,left,Pretarget,0,10,10,10,1801.2758843149059,1803.2883888583165,left,1,4,0.7241464820690453,E12K08_neu,2021_Oct_07_1317,t1_Paradigm,2021.1.4,60.015267637035834,
D,left,Distractor,0,11,11,11,1804.7759685255005,1806.777488485619,left,1,4,0.5950967972166836,E12K08_neu,2021_Oct_07_1317,t1_Paradigm,2021.1.4,60.015267637035834,
M,left,Pretarget,0,12,12,12,1808.275928906398,1810.2774998740642,left,1,4,0.5029595593223348,E12K08_neu,2021_Oct_07_1317,t1_Paradigm,2021.1.4,60.015267637035834,
C,left,Distractor,0,13,13,13,1811.775394610595,1813.777123412874,left,1,4,0.5393555150949396,E12K08_neu,2021_Oct_07_1317,t1_Paradigm,2021.1.4,60.015267637035834,
Q,right,Target,0,14,14,14,1815.2754297383945,1817.2774578490062,right,1,4,0.7350649800500832,E12K08_neu,2021_Oct_07_1317,t1_Paradigm,2021.1.4,60.015267637035834,
R,left,Distractor,0,15,15,15,1818.7753869113512,1820.7772228615358,left,1,4,0.8512963771354407,E12K08_neu,2021_Oct_07_1317,t1_Paradigm,2021.1.4,60.015267637035834,
M,right,Target,0,16,16,16,1822.2755728161428,1824.27711555321,left,0,4,0.6794802493532188,E12K08_neu,2021_Oct_07_1317,t1_Paradigm,2021.1.4,60.015267637035834,
S,left,Distractor,0,17,17,17,1825.7754298988148,1827.7771349617396,left,1,4,0.5872772470465861,E12K08_neu,2021_Oct_07_1317,t1_Paradigm,2021.1.4,60.015267637035834,
Z,left,Distractor,0,18,18,18,1829.2753514627111,1831.277091172291,left,1,4,0.5753642626805231,E12K08_neu,2021_Oct_07_1317,t1_Paradigm,2021.1.4,60.015267637035834,
L,left,Pretarget,0,19,19,19,1832.7755963950767,1834.7775256986497,left,1,4,0.5311012782040052,E12K08_neu,2021_Oct_07_1317,t1_Paradigm,2021.1.4,60.015267637035834,
M,right,Target,0,20,20,20,1836.2753620491712,1838.2775143102044,right,1,4,0.6630561464116909,E12K08_neu,2021_Oct_07_1317,t1_Paradigm,2021.1.4,60.015267637035834,
P,left,Distractor,0,21,21,21,1839.7754318236257,1841.777307553275,left,1,4,0.7312727789394557,E12K08_neu,2021_Oct_07_1317,t1_Paradigm,2021.1.4,60.015267637035834,
F,left,Distractor,0,22,22,22,1843.2753591619548,1845.2772672926076,left,1,4,0.5911300798179582,E12K08_neu,2021_Oct_07_1317,t1_Paradigm,2021.1.4,60.015267637035834,
L,right,Target,0,23,23,23,1846.775347452669,1848.777430099668,left,0,4,0.754936421813909,E12K08_neu,2021_Oct_07_1317,t1_Paradigm,2021.1.4,60.015267637035834,
L,left,Lure,0,24,24,24,1850.276021297439,1852.27548042516,left,1,4,0.9210563883534633,E12K08_neu,2021_Oct_07_1317,t1_Paradigm,2021.1.4,60.015267637035834,
V,left,Pretarget,0,25,25,25,1853.7759749414981,1855.777171212365,left,1,4,1.0832686650101095,E12K08_neu,2021_Oct_07_1317,t1_Paradigm,2021.1.4,60.015267637035834,
Z,left,Distractor,0,26,26,26,1857.2753732772544,1859.27749570366,left,1,4,0.6709299121284857,E12K08_neu,2021_Oct_07_1317,t1_Paradigm,2021.1.4,60.015267637035834,
H,left,Distractor,0,27,27,27,1860.7753689464298,1862.7771150720073,left,1,4,0.7073226597858593,E12K08_neu,2021_Oct_07_1317,t1_Paradigm,2021.1.4,60.015267637035834,
X,left,Distractor,0,28,28,28,1864.2755112221348,1866.277253177308,left,1,4,0.6793236979283392,E12K08_neu,2021_Oct_07_1317,t1_Paradigm,2021.1.4,60.015267637035834,
V,right,Target,0,29,29,29,1867.7758912121644,1869.7774926560232,left,0,4,1.0029661357984878,E12K08_neu,2021_Oct_07_1317,t1_Paradigm,2021.1.4,60.015267637035834,
C,left,Distractor,0,30,30,30,1871.275883673341,1873.2775637137238,left,1,4,0.7189494887716137,E12K08_neu,2021_Oct_07_1317,t1_Paradigm,2021.1.4,60.015267637035834,
S,left,Pretarget,0,31,31,31,1874.7753237133147,1876.7771551722544,left,1,4,0.8992784199654125,E12K08_neu,2021_Oct_07_1317,t1_Paradigm,2021.1.4,60.015267637035834,
D,left,Distractor,0,32,32,32,1878.2753562747384,1880.2771360845654,left,1,4,0.7114680639933795,E12K08_neu,2021_Oct_07_1317,t1_Paradigm,2021.1.4,60.015267637035834,
V,left,Distractor,0,33,33,33,1881.7753365454264,1883.7776453578263,right,0,4,0.698888132115826,E12K08_neu,2021_Oct_07_1317,t1_Paradigm,2021.1.4,60.015267637035834,
R,left,Distractor,0,34,34,34,1885.275301417627,1887.2771094579948,left,1,4,0.7193492081132717,E12K08_neu,2021_Oct_07_1317,t1_Paradigm,2021.1.4,60.015267637035834,
S,right,Target,0,35,35,35,1888.7754305404378,1890.7770521948114,right,1,4,0.547609751985874,E12K08_neu,2021_Oct_07_1317,t1_Paradigm,2021.1.4,60.015267637035834,
Y,left,Distractor,0,36,36,36,1892.2753104000585,1894.277311563259,left,1,4,0.7276345628779382,E12K08_neu,2021_Oct_07_1317,t1_Paradigm,2021.1.4,60.015267637035834,
N,left,Pretarget,0,37,37,37,1895.7753548311302,1897.7773473327397,left,1,4,1.0351483565173112,E12K08_neu,2021_Oct_07_1317,t1_Paradigm,2021.1.4,60.015267637035834,
Z,left,Pretarget,0,38,38,38,1899.2753344601952,1901.277552806423,left,1,4,0.9588969157193787,E12K08_neu,2021_Oct_07_1317,t1_Paradigm,2021.1.4,60.015267637035834,
P,left,Pretarget,0,39,39,39,1902.7753641344025,1904.777091332653,left,1,4,0.5955250679398887,E12K08_neu,2021_Oct_07_1317,t1_Paradigm,2021.1.4,60.015267637035834,
M,left,Distractor,0,40,40,40,1906.2753652572283,1908.2771585407318,left,1,4,0.6794135225354694,E12K08_neu,2021_Oct_07_1317,t1_Paradigm,2021.1.4,60.015267637035834,
N,right,Target,0,41,41,41,1909.775799141964,1911.7775924254674,left,0,4,0.6509311119443737,E12K08_neu,2021_Oct_07_1317,t1_Paradigm,2021.1.4,60.015267637035834,
Z,right,Target,0,42,42,42,1913.2759709315142,1915.2775666009402,right,1,4,0.6868542054435238,E12K08_neu,2021_Oct_07_1317,t1_Paradigm,2021.1.4,60.015267637035834,
P,right,Target,0,43,43,43,1916.7754109714879,1918.7771198840346,left,0,4,0.5153819774277508,E12K08_neu,2021_Oct_07_1317,t1_Paradigm,2021.1.4,60.015267637035834,
X,left,Pretarget,0,44,44,44,1920.2753671820392,1922.2773369066417,left,1,4,0.45509813813259825,E12K08_neu,2021_Oct_07_1317,t1_Paradigm,2021.1.4,60.015267637035834,
Z,left,Lure,0,45,45,45,1923.7754462597077,1925.7771782700438,left,1,4,1.0032208526390605,E12K08_neu,2021_Oct_07_1317,t1_Paradigm,2021.1.4,60.015267637035834,
R,left,Pretarget,0,46,46,46,1927.275309437653,1929.2773301698035,left,1,4,1.0870858886628412,E12K08_neu,2021_Oct_07_1317,t1_Paradigm,2021.1.4,60.015267637035834,
K,left,Distractor,0,47,47,47,1930.7753545103478,1932.7770438539446,left,1,4,0.5476822532364167,E12K08_neu,2021_Oct_07_1317,t1_Paradigm,2021.1.4,60.015267637035834,
X,right,Target,0,48,48,48,1934.275836515415,1936.2775900194538,right,1,4,0.4708491983474232,E12K08_neu,2021_Oct_07_1317,t1_Paradigm,2021.1.4,60.015267637035834,
B,left,Distractor,0,49,49,49,1937.7754154627328,1939.777259753726,left,1,4,0.5232089060009457,E12K08_neu,2021_Oct_07_1317,t1_Paradigm,2021.1.4,60.015267637035834,
R,right,Target,0,50,50,50,1941.275427492801,1943.277407162299,left,0,4,1.4550314113148488,E12K08_neu,2021_Oct_07_1317,t1_Paradigm,2021.1.4,60.015267637035834,
Y,left,Pretarget,0,51,51,51,1944.7753057484515,1946.7772687362158,left,1,4,0.5793332257308066,E12K08_neu,2021_Oct_07_1317,t1_Paradigm,2021.1.4,60.015267637035834,
W,left,Pretarget,0,52,52,52,1948.2754351920448,1950.277735022013,left,1,4,0.5827504092594609,E12K08_neu,2021_Oct_07_1317,t1_Paradigm,2021.1.4,60.015267637035834,
Z,left,Distractor,0,53,53,53,1951.775452354981,1953.7771490770392,left,1,4,0.6513391721528023,E12K08_neu,2021_Oct_07_1317,t1_Paradigm,2021.1.4,60.015267637035834,
Q,left,Distractor,0,54,54,54,1955.2755943099037,1957.2770844354527,left,1,4,0.5913947414956056,E12K08_neu,2021_Oct_07_1317,t1_Paradigm,2021.1.4,60.015267637035834,
Y,right,Target,0,55,55,55,1958.7753593223752,1960.7771702499595,right,1,4,0.4193068942986429,E12K08_neu,2021_Oct_07_1317,t1_Paradigm,2021.1.4,60.015267637035834,
W,right,Target,0,56,56,56,1962.2754775379435,1964.2771020795335,right,1,4,0.42332943133078516,E12K08_neu,2021_Oct_07_1317,t1_Paradigm,2021.1.4,60.015267637035834,
H,left,Pretarget,0,57,57,57,1965.775347452669,1967.7776068615494,left,1,4,1.2428314374410547,E12K08_neu,2021_Oct_07_1317,t1_Paradigm,2021.1.4,60.015267637035834,
M,left,Distractor,0,58,58,58,1969.2753598035779,1971.2770154629834,left,1,4,0.463596505462192,E12K08_neu,2021_Oct_07_1317,t1_Paradigm,2021.1.4,60.015267637035834,
R,left,Pretarget,0,59,59,59,1972.7753448862932,1974.7773444455233,left,1,4,0.41919108474394307,E12K08_neu,2021_Oct_07_1317,t1_Paradigm,2021.1.4,60.015267637035834,
J,left,Distractor,0,60,60,60,1976.275368465227,1978.277106249996,left,1,4,0.9354138844064437,E12K08_neu,2021_Oct_07_1317,t1_Paradigm,2021.1.4,60.015267637035834,
H,right,Target,0,61,61,61,1979.775424124382,1981.7771028815187,right,1,4,0.36350722622592,E12K08_neu,2021_Oct_07_1317,t1_Paradigm,2021.1.4,60.015267637035834,
Z,left,Distractor,0,62,62,62,1983.2754403249128,1985.2775977186975,left,1,4,0.44700526469387114,E12K08_neu,2021_Oct_07_1317,t1_Paradigm,2021.1.4,60.015267637035834,
R,right,Target,0,63,63,63,1986.7752614777419,1988.7773739593104,right,1,4,0.595236987748649,E12K08_neu,2021_Oct_07_1317,t1_Paradigm,2021.1.4,60.015267637035834,
J,left,Pretarget,0,0,0,0,2001.6253083308693,2003.6108440077514,left,1,4,0.5298562453826889,E12K08_neu,2021_Oct_07_1317,t1_Paradigm,2021.1.4,60.015267637035834,
G,left,Pretarget,0,1,1,1,2005.1100482582697,2007.1109481080202,left,1,4,0.40554609009996057,E12K08_neu,2021_Oct_07_1317,t1_Paradigm,2021.1.4,60.015267637035834,
Z,left,Distractor,0,2,2,2,2008.609246092732,2010.610900148109,left,1,4,0.5695664071245119,E12K08_neu,2021_Oct_07_1317,t1_Paradigm,2021.1.4,60.015267637035834,
F,left,Distractor,0,3,3,3,2012.1087397066876,2014.110442523961,left,1,4,0.41414647246710956,E12K08_neu,2021_Oct_07_1317,t1_Paradigm,2021.1.4,60.015267637035834,
J,right,Target,0,4,4,4,2015.6086176414974,2017.6105254513095,right,1,4,0.594683283357881,E12K08_neu,2021_Oct_07_1317,t1_Paradigm,2021.1.4,60.015267637035834,
G,right,Target,0,5,5,5,2019.109236308257,2021.1108480177936,right,1,4,0.43759389471961185,E12K08_neu,2021_Oct_07_1317,t1_Paradigm,2021.1.4,60.015267637035834,
H,left,Distractor,0,6,6,6,2022.60884091974,2024.6104978623334,left,1,4,0.5063080912223086,E12K08_neu,2021_Oct_07_1317,t1_Paradigm,2021.1.4,60.015267637035834,
P,left,Distractor,0,7,7,7,2026.1086874159519,2028.1105448598391,left,1,4,0.8620827046688646,E12K08_neu,2021_Oct_07_1317,t1_Paradigm,2021.1.4,60.015267637035834,
G,left,Lure,0,8,8,8,2029.608646834502,2031.6104638573015,left,1,4,0.594472516386304,E12K08_neu,2021_Oct_07_1317,t1_Paradigm,2021.1.4,60.015267637035834,
S,left,Distractor,0,9,9,9,2033.108533430961,2035.110325110436,left,1,4,0.7901207081740722,E12K08_neu,2021_Oct_07_1317,t1_Paradigm,2021.1.4,60.015267637035834,
R,left,Pretarget,0,10,10,10,2036.608707145264,2038.6101331104292,left,1,4,0.9542693460825831,E12K08_neu,2021_Oct_07_1317,t1_Paradigm,2021.1.4,60.015267637035834,
T,left,Pretarget,0,11,11,11,2040.108775957313,2042.1101666342001,left,1,4,0.590269047068432,E12K08_neu,2021_Oct_07_1317,t1_Paradigm,2021.1.4,60.015267637035834,
X,left,Distractor,0,12,12,12,2043.6087998570292,2045.6096150150988,left,1,4,0.5310252481140196,E12K08_neu,2021_Oct_07_1317,t1_Paradigm,2021.1.4,60.015267637035834,
F,left,Pretarget,0,13,13,13,2047.1088282480487,2049.1105535214883,left,1,4,0.8218769037630409,E12K08_neu,2021_Oct_07_1317,t1_Paradigm,2021.1.4,60.015267637035834,
R,right,Target,0,14,14,14,2050.6091986140236,2052.6108244388597,right,1,4,1.0017092333291657,E12K08_neu,2021_Oct_07_1317,t1_Paradigm,2021.1.4,60.015267637035834,
T,right,Target,0,15,15,15,2054.1087807693402,2056.110407556582,left,0,4,0.5581201897584833,E12K08_neu,2021_Oct_07_1317,t1_Paradigm,2021.1.4,60.015267637035834,
C,left,Distractor,0,16,16,16,2057.608682122722,2059.610594423779,left,1,4,0.7698524342849851,E12K08_neu,2021_Oct_07_1317,t1_Paradigm,2021.1.4,60.015267637035834,
F,right,Target,0,17,17,17,2061.108765691635,2063.108380729158,left,0,4,0.6322485625860281,E12K08_neu,2021_Oct_07_1317,t1_Paradigm,2021.1.4,60.015267637035834,
M,left,Distractor,0,18,18,18,2064.6093173107947,2066.6108998273266,left,1,4,0.48958660481730476,E12K08_neu,2021_Oct_07_1317,t1_Paradigm,2021.1.4,60.015267637035834,
N,left,Distractor,0,19,19,19,2068.1092141729314,2070.1108473761706,left,1,4,0.46175734722055495,E12K08_neu,2021_Oct_07_1317,t1_Paradigm,2021.1.4,60.015267637035834,
R,left,Lure,0,20,20,20,2071.608915666584,2073.6104250403005,left,1,4,0.9461905878270045,E12K08_neu,2021_Oct_07_1317,t1_Paradigm,2021.1.4,60.015267637035834,
F,right,Target,0,21,21,21,2075.1086989648174,2077.1104973811307,left,0,4,0.662096306681633,E12K08_neu,2021_Oct_07_1317,t1_Paradigm,2021.1.4,60.015267637035834,
P,left,Distractor,0,22,22,22,2078.608686293126,2080.6105196768767,left,1,4,0.6180636580102146,E12K08_neu,2021_Oct_07_1317,t1_Paradigm,2021.1.4,60.015267637035834,
L,left,Pretarget,0,23,23,23,2082.1087490099017,2084.1108380728983,left,1,4,0.6216309769079089,E12K08_neu,2021_Oct_07_1317,t1_Paradigm,2021.1.4,60.015267637035834,
T,left,Distractor,0,24,24,24,2085.6093105739565,2087.610676549084,left,1,4,0.6418145591160282,E12K08_neu,2021_Oct_07_1317,t1_Paradigm,2021.1.4,60.015267637035834,
F,left,Distractor,0,25,25,25,2089.108788468584,2091.1104598473175,right,0,4,1.1099661329062656,E12K08_neu,2021_Oct_07_1317,t1_Paradigm,2021.1.4,60.015267637035834,
V,left,Distractor,0,26,26,26,2092.6086872555315,2094.6104834262514,left,1,4,0.5539882593438961,E12K08_neu,2021_Oct_07_1317,t1_Paradigm,2021.1.4,60.015267637035834,
L,right,Target,0,27,27,27,2096.108713721682,2098.1103504538187,left,0,4,0.7182190224993974,E12K08_neu,2021_Oct_07_1317,t1_Paradigm,2021.1.4,60.015267637035834,
S,left,Pretarget,0,28,28,28,2099.6093426541192,2101.610785942583,None,0,4,,E12K08_neu,2021_Oct_07_1317,t1_Paradigm,2021.1.4,60.015267637035834,
W,left,Distractor,0,29,29,29,2103.108748368337,2105.110496097943,left,1,4,0.5020427071140148,E12K08_neu,2021_Oct_07_1317,t1_Paradigm,2021.1.4,60.015267637035834,
Q,left,Distractor,0,30,30,30,2106.609311536362,2108.6109739326057,left,1,4,0.681490074202884,E12K08_neu,2021_Oct_07_1317,t1_Paradigm,2021.1.4,60.015267637035834,
L,right,Target,0,31,31,31,2110.1086838871124,2112.1103424337343,right,1,4,0.4942209113505669,E12K08_neu,2021_Oct_07_1317,t1_Paradigm,2021.1.4,60.015267637035834,
S,right,Target,0,32,32,32,2113.6087549447548,2115.6104985039565,right,1,4,0.8020792464376427,E12K08_neu,2021_Oct_07_1317,t1_Paradigm,2021.1.4,60.015267637035834,
Z,left,Pretarget,0,33,33,33,2117.109330624051,2119.110868549091,left,1,4,0.7095910511561669,E12K08_neu,2021_Oct_07_1317,t1_Paradigm,2021.1.4,60.015267637035834,
F,left,Distractor,0,34,34,34,2120.608713882102,2122.6104356267606,left,1,4,0.8261480623623356,E12K08_neu,2021_Oct_07_1317,t1_Paradigm,2021.1.4,60.015267637035834,
V,left,Distractor,0,35,35,35,2124.1088320976705,2126.1106635566102,left,1,4,0.6217926611425355,E12K08_neu,2021_Oct_07_1317,t1_Paradigm,2021.1.4,60.015267637035834,
M,left,Distractor,0,36,36,36,2127.6088354660897,2129.610361200641,left,1,4,0.6100817820406519,E12K08_neu,2021_Oct_07_1317,t1_Paradigm,2021.1.4,60.015267637035834,
Z,right,Target,0,37,37,37,2131.1087605588255,2133.110703336075,right,1,4,0.7738525151507929,E12K08_neu,2021_Oct_07_1317,t1_Paradigm,2021.1.4,60.015267637035834,
H,left,Pretarget,0,38,38,38,2134.6092194661614,2136.610870634322,left,1,4,0.5216058581136167,E12K08_neu,2021_Oct_07_1317,t1_Paradigm,2021.1.4,60.015267637035834,
L,left,Distractor,0,39,39,39,2138.108631917159,2140.1105496718665,left,1,4,0.621905904263258,E12K08_neu,2021_Oct_07_1317,t1_Paradigm,2021.1.4,60.015267637035834,
G,left,Distractor,0,40,40,40,2141.6087029748596,2143.61059795256,left,1,4,1.153873668750748,E12K08_neu,2021_Oct_07_1317,t1_Paradigm,2021.1.4,60.015267637035834,
K,left,Distractor,0,41,41,41,2145.108714363305,2147.1105586543563,left,1,4,0.614121642371174,E12K08_neu,2021_Oct_07_1317,t1_Paradigm,2021.1.4,60.015267637035834,
H,right,Target,0,42,42,42,2148.6087004084256,2150.61101339123,left,0,4,0.5535009609302506,E12K08_neu,2021_Oct_07_1317,t1_Paradigm,2021.1.4,60.015267637035834,
B,left,Distractor,0,43,43,43,2152.1092247593915,2154.1109064037446,left,1,4,0.4297862143139355,E12K08_neu,2021_Oct_07_1317,t1_Paradigm,2021.1.4,60.015267637035834,
Z,left,Distractor,0,44,44,44,2155.608759756782,2157.6105989149655,left,1,4,0.5780474510975182,E12K08_neu,2021_Oct_07_1317,t1_Paradigm,2021.1.4,60.015267637035834,
T,left,Pretarget,0,45,45,45,2159.1086742630578,2161.1105227245134,left,1,4,0.6461110610398464,E12K08_neu,2021_Oct_07_1317,t1_Paradigm,2021.1.4,60.015267637035834,
H,right,Target,0,46,46,46,2162.6086834059097,2164.6108488197788,left,0,4,0.5536360186524689,E12K08_neu,2021_Oct_07_1317,t1_Paradigm,2021.1.4,60.015267637035834,
F,left,Distractor,0,47,47,47,2166.1086832454894,2168.1108932508505,left,1,4,0.5735844529117458,E12K08_neu,2021_Oct_07_1317,t1_Paradigm,2021.1.4,60.015267637035834,
R,left,Distractor,0,48,48,48,2169.609285872197,2171.610936077952,left,1,4,0.6575495791621506,E12K08_neu,2021_Oct_07_1317,t1_Paradigm,2021.1.4,60.015267637035834,
T,right,Target,0,49,49,49,2173.108909731789,2175.1105811104644,left,0,4,0.613998775195796,E12K08_neu,2021_Oct_07_1317,t1_Paradigm,2021.1.4,60.015267637035834,
H,right,Target,0,50,50,50,2176.608683726692,2178.6103996969177,right,1,4,0.41006683267187327,E12K08_neu,2021_Oct_07_1317,t1_Paradigm,2021.1.4,60.015267637035834,
Y,left,Pretarget,0,51,51,51,2180.1086951151956,2182.1104232758516,left,1,4,0.5581869166344404,E12K08_neu,2021_Oct_07_1317,t1_Paradigm,2021.1.4,60.015267637035834,
H,left,Distractor,0,52,52,52,2183.626004792168,2185.6109075265704,left,1,4,0.9297347255633213,E12K08_neu,2021_Oct_07_1317,t1_Paradigm,2021.1.4,60.015267637035834,
S,left,Distractor,0,53,53,53,2187.109099325782,2189.111073220847,left,1,4,0.5814793915487826,E12K08_neu,2021_Oct_07_1317,t1_Paradigm,2021.1.4,60.015267637035834,
Q,left,Distractor,0,54,54,54,2190.6087620024337,2192.610837270913,left,1,4,0.6979578061727807,E12K08_neu,2021_Oct_07_1317,t1_Paradigm,2021.1.4,60.015267637035834,
Y,right,Target,0,55,55,55,2194.1087743532844,2196.110424238257,left,0,4,0.6700384031864814,E12K08_neu,2021_Oct_07_1317,t1_Paradigm,2021.1.4,60.015267637035834,
R,left,Distractor,0,56,56,56,2197.6089153458015,2199.610368579102,left,1,4,0.7221414692467079,E12K08_neu,2021_Oct_07_1317,t1_Paradigm,2021.1.4,60.015267637035834,
H,left,Pretarget,0,57,57,57,2201.109420448658,2203.1108913260396,left,1,4,0.5497007397934794,E12K08_neu,2021_Oct_07_1317,t1_Paradigm,2021.1.4,60.015267637035834,
J,left,Distractor,0,58,58,58,2204.6086734610726,2206.6104256818653,left,1,4,0.6500697584124282,E12K08_neu,2021_Oct_07_1317,t1_Paradigm,2021.1.4,60.015267637035834,
V,left,Distractor,0,59,59,59,2208.1087364986306,2210.110981471429,left,1,4,0.5415097008808516,E12K08_neu,2021_Oct_07_1317,t1_Paradigm,2021.1.4,60.015267637035834,
Y,left,Lure,0,60,60,60,2211.608691425936,2213.6103464437765,left,1,4,1.0262329465476796,E12K08_neu,2021_Oct_07_1317,t1_Paradigm,2021.1.4,60.015267637035834,
H,right,Target,0,61,61,61,2215.1087875061785,2217.110936879937,left,0,4,0.7416747856186703,E12K08_neu,2021_Oct_07_1317,t1_Paradigm,2021.1.4,60.015267637035834,
L,left,Distractor,0,62,62,62,2218.608716448536,2220.6106216919143,left,1,4,0.6019225025665946,E12K08_neu,2021_Oct_07_1317,t1_Paradigm,2021.1.4,60.015267637035834,
P,left,Distractor,0,63,63,63,2222.108752538741,2224.1098663635203,left,1,4,0.7507130627636798,E12K08_neu,2021_Oct_07_1317,t1_Paradigm,2021.1.4,60.015267637035834,
