Letter,CorrAnswer,Stimulus,finaln_nback_run.thisRepN,finaln_nback_run.thisTrialN,finaln_nback_run.thisN,finaln_nback_run.thisIndex,finaln_fixcross.started,finaln_nback_trial.started,finaln_trial_resp.keys,finaln_trial_resp.corr,finaln_trial_resp.rt,finaln_level,finaln_money,Participant,date,expName,psychopyVersion,frameRate,
F,left,Distractor,0,0,0,0,2465.1424146193312,2467.127565975359,left,1,0.9970755684189498,3,3.0,E12K08_neu,2021_Oct_07_1317,t1_Paradigm,2021.1.4,60.015267637035834,
P,left,Pretarget,0,1,1,1,2468.6264930528705,2470.6273630680516,left,1,0.4893597977934405,3,3.0,E12K08_neu,2021_Oct_07_1317,t1_Paradigm,2021.1.4,60.015267637035834,
B,left,Distractor,0,2,2,2,2472.125352120376,2474.1272278499673,left,1,0.46144103637197986,3,3.0,E12K08_neu,2021_Oct_07_1317,t1_Paradigm,2021.1.4,60.015267637035834,
K,left,Pretarget,0,3,3,3,2475.6254206115846,2477.627226406359,left,1,0.6572845966438763,3,3.0,E12K08_neu,2021_Oct_07_1317,t1_Paradigm,2021.1.4,60.015267637035834,
H,left,Distractor,0,4,4,4,2479.1253498747246,2481.1270449928124,left,1,0.6136516673723236,3,3.0,E12K08_neu,2021_Oct_07_1317,t1_Paradigm,2021.1.4,60.015267637035834,
P,right,Target,0,5,5,5,2482.6254632782657,2484.627642486652,right,1,0.4733966874773614,3,3.0,E12K08_neu,2021_Oct_07_1317,t1_Paradigm,2021.1.4,60.015267637035834,
L,left,Distractor,0,6,6,6,2486.125828511431,2488.127542877628,left,1,0.5890166358440183,3,3.0,E12K08_neu,2021_Oct_07_1317,t1_Paradigm,2021.1.4,60.015267637035834,
K,right,Target,0,7,7,7,2489.6258662056644,2491.627594045538,right,1,0.736924669588916,3,3.0,E12K08_neu,2021_Oct_07_1317,t1_Paradigm,2021.1.4,60.015267637035834,
Z,left,Pretarget,0,8,8,8,2493.1257771831006,2495.1270613537054,left,1,1.141527280851733,3,3.0,E12K08_neu,2021_Oct_07_1317,t1_Paradigm,2021.1.4,60.015267637035834,
S,left,Pretarget,0,9,9,9,2496.625422215613,2498.627072742209,left,1,0.6816299438942224,3,3.0,E12K08_neu,2021_Oct_07_1317,t1_Paradigm,2021.1.4,60.015267637035834,
N,left,Distractor,0,10,10,10,2500.1251936441404,2502.127619549283,left,1,0.4611083646886982,3,3.0,E12K08_neu,2021_Oct_07_1317,t1_Paradigm,2021.1.4,60.015267637035834,
M,left,Distractor,0,11,11,11,2503.6253333534696,2505.627044832392,left,1,0.4654270019964315,3,3.0,E12K08_neu,2021_Oct_07_1317,t1_Paradigm,2021.1.4,60.015267637035834,
Z,right,Target,0,12,12,12,2507.12535981962,2509.127327298629,left,0,0.8531772395945154,3,3.0,E12K08_neu,2021_Oct_07_1317,t1_Paradigm,2021.1.4,60.015267637035834,
S,right,Target,0,13,13,13,2510.625348751957,2512.627144922677,left,0,1.3533839965239167,3,3.0,E12K08_neu,2021_Oct_07_1317,t1_Paradigm,2021.1.4,60.015267637035834,
Q,left,Distractor,0,14,14,14,2514.125371047703,2516.1271097948193,left,1,1.213595783628989,3,3.0,E12K08_neu,2021_Oct_07_1317,t1_Paradigm,2021.1.4,60.015267637035834,
V,left,Lure,0,15,15,15,2517.6259377445094,2519.6275523412623,left,1,0.6410808847867884,3,3.0,E12K08_neu,2021_Oct_07_1317,t1_Paradigm,2021.1.4,60.015267637035834,
Z,right,Target,0,16,16,16,2521.1253713684855,2523.12720731867,right,1,0.6294569430756383,3,3.0,E12K08_neu,2021_Oct_07_1317,t1_Paradigm,2021.1.4,60.015267637035834,
X,left,Distractor,0,17,17,17,2524.6253465063055,2526.6271356194047,left,1,0.8254503178759478,3,3.0,E12K08_neu,2021_Oct_07_1317,t1_Paradigm,2021.1.4,60.015267637035834,
V,left,Pretarget,0,18,18,18,2528.125432000088,2530.1273099753307,left,1,0.7492835687589832,3,3.0,E12K08_neu,2021_Oct_07_1317,t1_Paradigm,2021.1.4,60.015267637035834,
E,left,Distractor,0,19,19,19,2531.6255495740334,2533.6378080621944,left,1,1.1588570079766214,3,3.0,E12K08_neu,2021_Oct_07_1317,t1_Paradigm,2021.1.4,60.015267637035834,
R,left,Distractor,0,20,20,20,2535.125974797178,2537.127616982907,left,1,1.0929001051117666,3,3.0,E12K08_neu,2021_Oct_07_1317,t1_Paradigm,2021.1.4,60.015267637035834,
G,left,Distractor,0,21,21,21,2538.6253134637373,2540.6271603211644,left,1,0.4413800006150268,3,3.0,E12K08_neu,2021_Oct_07_1317,t1_Paradigm,2021.1.4,60.015267637035834,
V,right,Target,0,22,22,22,2542.125415639195,2544.1271466870676,right,1,0.42952989344485104,3,3.0,E12K08_neu,2021_Oct_07_1317,t1_Paradigm,2021.1.4,60.015267637035834,
T,left,Pretarget,0,23,23,23,2545.6253635088215,2547.6271571131074,left,1,1.0733716007089242,3,3.0,E12K08_neu,2021_Oct_07_1317,t1_Paradigm,2021.1.4,60.015267637035834,
B,left,Distractor,0,24,24,24,2549.1253537243465,2551.127563408925,left,1,0.6929808830609545,3,3.0,E12K08_neu,2021_Oct_07_1317,t1_Paradigm,2021.1.4,60.015267637035834,
S,left,Pretarget,0,25,25,25,2552.6259592382703,2554.6275295643136,left,1,0.6811827458441257,3,3.0,E12K08_neu,2021_Oct_07_1317,t1_Paradigm,2021.1.4,60.015267637035834,
G,left,Lure,0,26,26,26,2556.125438416144,2558.127113644441,left,1,0.7976085489499383,3,3.0,E12K08_neu,2021_Oct_07_1317,t1_Paradigm,2021.1.4,60.015267637035834,
T,right,Target,0,27,27,27,2559.62531923817,2561.627032321121,left,0,0.5137134859105572,3,3.0,E12K08_neu,2021_Oct_07_1317,t1_Paradigm,2021.1.4,60.015267637035834,
H,left,Distractor,0,28,28,28,2563.1254246216267,2565.1271184564685,left,1,0.9015416784095578,3,3.0,E12K08_neu,2021_Oct_07_1317,t1_Paradigm,2021.1.4,60.015267637035834,
S,right,Target,0,29,29,29,2566.6255954487133,2568.627954627038,left,0,0.5846254972857423,3,3.0,E12K08_neu,2021_Oct_07_1317,t1_Paradigm,2021.1.4,60.015267637035834,
D,left,Distractor,0,30,30,30,2570.125430716842,2572.1270430680015,left,1,0.4456572544295341,3,3.0,E12K08_neu,2021_Oct_07_1317,t1_Paradigm,2021.1.4,60.015267637035834,
Z,left,Distractor,0,31,31,31,2573.6254186867736,2575.6271048223716,left,1,0.7054129251628183,3,3.0,E12K08_neu,2021_Oct_07_1317,t1_Paradigm,2021.1.4,60.015267637035834,
J,left,Pretarget,0,32,32,32,2577.1253418546985,2579.127106907603,left,1,0.5494546846020967,3,3.0,E12K08_neu,2021_Oct_07_1317,t1_Paradigm,2021.1.4,60.015267637035834,
C,left,Pretarget,0,33,33,33,2580.625302877219,2582.627001524146,left,1,0.665575084160082,3,3.0,E12K08_neu,2021_Oct_07_1317,t1_Paradigm,2021.1.4,60.015267637035834,
H,left,Distractor,0,34,34,34,2584.12591320317,2586.1276089628227,left,1,0.508929364848882,3,3.0,E12K08_neu,2021_Oct_07_1317,t1_Paradigm,2021.1.4,60.015267637035834,
B,left,Pretarget,0,35,35,35,2587.625419649179,2589.627241484064,left,1,0.5294642252265476,3,3.0,E12K08_neu,2021_Oct_07_1317,t1_Paradigm,2021.1.4,60.015267637035834,
J,right,Target,0,36,36,36,2591.1254592682235,2593.1265384463477,right,1,0.40612545859767124,3,3.0,E12K08_neu,2021_Oct_07_1317,t1_Paradigm,2021.1.4,60.015267637035834,
C,right,Target,0,37,37,37,2594.625501453702,2596.62738937384,left,0,0.71332390391035,3,3.0,E12K08_neu,2021_Oct_07_1317,t1_Paradigm,2021.1.4,60.015267637035834,
H,left,Distractor,0,38,38,38,2598.125428792031,2600.126714245882,left,1,1.1497805553372018,3,3.0,E12K08_neu,2021_Oct_07_1317,t1_Paradigm,2021.1.4,60.015267637035834,
B,right,Target,0,39,39,39,2601.625854335958,2603.6274981257156,left,0,0.9132012291811407,3,3.0,E12K08_neu,2021_Oct_07_1317,t1_Paradigm,2021.1.4,60.015267637035834,
F,left,Pretarget,0,40,40,40,2605.1253967118682,2607.127261213376,left,1,0.7412888607359491,3,3.0,E12K08_neu,2021_Oct_07_1317,t1_Paradigm,2021.1.4,60.015267637035834,
M,left,Distractor,0,41,41,41,2608.6254276692634,2610.6271176544833,left,1,0.5855064197676256,3,3.0,E12K08_neu,2021_Oct_07_1317,t1_Paradigm,2021.1.4,60.015267637035834,
W,left,Pretarget,0,42,42,42,2612.125424942409,2614.127265062998,left,1,0.5732543476042338,3,3.0,E12K08_neu,2021_Oct_07_1317,t1_Paradigm,2021.1.4,60.015267637035834,
Z,left,Distractor,0,43,43,43,2615.6254757895367,2617.6276389578125,left,1,0.561090175237041,3,3.0,E12K08_neu,2021_Oct_07_1317,t1_Paradigm,2021.1.4,60.015267637035834,
F,right,Target,0,44,44,44,2619.1259725515265,2621.127593243553,left,0,0.5330722859944217,3,3.0,E12K08_neu,2021_Oct_07_1317,t1_Paradigm,2021.1.4,60.015267637035834,
B,left,Lure,0,45,45,45,2622.6253981554764,2624.6272331431974,left,1,0.4892917877295986,3,3.0,E12K08_neu,2021_Oct_07_1317,t1_Paradigm,2021.1.4,60.015267637035834,
W,right,Target,0,46,46,46,2626.125429433654,2628.1272717998945,right,1,0.8932604941655882,3,3.0,E12K08_neu,2021_Oct_07_1317,t1_Paradigm,2021.1.4,60.015267637035834,
X,left,Distractor,0,47,47,47,2629.6254068171256,2631.627108351211,left,1,0.8015698128147051,3,3.0,E12K08_neu,2021_Oct_07_1317,t1_Paradigm,2021.1.4,60.015267637035834,
T,left,Distractor,0,48,48,48,2633.125342175481,2635.127498927701,left,1,0.6292083215084858,3,3.0,E12K08_neu,2021_Oct_07_1317,t1_Paradigm,2021.1.4,60.015267637035834,
L,left,Pretarget,0,49,49,49,2636.6253724913113,2638.627333875047,left,1,0.6332488234038465,3,3.0,E12K08_neu,2021_Oct_07_1317,t1_Paradigm,2021.1.4,60.015267637035834,
J,left,Distractor,0,50,50,50,2640.125355969998,2642.12710626598,left,1,0.8455575491534546,3,3.0,E12K08_neu,2021_Oct_07_1317,t1_Paradigm,2021.1.4,60.015267637035834,
Z,left,Distractor,0,51,51,51,2643.62538628577,2645.627092631941,left,1,0.913653239258565,3,3.0,E12K08_neu,2021_Oct_07_1317,t1_Paradigm,2021.1.4,60.015267637035834,
P,left,Pretarget,0,52,52,52,2647.125604912406,2649.1269564514514,left,1,0.8857014353270642,3,3.0,E12K08_neu,2021_Oct_07_1317,t1_Paradigm,2021.1.4,60.015267637035834,
L,right,Target,0,53,53,53,2650.625300952408,2652.6275924415095,right,1,0.40894851670600474,3,3.0,E12K08_neu,2021_Oct_07_1317,t1_Paradigm,2021.1.4,60.015267637035834,
V,left,Distractor,0,54,54,54,2654.125306887261,2656.127086697088,left,1,0.7494831077056006,3,3.0,E12K08_neu,2021_Oct_07_1317,t1_Paradigm,2021.1.4,60.015267637035834,
F,left,Distractor,0,55,55,55,2657.6254565414274,2659.6271943261963,left,1,1.0093529839650728,3,3.0,E12K08_neu,2021_Oct_07_1317,t1_Paradigm,2021.1.4,60.015267637035834,
P,right,Target,0,56,56,56,2661.1253675188636,2663.1272102058865,right,1,0.6137174317263998,3,3.0,E12K08_neu,2021_Oct_07_1317,t1_Paradigm,2021.1.4,60.015267637035834,
T,left,Pretarget,0,57,57,57,2664.6252980651916,2666.627219669521,left,1,0.6976607434917241,3,3.0,E12K08_neu,2021_Oct_07_1317,t1_Paradigm,2021.1.4,60.015267637035834,
D,left,Distractor,0,58,58,58,2668.125954586605,2670.127613133285,left,1,0.5889470217516646,3,3.0,E12K08_neu,2021_Oct_07_1317,t1_Paradigm,2021.1.4,60.015267637035834,
V,left,Distractor,0,59,59,59,2671.6253923810436,2673.6270778750186,left,1,0.9138399460352957,3,3.0,E12K08_neu,2021_Oct_07_1317,t1_Paradigm,2021.1.4,60.015267637035834,
Z,left,Distractor,0,60,60,60,2675.12545702263,2677.1271418750403,left,1,0.7094130060286261,3,3.0,E12K08_neu,2021_Oct_07_1317,t1_Paradigm,2021.1.4,60.015267637035834,
T,right,Target,0,61,61,61,2678.6253410527133,2680.627104180807,right,1,1.2574535951716825,3,3.0,E12K08_neu,2021_Oct_07_1317,t1_Paradigm,2021.1.4,60.015267637035834,
B,left,Distractor,0,62,62,62,2682.1254506065743,2684.125084571424,left,1,1.0876318937516771,3,3.0,E12K08_neu,2021_Oct_07_1317,t1_Paradigm,2021.1.4,60.015267637035834,
J,left,Distractor,0,63,63,63,2685.625975599163,2687.627617143269,left,1,0.8169792187400162,3,3.0,E12K08_neu,2021_Oct_07_1317,t1_Paradigm,2021.1.4,60.015267637035834,
