Letter,CorrAnswer,Stimulus,nback_run.thisRepN,nback_run.thisTrialN,nback_run.thisN,nback_run.thisIndex,fixcross.started,nback_trial.started,trial_resp.keys,trial_resp.corr,currentlevel,trial_resp.rt,Participant,date,expName,psychopyVersion,frameRate,
H,left,Distractor,0,0,0,0,536.4722761436715,538.4541899769101,None,0,1,,G14E11,2021_Oct_18_0829,t1_Paradigm,2021.1.4,59.974199377737186,
Q,left,Pretarget,0,1,1,1,539.951409426867,541.9492372775567,left,1,1,0.7946691715042107,G14E11,2021_Oct_18_0829,t1_Paradigm,2021.1.4,59.974199377737186,
Q,right,Target,0,2,2,2,543.4498585103429,545.4494671320426,left,0,1,0.6223206228460185,G14E11,2021_Oct_18_0829,t1_Paradigm,2021.1.4,59.974199377737186,
T,left,Distractor,0,3,3,3,546.949834931409,548.9523413562565,left,1,1,0.7034828494652174,G14E11,2021_Oct_18_0829,t1_Paradigm,2021.1.4,59.974199377737186,
Q,left,Lure,0,4,4,4,550.4492297386751,552.4511009759153,left,1,1,0.6448479703976773,G14E11,2021_Oct_18_0829,t1_Paradigm,2021.1.4,59.974199377737186,
L,left,Distractor,0,5,5,5,553.9493277436704,555.951115251577,left,1,1,0.824627252353821,G14E11,2021_Oct_18_0829,t1_Paradigm,2021.1.4,59.974199377737186,
V,left,Pretarget,0,6,6,6,557.4495482949424,559.451953025593,left,1,1,0.5238164897891693,G14E11,2021_Oct_18_0829,t1_Paradigm,2021.1.4,59.974199377737186,
V,right,Target,0,7,7,7,560.9498095880263,562.9494817285449,right,1,1,0.38628360361326486,G14E11,2021_Oct_18_0829,t1_Paradigm,2021.1.4,59.974199377737186,
K,left,Distractor,0,8,8,8,564.4498998937779,566.4499181794818,left,1,1,0.5980372059275396,G14E11,2021_Oct_18_0829,t1_Paradigm,2021.1.4,59.974199377737186,
G,left,Pretarget,0,9,9,9,567.9500951016671,569.9514755120617,left,1,1,0.8403661118936725,G14E11,2021_Oct_18_0829,t1_Paradigm,2021.1.4,59.974199377737186,
G,right,Target,0,10,10,10,571.4498575479374,573.4493500394165,right,1,1,0.39862870040815324,G14E11,2021_Oct_18_0829,t1_Paradigm,2021.1.4,59.974199377737186,
G,right,Target,0,11,11,11,574.9499077533837,576.9493787511601,right,1,1,0.4343621769803576,G14E11,2021_Oct_18_0829,t1_Paradigm,2021.1.4,59.974199377737186,
P,left,Pretarget,0,12,12,12,578.4498925153166,580.4532859572791,left,1,1,0.578789094928652,G14E11,2021_Oct_18_0829,t1_Paradigm,2021.1.4,59.974199377737186,
P,right,Target,0,13,13,13,581.9498727860046,583.9494047361077,right,1,1,0.6504286394338124,G14E11,2021_Oct_18_0829,t1_Paradigm,2021.1.4,59.974199377737186,
G,left,Lure,0,14,14,14,585.4497722146334,587.4515273215366,left,1,1,0.8760373528930359,G14E11,2021_Oct_18_0829,t1_Paradigm,2021.1.4,59.974199377737186,
Y,left,Distractor,0,15,15,15,588.9490200947039,590.9496507911244,left,1,1,0.6261301448685117,G14E11,2021_Oct_18_0829,t1_Paradigm,2021.1.4,59.974199377737186,
B,left,Distractor,0,16,16,16,592.4498870616662,594.4531768846791,left,1,1,0.6267002096865326,G14E11,2021_Oct_18_0829,t1_Paradigm,2021.1.4,59.974199377737186,
T,left,Pretarget,0,17,17,17,595.9492238038802,597.9512477427488,left,1,1,0.47250712098320946,G14E11,2021_Oct_18_0829,t1_Paradigm,2021.1.4,59.974199377737186,
T,right,Target,0,18,18,18,599.44918835524,601.4491703903768,right,1,1,0.36667266563745216,G14E11,2021_Oct_18_0829,t1_Paradigm,2021.1.4,59.974199377737186,
S,left,Distractor,0,19,19,19,602.949254600855,604.9489110220456,left,1,1,0.41886905155843124,G14E11,2021_Oct_18_0829,t1_Paradigm,2021.1.4,59.974199377737186,
T,left,Lure,0,20,20,20,606.4492852374096,608.4514792012633,left,1,1,0.3882687254808843,G14E11,2021_Oct_18_0829,t1_Paradigm,2021.1.4,59.974199377737186,
J,left,Distractor,0,21,21,21,609.9496745304787,611.95243695518,left,1,1,0.4232877762406133,G14E11,2021_Oct_18_0829,t1_Paradigm,2021.1.4,59.974199377737186,
P,left,Distractor,0,22,22,22,613.4494879841805,615.451387772744,left,1,1,0.4124969644472003,G14E11,2021_Oct_18_0829,t1_Paradigm,2021.1.4,59.974199377737186,
F,left,Distractor,0,23,23,23,616.948947914294,618.9508672717493,left,1,1,0.4970532745937817,G14E11,2021_Oct_18_0829,t1_Paradigm,2021.1.4,59.974199377737186,
L,left,Distractor,0,24,24,24,620.4499271619134,622.4514314017724,left,1,1,0.48430942109553143,G14E11,2021_Oct_18_0829,t1_Paradigm,2021.1.4,59.974199377737186,
W,left,Pretarget,0,25,25,25,623.9493117035599,625.9526650453336,left,1,1,0.42301509471144527,G14E11,2021_Oct_18_0829,t1_Paradigm,2021.1.4,59.974199377737186,
W,right,Target,0,26,26,26,627.4490183302551,629.4490382199874,right,1,1,0.3506640116684139,G14E11,2021_Oct_18_0829,t1_Paradigm,2021.1.4,59.974199377737186,
V,left,Distractor,0,27,27,27,630.9489825608907,632.949635392637,left,1,1,0.43404169590212405,G14E11,2021_Oct_18_0829,t1_Paradigm,2021.1.4,59.974199377737186,
W,left,Lure,0,28,28,28,634.4489724556333,636.4492691972991,left,1,1,0.45454317971598357,G14E11,2021_Oct_18_0829,t1_Paradigm,2021.1.4,59.974199377737186,
R,left,Pretarget,0,29,29,29,637.9498455178691,639.953144002473,left,1,1,0.5186041013221256,G14E11,2021_Oct_18_0829,t1_Paradigm,2021.1.4,59.974199377737186,
R,right,Target,0,30,30,30,641.4499053473701,643.4493811571738,right,1,1,0.5423861048766412,G14E11,2021_Oct_18_0829,t1_Paradigm,2021.1.4,59.974199377737186,
G,left,Distractor,0,31,31,31,644.9498551419238,646.9515695070149,left,1,1,0.5921877049840987,G14E11,2021_Oct_18_0829,t1_Paradigm,2021.1.4,59.974199377737186,
R,left,Lure,0,32,32,32,648.4491174580762,650.4510198130156,left,1,1,0.43664115329738706,G14E11,2021_Oct_18_0829,t1_Paradigm,2021.1.4,59.974199377737186,
S,left,Distractor,0,33,33,33,651.949169267551,653.9504021090688,left,1,1,0.5372641825815663,G14E11,2021_Oct_18_0829,t1_Paradigm,2021.1.4,59.974199377737186,
R,left,Lure,0,34,34,34,655.4491578791058,657.4510916726431,left,1,1,0.4446788436616771,G14E11,2021_Oct_18_0829,t1_Paradigm,2021.1.4,59.974199377737186,
P,left,Pretarget,0,35,35,35,658.948945989483,660.9495404352783,left,1,1,0.5942225511535071,G14E11,2021_Oct_18_0829,t1_Paradigm,2021.1.4,59.974199377737186,
P,right,Target,0,36,36,36,662.4490638841526,664.4491966961068,right,1,1,0.486525199492462,G14E11,2021_Oct_18_0829,t1_Paradigm,2021.1.4,59.974199377737186,
Y,left,Pretarget,0,37,37,37,665.9491942900931,667.9488106110948,left,1,1,0.49090510711539537,G14E11,2021_Oct_18_0829,t1_Paradigm,2021.1.4,59.974199377737186,
Y,right,Target,0,38,38,38,669.4497978787986,671.4492820294108,right,1,1,0.47839896782534197,G14E11,2021_Oct_18_0829,t1_Paradigm,2021.1.4,59.974199377737186,
J,left,Distractor,0,39,39,39,672.9498987709521,674.9514565847348,left,1,1,0.4322731153224595,G14E11,2021_Oct_18_0829,t1_Paradigm,2021.1.4,59.974199377737186,
Y,left,Lure,0,40,40,40,676.448906691221,678.4509408957674,left,1,1,0.9327490248251706,G14E11,2021_Oct_18_0829,t1_Paradigm,2021.1.4,59.974199377737186,
T,left,Distractor,0,41,41,41,679.9491650971468,681.9503895977978,left,1,1,0.7294325111433864,G14E11,2021_Oct_18_0829,t1_Paradigm,2021.1.4,59.974199377737186,
V,left,Distractor,0,42,42,42,683.4492708013277,685.4512633016566,left,1,1,0.5884888596483506,G14E11,2021_Oct_18_0829,t1_Paradigm,2021.1.4,59.974199377737186,
N,left,Pretarget,0,43,43,43,686.9489681248087,688.9509003143176,left,1,1,0.43289611249929294,G14E11,2021_Oct_18_0829,t1_Paradigm,2021.1.4,59.974199377737186,
N,right,Target,0,44,44,44,690.4490751122357,692.4493083351408,right,1,1,1.2224109606468119,G14E11,2021_Oct_18_0829,t1_Paradigm,2021.1.4,59.974199377737186,
N,right,Target,0,45,45,45,693.9496495079366,695.9492366359336,None,0,1,,G14E11,2021_Oct_18_0829,t1_Paradigm,2021.1.4,59.974199377737186,
X,left,Distractor,0,46,46,46,697.449752324901,699.4523581983522,left,1,1,0.7636399332550354,G14E11,2021_Oct_18_0829,t1_Paradigm,2021.1.4,59.974199377737186,
Z,left,Distractor,0,47,47,47,700.9498538586777,702.9519243138493,left,1,1,0.6397526746150106,G14E11,2021_Oct_18_0829,t1_Paradigm,2021.1.4,59.974199377737186,
H,left,Pretarget,0,48,48,48,704.4489605859271,706.450599883392,left,1,1,0.6612823284231126,G14E11,2021_Oct_18_0829,t1_Paradigm,2021.1.4,59.974199377737186,
H,right,Target,0,49,49,49,707.9489671624033,709.9493203652091,right,1,1,0.41037806816166267,G14E11,2021_Oct_18_0829,t1_Paradigm,2021.1.4,59.974199377737186,
K,left,Distractor,0,50,50,50,711.4497558537405,713.4512896073866,left,1,1,0.4445408988976851,G14E11,2021_Oct_18_0829,t1_Paradigm,2021.1.4,59.974199377737186,
V,left,Pretarget,0,51,51,51,714.9490508916788,716.9487984206062,left,1,1,0.7228730757487938,G14E11,2021_Oct_18_0829,t1_Paradigm,2021.1.4,59.974199377737186,
V,right,Target,0,52,52,52,718.4490978891263,720.4491421597777,right,1,1,0.6625908791902475,G14E11,2021_Oct_18_0829,t1_Paradigm,2021.1.4,59.974199377737186,
R,left,Distractor,0,53,53,53,721.9491294881445,723.9516003039898,left,1,1,0.568173120089341,G14E11,2021_Oct_18_0829,t1_Paradigm,2021.1.4,59.974199377737186,
V,left,Lure,0,54,54,54,725.4491873928346,727.4507461690228,left,1,1,0.6208683528820984,G14E11,2021_Oct_18_0829,t1_Paradigm,2021.1.4,59.974199377737186,
Y,left,Distractor,0,55,55,55,728.9491436033859,730.9513058078592,left,1,1,0.44836934813065454,G14E11,2021_Oct_18_0829,t1_Paradigm,2021.1.4,59.974199377737186,
Q,left,Distractor,0,56,56,56,732.4491331773461,734.4502123547718,left,1,1,0.5817982162698172,G14E11,2021_Oct_18_0829,t1_Paradigm,2021.1.4,59.974199377737186,
Z,left,Pretarget,0,57,57,57,735.9499273223337,737.9490435132175,left,1,1,0.4108047346235253,G14E11,2021_Oct_18_0829,t1_Paradigm,2021.1.4,59.974199377737186,
Z,right,Target,0,58,58,58,739.4491601246991,741.4493330369005,right,1,1,0.47831684252014384,G14E11,2021_Oct_18_0829,t1_Paradigm,2021.1.4,59.974199377737186,
B,left,Distractor,0,59,59,59,742.9497710918076,744.9513465497294,left,1,1,0.4003661632305011,G14E11,2021_Oct_18_0829,t1_Paradigm,2021.1.4,59.974199377737186,
S,left,Pretarget,0,60,60,60,746.4490436736378,748.4488386812154,left,1,1,0.42285116494167596,G14E11,2021_Oct_18_0829,t1_Paradigm,2021.1.4,59.974199377737186,
S,right,Target,0,61,61,61,749.9498105504317,751.949254600855,right,1,1,0.6184424493112601,G14E11,2021_Oct_18_0829,t1_Paradigm,2021.1.4,59.974199377737186,
T,left,Distractor,0,62,62,62,753.4497555329581,755.4512504695449,left,1,1,0.4285383401438594,G14E11,2021_Oct_18_0829,t1_Paradigm,2021.1.4,59.974199377737186,
D,left,Distractor,0,63,63,63,756.9488702802337,758.9525004739407,left,1,1,0.7351864131051116,G14E11,2021_Oct_18_0829,t1_Paradigm,2021.1.4,59.974199377737186,
R,left,Distractor,0,0,0,0,771.6318099415512,773.6178755923756,left,1,1,0.6779627414071001,G14E11,2021_Oct_18_0829,t1_Paradigm,2021.1.4,59.974199377737186,
V,left,Distractor,0,1,1,1,775.1162765555782,777.1152095685829,left,1,1,0.5724458799231797,G14E11,2021_Oct_18_0829,t1_Paradigm,2021.1.4,59.974199377737186,
N,left,Pretarget,0,2,2,2,778.6157910219627,780.6150990523747,left,1,1,0.5445749359787442,G14E11,2021_Oct_18_0829,t1_Paradigm,2021.1.4,59.974199377737186,
N,right,Target,0,3,3,3,782.1166361744399,784.1159865506925,right,1,1,0.3876951317070052,G14E11,2021_Oct_18_0829,t1_Paradigm,2021.1.4,59.974199377737186,
S,left,Distractor,0,4,4,4,785.6163485755678,787.6176189508988,left,1,1,0.45396669884212315,G14E11,2021_Oct_18_0829,t1_Paradigm,2021.1.4,59.974199377737186,
N,left,Lure,0,5,5,5,789.1158556635492,791.1169149512425,left,1,1,0.39535074710147455,G14E11,2021_Oct_18_0829,t1_Paradigm,2021.1.4,59.974199377737186,
Z,left,Distractor,0,6,6,6,792.6157714530709,794.6176497478737,None,0,1,,G14E11,2021_Oct_18_0829,t1_Paradigm,2021.1.4,59.974199377737186,
L,left,Pretarget,0,7,7,7,796.1160192724783,798.1167516630958,left,1,1,0.498974556918256,G14E11,2021_Oct_18_0829,t1_Paradigm,2021.1.4,59.974199377737186,
L,right,Target,0,8,8,8,799.6157072926871,801.6158336885856,right,1,1,0.3917609743657522,G14E11,2021_Oct_18_0829,t1_Paradigm,2021.1.4,59.974199377737186,
H,left,Distractor,0,9,9,9,803.115841869032,805.1166332872235,left,1,1,0.42694267170736566,G14E11,2021_Oct_18_0829,t1_Paradigm,2021.1.4,59.974199377737186,
L,left,Lure,0,10,10,10,806.6157913427451,808.6180122539517,None,0,1,,G14E11,2021_Oct_18_0829,t1_Paradigm,2021.1.4,59.974199377737186,
X,left,Pretarget,0,11,11,11,810.1157488365425,812.1173143495689,left,1,1,0.530463183298707,G14E11,2021_Oct_18_0829,t1_Paradigm,2021.1.4,59.974199377737186,
X,right,Target,0,12,12,12,813.615722370334,815.6157121047145,right,1,1,0.4878526774700731,G14E11,2021_Oct_18_0829,t1_Paradigm,2021.1.4,59.974199377737186,
X,right,Target,0,13,13,13,817.1157703302451,819.115671844047,right,1,1,0.5719281057245098,G14E11,2021_Oct_18_0829,t1_Paradigm,2021.1.4,59.974199377737186,
R,left,Distractor,0,14,14,14,820.6163864302216,822.6178338881582,left,1,1,0.6537643370684236,G14E11,2021_Oct_18_0829,t1_Paradigm,2021.1.4,59.974199377737186,
T,left,Distractor,0,15,15,15,824.1157728966791,826.1178484846023,left,1,1,0.8337489321129397,G14E11,2021_Oct_18_0829,t1_Paradigm,2021.1.4,59.974199377737186,
V,left,Pretarget,0,16,16,16,827.6157063302817,829.6156036736793,left,1,1,0.520151007862296,G14E11,2021_Oct_18_0829,t1_Paradigm,2021.1.4,59.974199377737186,
V,right,Target,0,17,17,17,831.1165043248911,833.1158803652506,right,1,1,0.4758075304562226,G14E11,2021_Oct_18_0829,t1_Paradigm,2021.1.4,59.974199377737186,
N,left,Distractor,0,18,18,18,834.6164704802795,836.6173956728308,left,1,1,0.4304682841175236,G14E11,2021_Oct_18_0829,t1_Paradigm,2021.1.4,59.974199377737186,
B,left,Distractor,0,19,19,19,838.115829999384,840.1172011065064,left,1,1,0.5625459348666482,G14E11,2021_Oct_18_0829,t1_Paradigm,2021.1.4,59.974199377737186,
V,left,Lure,0,20,20,20,841.6164015078684,843.6178746299702,left,1,1,0.4377193682594225,G14E11,2021_Oct_18_0829,t1_Paradigm,2021.1.4,59.974199377737186,
P,left,Distractor,0,21,21,21,845.1157376084593,847.1153407765669,left,1,1,0.46030863060150295,G14E11,2021_Oct_18_0829,t1_Paradigm,2021.1.4,59.974199377737186,
K,left,Pretarget,0,22,22,22,848.6157246159855,850.61799268506,left,1,1,0.4138440114329569,G14E11,2021_Oct_18_0829,t1_Paradigm,2021.1.4,59.974199377737186,
K,right,Target,0,23,23,23,852.1158611171413,854.115829999384,right,1,1,0.40387413144344464,G14E11,2021_Oct_18_0829,t1_Paradigm,2021.1.4,59.974199377737186,
J,left,Pretarget,0,24,24,24,855.6157387312851,857.617557356949,left,1,1,0.4381777941598557,G14E11,2021_Oct_18_0829,t1_Paradigm,2021.1.4,59.974199377737186,
J,right,Target,0,25,25,25,859.1162098287605,861.1160330669372,right,1,1,0.37981848389608786,G14E11,2021_Oct_18_0829,t1_Paradigm,2021.1.4,59.974199377737186,
H,left,Distractor,0,26,26,26,862.6163059089449,864.6178582690773,left,1,1,0.4141834197216667,G14E11,2021_Oct_18_0829,t1_Paradigm,2021.1.4,59.974199377737186,
J,left,Lure,0,27,27,27,866.1156968665891,868.117547572474,left,1,1,0.45012830471387133,G14E11,2021_Oct_18_0829,t1_Paradigm,2021.1.4,59.974199377737186,
V,left,Distractor,0,28,28,28,869.6157348816632,871.6150194935035,left,1,1,0.7767065134830773,G14E11,2021_Oct_18_0829,t1_Paradigm,2021.1.4,59.974199377737186,
Z,left,Pretarget,0,29,29,29,873.1162592322798,875.1180018279119,left,1,1,0.5055314259370789,G14E11,2021_Oct_18_0829,t1_Paradigm,2021.1.4,59.974199377737186,
Z,right,Target,0,30,30,30,876.6156466611428,878.6156906109536,right,1,1,0.48009183909744024,G14E11,2021_Oct_18_0829,t1_Paradigm,2021.1.4,59.974199377737186,
T,left,Distractor,0,31,31,31,880.1157882951666,882.1177593017346,left,1,1,0.4178238791064359,G14E11,2021_Oct_18_0829,t1_Paradigm,2021.1.4,59.974199377737186,
Z,left,Lure,0,32,32,32,883.6157881347463,885.6150008870172,left,1,1,0.9206326597486623,G14E11,2021_Oct_18_0829,t1_Paradigm,2021.1.4,59.974199377737186,
F,left,Distractor,0,33,33,33,887.116447222128,889.1179498580168,left,1,1,0.9695995334186591,G14E11,2021_Oct_18_0829,t1_Paradigm,2021.1.4,59.974199377737186,
Y,left,Pretarget,0,34,34,34,890.6156675132224,892.6175207855413,left,1,1,0.7181293787434697,G14E11,2021_Oct_18_0829,t1_Paradigm,2021.1.4,59.974199377737186,
Y,right,Target,0,35,35,35,894.1156699192361,896.1156866009696,right,1,1,0.5800171244191006,G14E11,2021_Oct_18_0829,t1_Paradigm,2021.1.4,59.974199377737186,
Y,right,Target,0,36,36,36,897.6156187513843,899.6157143503078,right,1,1,0.7117399682756513,G14E11,2021_Oct_18_0829,t1_Paradigm,2021.1.4,59.974199377737186,
W,left,Distractor,0,37,37,37,901.115700716211,903.1169332369464,left,1,1,0.5386705778655596,G14E11,2021_Oct_18_0829,t1_Paradigm,2021.1.4,59.974199377737186,
Q,left,Distractor,0,38,38,38,904.616388675815,906.6178592314827,left,1,1,0.6536979310330935,G14E11,2021_Oct_18_0829,t1_Paradigm,2021.1.4,59.974199377737186,
P,left,Pretarget,0,39,39,39,908.1158566259546,910.1177098982153,left,1,1,0.5143188302172348,G14E11,2021_Oct_18_0829,t1_Paradigm,2021.1.4,59.974199377737186,
P,right,Target,0,40,40,40,911.6156857989263,913.6157172375242,right,1,1,0.40782929747365415,G14E11,2021_Oct_18_0829,t1_Paradigm,2021.1.4,59.974199377737186,
J,left,Distractor,0,41,41,41,915.115674410481,917.115380235191,left,1,1,0.4443330192589201,G14E11,2021_Oct_18_0829,t1_Paradigm,2021.1.4,59.974199377737186,
P,left,Lure,0,42,42,42,918.6164175479789,920.6178791212151,left,1,1,0.7337293311720714,G14E11,2021_Oct_18_0829,t1_Paradigm,2021.1.4,59.974199377737186,
L,left,Distractor,0,43,43,43,922.1156535583432,924.1177115022438,left,1,1,0.5140721335774288,G14E11,2021_Oct_18_0829,t1_Paradigm,2021.1.4,59.974199377737186,
Z,left,Distractor,0,44,44,44,925.6164894076064,927.6175047454308,left,1,1,0.4060963258962147,G14E11,2021_Oct_18_0829,t1_Paradigm,2021.1.4,59.974199377737186,
F,left,Pretarget,0,45,45,45,929.1156663904549,931.1166650466039,left,1,1,0.4588624558527954,G14E11,2021_Oct_18_0829,t1_Paradigm,2021.1.4,59.974199377737186,
F,right,Target,0,46,46,46,932.6157489969046,934.615707934252,right,1,1,0.52779314952204,G14E11,2021_Oct_18_0829,t1_Paradigm,2021.1.4,59.974199377737186,
G,left,Pretarget,0,47,47,47,936.1157154731336,938.1165803549229,left,1,1,0.43497362529160455,G14E11,2021_Oct_18_0829,t1_Paradigm,2021.1.4,59.974199377737186,
G,right,Target,0,48,48,48,939.6157323152293,941.6158166861278,right,1,1,0.423765770974569,G14E11,2021_Oct_18_0829,t1_Paradigm,2021.1.4,59.974199377737186,
V,left,Distractor,0,49,49,49,943.1162268312764,945.1178176876274,left,1,1,0.4256171185406856,G14E11,2021_Oct_18_0829,t1_Paradigm,2021.1.4,59.974199377737186,
G,left,Lure,0,50,50,50,946.6154192126123,948.6153983604745,left,1,1,0.9121894758427516,G14E11,2021_Oct_18_0829,t1_Paradigm,2021.1.4,59.974199377737186,
Q,left,Pretarget,0,51,51,51,950.1163968562614,952.1178077427903,left,1,1,0.5619402609299868,G14E11,2021_Oct_18_0829,t1_Paradigm,2021.1.4,59.974199377737186,
Q,right,Target,0,52,52,52,953.6163668612717,955.6158744304557,right,1,1,0.4077144504408352,G14E11,2021_Oct_18_0829,t1_Paradigm,2021.1.4,59.974199377737186,
Y,left,Distractor,0,53,53,53,957.116309277364,959.117635472212,left,1,1,0.4899657993228175,G14E11,2021_Oct_18_0829,t1_Paradigm,2021.1.4,59.974199377737186,
V,left,Distractor,0,54,54,54,960.6162927560508,962.6179172966513,left,1,1,0.557642157713417,G14E11,2021_Oct_18_0829,t1_Paradigm,2021.1.4,59.974199377737186,
B,left,Distractor,0,55,55,55,964.1157696886221,966.1175674622064,left,1,1,0.5621090027270839,G14E11,2021_Oct_18_0829,t1_Paradigm,2021.1.4,59.974199377737186,
J,left,Pretarget,0,56,56,56,967.6156161849503,969.6168997131754,left,1,1,0.7746976522612385,G14E11,2021_Oct_18_0829,t1_Paradigm,2021.1.4,59.974199377737186,
J,right,Target,0,57,57,57,971.1156205157749,973.1155300496612,right,1,1,0.5880246594315395,G14E11,2021_Oct_18_0829,t1_Paradigm,2021.1.4,59.974199377737186,
H,left,Distractor,0,58,58,58,974.6163155329996,976.6193913811003,left,1,1,0.6041616340517066,G14E11,2021_Oct_18_0829,t1_Paradigm,2021.1.4,59.974199377737186,
J,left,Lure,0,59,59,59,978.1162601946853,980.1178013267345,left,1,1,0.8658461197046563,G14E11,2021_Oct_18_0829,t1_Paradigm,2021.1.4,59.974199377737186,
D,left,Pretarget,0,60,60,60,981.615722370334,983.6154734281008,left,1,1,0.48816770495614037,G14E11,2021_Oct_18_0829,t1_Paradigm,2021.1.4,59.974199377737186,
D,right,Target,0,61,61,61,985.1162242648425,987.1158604755765,right,1,1,0.4596567612607032,G14E11,2021_Oct_18_0829,t1_Paradigm,2021.1.4,59.974199377737186,
R,left,Distractor,0,62,62,62,988.6163100793492,990.6178435122129,left,1,1,0.461854895518627,G14E11,2021_Oct_18_0829,t1_Paradigm,2021.1.4,59.974199377737186,
F,left,Distractor,0,63,63,63,992.1164562046179,994.1171850663959,left,1,1,0.4182912874384783,G14E11,2021_Oct_18_0829,t1_Paradigm,2021.1.4,59.974199377737186,
F,left,Distractor,0,0,0,0,1119.145397022774,1121.13230670325,left,1,2,0.5070860316627659,G14E11,2021_Oct_18_0829,t1_Paradigm,2021.1.4,59.974199377737186,
N,left,Pretarget,0,1,1,1,1122.6326103421743,1124.6321102121146,None,0,2,,G14E11,2021_Oct_18_0829,t1_Paradigm,2021.1.4,59.974199377737186,
V,left,Distractor,0,2,2,2,1126.1327891892288,1128.1343614390935,left,1,2,0.8012055091676302,G14E11,2021_Oct_18_0829,t1_Paradigm,2021.1.4,59.974199377737186,
N,right,Target,0,3,3,3,1129.6321634651977,1131.634202160989,right,1,2,0.9492574880714528,G14E11,2021_Oct_18_0829,t1_Paradigm,2021.1.4,59.974199377737186,
N,left,Lure,0,4,4,4,1133.1320747634745,1135.132192497782,left,1,2,1.0353247749735601,G14E11,2021_Oct_18_0829,t1_Paradigm,2021.1.4,59.974199377737186,
X,left,Distractor,0,5,5,5,1136.6322269839584,1138.6330495199072,left,1,2,0.7024713612627238,G14E11,2021_Oct_18_0829,t1_Paradigm,2021.1.4,59.974199377737186,
G,left,Pretarget,0,6,6,6,1140.1320943324245,1142.134194942948,left,1,2,0.7692610233207233,G14E11,2021_Oct_18_0829,t1_Paradigm,2021.1.4,59.974199377737186,
H,left,Pretarget,0,7,7,7,1143.6321358762216,1145.631461871555,left,1,2,0.8880632518557832,G14E11,2021_Oct_18_0829,t1_Paradigm,2021.1.4,59.974199377737186,
G,right,Target,0,8,8,8,1147.1328183821752,1149.1346777497092,right,1,2,0.7449583582929336,G14E11,2021_Oct_18_0829,t1_Paradigm,2021.1.4,59.974199377737186,
H,right,Target,0,9,9,9,1150.6318442673655,1152.6317977511208,right,1,2,0.7677802019752562,G14E11,2021_Oct_18_0829,t1_Paradigm,2021.1.4,59.974199377737186,
T,left,Pretarget,0,10,10,10,1154.1328870338039,1156.1343957649078,None,0,2,,G14E11,2021_Oct_18_0829,t1_Paradigm,2021.1.4,59.974199377737186,
K,left,Distractor,0,11,11,11,1157.6319584728335,1159.634578461526,left,1,2,1.204864703468047,G14E11,2021_Oct_18_0829,t1_Paradigm,2021.1.4,59.974199377737186,
T,right,Target,0,12,12,12,1161.131892548059,1163.132008036715,right,1,2,0.5555822890601121,G14E11,2021_Oct_18_0829,t1_Paradigm,2021.1.4,59.974199377737186,
T,left,Lure,0,13,13,13,1164.6330321966088,1166.6323177709128,left,1,2,0.6391514919814654,G14E11,2021_Oct_18_0829,t1_Paradigm,2021.1.4,59.974199377737186,
J,left,Distractor,0,14,14,14,1168.132664718083,1170.1341205168865,left,1,2,0.641335190157406,G14E11,2021_Oct_18_0829,t1_Paradigm,2021.1.4,59.974199377737186,
Q,left,Pretarget,0,15,15,15,1171.6322478360962,1173.6321028336533,left,1,2,0.6315042174537666,G14E11,2021_Oct_18_0829,t1_Paradigm,2021.1.4,59.974199377737186,
M,left,Distractor,0,16,16,16,1175.1328296102583,1177.135544235527,left,1,2,0.9199567302712239,G14E11,2021_Oct_18_0829,t1_Paradigm,2021.1.4,59.974199377737186,
Q,right,Target,0,17,17,17,1178.6325683171162,1180.634294231073,right,1,2,0.9252339206868783,G14E11,2021_Oct_18_0829,t1_Paradigm,2021.1.4,59.974199377737186,
R,left,Distractor,0,18,18,18,1182.1330541715724,1184.1322178411065,left,1,2,0.723233015392907,G14E11,2021_Oct_18_0829,t1_Paradigm,2021.1.4,59.974199377737186,
W,left,Distractor,0,19,19,19,1185.6328477355419,1187.6344430831377,left,1,2,0.7251289543346502,G14E11,2021_Oct_18_0829,t1_Paradigm,2021.1.4,59.974199377737186,
C,left,Pretarget,0,20,20,20,1189.131954783632,1191.1320128487423,left,1,2,0.8914692050893791,G14E11,2021_Oct_18_0829,t1_Paradigm,2021.1.4,59.974199377737186,
T,left,Distractor,0,21,21,21,1192.6330431039096,1194.6343712235685,left,1,2,1.0530125058139674,G14E11,2021_Oct_18_0829,t1_Paradigm,2021.1.4,59.974199377737186,
C,right,Target,0,22,22,22,1196.1318457109737,1198.1324565177201,right,1,2,0.7549237469793297,G14E11,2021_Oct_18_0829,t1_Paradigm,2021.1.4,59.974199377737186,
F,left,Pretarget,0,23,23,23,1199.631815715984,1201.6317826734157,left,1,2,0.6477717584348284,G14E11,2021_Oct_18_0829,t1_Paradigm,2021.1.4,59.974199377737186,
C,right,Target,0,24,24,24,1203.1322479965165,1205.1338991636294,right,1,2,1.1136985918856226,G14E11,2021_Oct_18_0829,t1_Paradigm,2021.1.4,59.974199377737186,
F,right,Target,0,25,25,25,1206.6321278561954,1208.6343843764043,right,1,2,0.7010604746756144,G14E11,2021_Oct_18_0829,t1_Paradigm,2021.1.4,59.974199377737186,
H,left,Distractor,0,26,26,26,1210.131922061788,1212.134221890301,left,1,2,1.2651565240230411,G14E11,2021_Oct_18_0829,t1_Paradigm,2021.1.4,59.974199377737186,
H,left,Lure,0,27,27,27,1213.632099946437,1215.6321317058173,left,1,2,1.351287329744082,G14E11,2021_Oct_18_0829,t1_Paradigm,2021.1.4,59.974199377737186,
P,left,Distractor,0,28,28,28,1217.1324128886336,1219.1330840061419,left,1,2,0.8903544186614454,G14E11,2021_Oct_18_0829,t1_Paradigm,2021.1.4,59.974199377737186,
G,left,Pretarget,0,29,29,29,1220.6321506331442,1222.6333507528761,left,1,2,0.6861406221869402,G14E11,2021_Oct_18_0829,t1_Paradigm,2021.1.4,59.974199377737186,
K,left,Distractor,0,30,30,30,1224.1321174301556,1226.1344554340467,left,1,2,1.249033023021184,G14E11,2021_Oct_18_0829,t1_Paradigm,2021.1.4,59.974199377737186,
G,right,Target,0,31,31,31,1227.6321464626817,1229.6340943715186,right,1,2,1.3333933232352138,G14E11,2021_Oct_18_0829,t1_Paradigm,2021.1.4,59.974199377737186,
M,left,Pretarget,0,32,32,32,1231.1321206381544,1233.1334015999455,left,1,2,1.0340633820742369,G14E11,2021_Oct_18_0829,t1_Paradigm,2021.1.4,59.974199377737186,
B,left,Distractor,0,33,33,33,1234.6321371594677,1236.6332795348717,left,1,2,0.7022099077003077,G14E11,2021_Oct_18_0829,t1_Paradigm,2021.1.4,59.974199377737186,
M,right,Target,0,34,34,34,1238.1321001068573,1240.1331719058217,right,1,2,0.4984372137696482,G14E11,2021_Oct_18_0829,t1_Paradigm,2021.1.4,59.974199377737186,
M,left,Lure,0,35,35,35,1241.6325275753043,1243.6320874351659,left,1,2,0.8552477889461443,G14E11,2021_Oct_18_0829,t1_Paradigm,2021.1.4,59.974199377737186,
T,left,Distractor,0,36,36,36,1245.132047495339,1247.1341686371597,left,1,2,0.6817036118591204,G14E11,2021_Oct_18_0829,t1_Paradigm,2021.1.4,59.974199377737186,
F,left,Distractor,0,37,37,37,1248.632802502485,1250.6343041759683,left,1,2,0.9891193635994568,G14E11,2021_Oct_18_0829,t1_Paradigm,2021.1.4,59.974199377737186,
X,left,Distractor,0,38,38,38,1252.1328174197697,1254.1340521860984,left,1,2,1.1053830871242099,G14E11,2021_Oct_18_0829,t1_Paradigm,2021.1.4,59.974199377737186,
C,left,Distractor,0,39,39,39,1255.6327110739658,1257.6344719553017,left,1,2,1.0451554268947802,G14E11,2021_Oct_18_0829,t1_Paradigm,2021.1.4,59.974199377737186,
R,left,Distractor,0,40,40,40,1259.1328729185043,1261.1344130882062,left,1,2,0.600942708319053,G14E11,2021_Oct_18_0829,t1_Paradigm,2021.1.4,59.974199377737186,
B,left,Pretarget,0,41,41,41,1262.6318378513097,1264.6317432147916,left,1,2,0.6236939755617641,G14E11,2021_Oct_18_0829,t1_Paradigm,2021.1.4,59.974199377737186,
H,left,Distractor,0,42,42,42,1266.132669850951,1268.1343129979796,left,1,2,0.8331734135863371,G14E11,2021_Oct_18_0829,t1_Paradigm,2021.1.4,59.974199377737186,
B,right,Target,0,43,43,43,1269.6327502118074,1271.6342807573965,right,1,2,1.029303003451787,G14E11,2021_Oct_18_0829,t1_Paradigm,2021.1.4,59.974199377737186,
W,left,Pretarget,0,44,44,44,1273.1322078962694,1275.131865600706,left,1,2,0.5395207027904689,G14E11,2021_Oct_18_0829,t1_Paradigm,2021.1.4,59.974199377737186,
L,left,Pretarget,0,45,45,45,1276.6321214401396,1278.6318814803963,left,1,2,0.8801830752054229,G14E11,2021_Oct_18_0829,t1_Paradigm,2021.1.4,59.974199377737186,
W,right,Target,0,46,46,46,1280.1326615100843,1282.1343771583633,right,1,2,0.5292085272958502,G14E11,2021_Oct_18_0829,t1_Paradigm,2021.1.4,59.974199377737186,
L,right,Target,0,47,47,47,1283.632084227167,1285.6318795555853,right,1,2,0.4875559358042665,G14E11,2021_Oct_18_0829,t1_Paradigm,2021.1.4,59.974199377737186,
W,right,Target,0,48,48,48,1287.1328921666136,1289.1343133188202,right,1,2,0.7131633660756052,G14E11,2021_Oct_18_0829,t1_Paradigm,2021.1.4,59.974199377737186,
X,left,Distractor,0,49,49,49,1290.631901690911,1292.634421589435,left,1,2,0.572950501285959,G14E11,2021_Oct_18_0829,t1_Paradigm,2021.1.4,59.974199377737186,
R,left,Distractor,0,50,50,50,1294.1326605476788,1296.134207454219,left,1,2,0.5293791938456707,G14E11,2021_Oct_18_0829,t1_Paradigm,2021.1.4,59.974199377737186,
V,left,Pretarget,0,51,51,51,1297.6322093398776,1299.6333703217679,left,1,2,0.8699754811241291,G14E11,2021_Oct_18_0829,t1_Paradigm,2021.1.4,59.974199377737186,
Z,left,Distractor,0,52,52,52,1301.132048778527,1303.133650862961,left,1,2,0.5056841275654733,G14E11,2021_Oct_18_0829,t1_Paradigm,2021.1.4,59.974199377737186,
V,right,Target,0,53,53,53,1304.6320078762947,1306.6338929079939,right,1,2,0.9574943963671103,G14E11,2021_Oct_18_0829,t1_Paradigm,2021.1.4,59.974199377737186,
V,left,Lure,0,54,54,54,1308.1320346632856,1310.1322146331077,None,0,2,,G14E11,2021_Oct_18_0829,t1_Paradigm,2021.1.4,59.974199377737186,
N,left,Distractor,0,55,55,55,1311.6327524574008,1313.6343680155114,left,1,2,1.2210058485507034,G14E11,2021_Oct_18_0829,t1_Paradigm,2021.1.4,59.974199377737186,
B,left,Distractor,0,56,56,56,1315.1320731595042,1317.1342709729797,left,1,2,0.793018966796808,G14E11,2021_Oct_18_0829,t1_Paradigm,2021.1.4,59.974199377737186,
V,left,Lure,0,57,57,57,1318.6320476557594,1320.6342153138248,left,1,2,0.7812250075512566,G14E11,2021_Oct_18_0829,t1_Paradigm,2021.1.4,59.974199377737186,
J,left,Distractor,0,58,58,58,1322.132008036715,1324.134376837581,left,1,2,0.5929887472302653,G14E11,2021_Oct_18_0829,t1_Paradigm,2021.1.4,59.974199377737186,
H,left,Distractor,0,59,59,59,1325.632720377238,1327.6345126971719,left,1,2,0.9329087841906585,G14E11,2021_Oct_18_0829,t1_Paradigm,2021.1.4,59.974199377737186,
X,left,Pretarget,0,60,60,60,1329.1318412197288,1331.1325723271584,left,1,2,0.9228327188175172,G14E11,2021_Oct_18_0829,t1_Paradigm,2021.1.4,59.974199377737186,
P,left,Distractor,0,61,61,61,1332.6325679963338,1334.6343462010263,left,1,2,0.6530194351216778,G14E11,2021_Oct_18_0829,t1_Paradigm,2021.1.4,59.974199377737186,
X,right,Target,0,62,62,62,1336.1326958358986,1338.1342350431369,right,1,2,0.4651389440987259,G14E11,2021_Oct_18_0829,t1_Paradigm,2021.1.4,59.974199377737186,
Q,left,Distractor,0,63,63,63,1339.63202840765,1341.633749830362,left,1,2,0.5821337749948725,G14E11,2021_Oct_18_0829,t1_Paradigm,2021.1.4,59.974199377737186,
B,left,Pretarget,0,0,0,0,1354.5549490261474,1356.5507035345072,left,1,2,0.6566252479096875,G14E11,2021_Oct_18_0829,t1_Paradigm,2021.1.4,59.974199377737186,
F,left,Distractor,0,1,1,1,1358.0491542219534,1360.0494018809986,left,1,2,0.998136141221039,G14E11,2021_Oct_18_0829,t1_Paradigm,2021.1.4,59.974199377737186,
B,right,Target,0,2,2,2,1361.548702372529,1363.5485509540886,right,1,2,0.5868681687279604,G14E11,2021_Oct_18_0829,t1_Paradigm,2021.1.4,59.974199377737186,
V,left,Distractor,0,3,3,3,1365.0494467932149,1367.05081308831,left,1,2,0.5565325040952303,G14E11,2021_Oct_18_0829,t1_Paradigm,2021.1.4,59.974199377737186,
G,left,Pretarget,0,4,4,4,1368.5487530592363,1370.5480145733454,left,1,2,0.5155083634890616,G14E11,2021_Oct_18_0829,t1_Paradigm,2021.1.4,59.974199377737186,
B,left,Lure,0,5,5,5,1372.048810643144,1374.0484359465772,left,1,2,1.0150821782299317,G14E11,2021_Oct_18_0829,t1_Paradigm,2021.1.4,59.974199377737186,
G,right,Target,0,6,6,6,1375.5494334799587,1377.5509220005479,right,1,2,0.4563775247661397,G14E11,2021_Oct_18_0829,t1_Paradigm,2021.1.4,59.974199377737186,
Y,left,Pretarget,0,7,7,7,1379.0487326883012,1381.0483987336047,left,1,2,0.4949289247742854,G14E11,2021_Oct_18_0829,t1_Paradigm,2021.1.4,59.974199377737186,
P,left,Distractor,0,8,8,8,1382.5492480564862,1384.5509117348702,left,1,2,0.8004702313337475,G14E11,2021_Oct_18_0829,t1_Paradigm,2021.1.4,59.974199377737186,
Y,right,Target,0,9,9,9,1386.048599876347,1388.050675143546,None,0,2,,G14E11,2021_Oct_18_0829,t1_Paradigm,2021.1.4,59.974199377737186,
X,left,Distractor,0,10,10,10,1389.5487010893412,1391.5499798054807,left,1,2,0.5213822453515604,G14E11,2021_Oct_18_0829,t1_Paradigm,2021.1.4,59.974199377737186,
Y,right,Target,0,11,11,11,1393.0487695805496,1395.0481523577473,right,1,2,0.5752474425244145,G14E11,2021_Oct_18_0829,t1_Paradigm,2021.1.4,59.974199377737186,
N,left,Distractor,0,12,12,12,1396.5494398960145,1398.5508825419238,left,1,2,0.5446795173338614,G14E11,2021_Oct_18_0829,t1_Paradigm,2021.1.4,59.974199377737186,
Y,right,Target,0,13,13,13,1400.0495603570598,1402.0489181117737,right,1,2,0.9669708830770105,G14E11,2021_Oct_18_0829,t1_Paradigm,2021.1.4,59.974199377737186,
Y,left,Lure,0,14,14,14,1403.5493459010613,1405.548844808538,left,1,2,1.1784030420240015,G14E11,2021_Oct_18_0829,t1_Paradigm,2021.1.4,59.974199377737186,
K,left,Distractor,0,15,15,15,1407.0493691592128,1409.0509041960468,left,1,2,0.7484711385914125,G14E11,2021_Oct_18_0829,t1_Paradigm,2021.1.4,59.974199377737186,
T,left,Pretarget,0,16,16,16,1410.5493349937606,1412.5505456999526,left,1,2,0.8008446071180515,G14E11,2021_Oct_18_0829,t1_Paradigm,2021.1.4,59.974199377737186,
J,left,Distractor,0,17,17,17,1414.0488071143627,1416.049725890858,left,1,2,0.8855565062258393,G14E11,2021_Oct_18_0829,t1_Paradigm,2021.1.4,59.974199377737186,
T,right,Target,0,18,18,18,1417.5486860116362,1419.5494694097433,right,1,2,0.5058069946826436,G14E11,2021_Oct_18_0829,t1_Paradigm,2021.1.4,59.974199377737186,
S,left,Pretarget,0,19,19,19,1421.048794282251,1423.0507306422223,left,1,2,0.8447383203310892,G14E11,2021_Oct_18_0829,t1_Paradigm,2021.1.4,59.974199377737186,
R,left,Distractor,0,20,20,20,1424.5486414202023,1426.5508684266242,left,1,2,0.9923902592854574,G14E11,2021_Oct_18_0829,t1_Paradigm,2021.1.4,59.974199377737186,
S,right,Target,0,21,21,21,1428.0486354853492,1430.0485017109895,right,1,2,0.7268375449930318,G14E11,2021_Oct_18_0829,t1_Paradigm,2021.1.4,59.974199377737186,
Q,left,Distractor,0,22,22,22,1431.5493821516866,1433.5508870331687,left,1,2,0.5523986514890566,G14E11,2021_Oct_18_0829,t1_Paradigm,2021.1.4,59.974199377737186,
D,left,Distractor,0,23,23,23,1435.0492847883143,1437.0507524567656,left,1,2,0.9565396900870837,G14E11,2021_Oct_18_0829,t1_Paradigm,2021.1.4,59.974199377737186,
F,left,Distractor,0,24,24,24,1438.5493420514395,1440.5508456496755,left,1,2,0.8004654193064198,G14E11,2021_Oct_18_0829,t1_Paradigm,2021.1.4,59.974199377737186,
Z,left,Distractor,0,25,25,25,1442.049491384707,1444.061691479059,left,1,2,0.8256384197156876,G14E11,2021_Oct_18_0829,t1_Paradigm,2021.1.4,59.974199377737186,
P,left,Distractor,0,26,26,26,1445.5486645179335,1447.5507718652952,left,1,2,0.4885619704145938,G14E11,2021_Oct_18_0829,t1_Paradigm,2021.1.4,59.974199377737186,
H,left,Distractor,0,27,27,27,1449.048769259709,1451.0491696204408,left,1,2,0.8780892015201971,G14E11,2021_Oct_18_0829,t1_Paradigm,2021.1.4,59.974199377737186,
Z,left,Pretarget,0,28,28,28,1452.5483783626696,1454.5508405168657,left,1,2,0.9609035576577298,G14E11,2021_Oct_18_0829,t1_Paradigm,2021.1.4,59.974199377737186,
J,left,Pretarget,0,29,29,29,1456.0493040364236,1458.050924727344,left,1,2,1.2523222043528222,G14E11,2021_Oct_18_0829,t1_Paradigm,2021.1.4,59.974199377737186,
Z,right,Target,0,30,30,30,1459.5486738211475,1461.5483446784783,right,1,2,0.7471715702558868,G14E11,2021_Oct_18_0829,t1_Paradigm,2021.1.4,59.974199377737186,
J,right,Target,0,31,31,31,1463.048568437749,1465.0482864529477,right,1,2,0.7992348234402016,G14E11,2021_Oct_18_0829,t1_Paradigm,2021.1.4,59.974199377737186,
V,left,Pretarget,0,32,32,32,1466.549386963714,1468.5507853389718,left,1,2,0.7685927930870093,G14E11,2021_Oct_18_0829,t1_Paradigm,2021.1.4,59.974199377737186,
Z,left,Lure,0,33,33,33,1470.0486855304334,1472.0483397060307,left,1,2,0.7430989908170886,G14E11,2021_Oct_18_0829,t1_Paradigm,2021.1.4,59.974199377737186,
V,right,Target,0,34,34,34,1473.5493545627105,1475.5489115353557,right,1,2,0.4584065964445472,G14E11,2021_Oct_18_0829,t1_Paradigm,2021.1.4,59.974199377737186,
X,left,Distractor,0,35,35,35,1477.04868328484,1479.0505814693752,left,1,2,0.6206938366522081,G14E11,2021_Oct_18_0829,t1_Paradigm,2021.1.4,59.974199377737186,
S,left,Distractor,0,36,36,36,1480.5486888988526,1482.5506149931462,left,1,2,0.8006145922117867,G14E11,2021_Oct_18_0829,t1_Paradigm,2021.1.4,59.974199377737186,
Q,left,Distractor,0,37,37,37,1484.0486062924028,1486.0507248677895,left,1,2,1.2525297631509602,G14E11,2021_Oct_18_0829,t1_Paradigm,2021.1.4,59.974199377737186,
P,left,Distractor,0,38,38,38,1487.5486933900975,1489.5497988732532,left,1,2,1.3534370229463093,G14E11,2021_Oct_18_0829,t1_Paradigm,2021.1.4,59.974199377737186,
S,left,Lure,0,39,39,39,1491.0486075755907,1493.0507190933567,right,0,2,1.4045131687889807,G14E11,2021_Oct_18_0829,t1_Paradigm,2021.1.4,59.974199377737186,
K,left,Pretarget,0,40,40,40,1494.5487216206384,1496.5494764674222,left,1,2,0.7057695250259712,G14E11,2021_Oct_18_0829,t1_Paradigm,2021.1.4,59.974199377737186,
L,left,Distractor,0,41,41,41,1498.0486897008377,1500.049503254355,left,1,2,0.6620910698547959,G14E11,2021_Oct_18_0829,t1_Paradigm,2021.1.4,59.974199377737186,
K,right,Target,0,42,42,42,1501.54869371088,1503.5498495599604,right,1,2,0.4574496445711702,G14E11,2021_Oct_18_0829,t1_Paradigm,2021.1.4,59.974199377737186,
B,left,Distractor,0,43,43,43,1505.049205229443,1507.0507701008464,left,1,2,0.6685667760320939,G14E11,2021_Oct_18_0829,t1_Paradigm,2021.1.4,59.974199377737186,
N,left,Distractor,0,44,44,44,1508.5655056526884,1510.5507911134046,left,1,2,0.6404706291505136,G14E11,2021_Oct_18_0829,t1_Paradigm,2021.1.4,59.974199377737186,
S,left,Pretarget,0,45,45,45,1512.0485588136944,1514.0479303628672,left,1,2,0.6475539340171963,G14E11,2021_Oct_18_0829,t1_Paradigm,2021.1.4,59.974199377737186,
Z,left,Distractor,0,46,46,46,1515.5486587435007,1517.55047833157,left,1,2,0.7130023235804401,G14E11,2021_Oct_18_0829,t1_Paradigm,2021.1.4,59.974199377737186,
S,right,Target,0,47,47,47,1519.048714723438,1521.0507091485197,right,1,2,0.47644592612050474,G14E11,2021_Oct_18_0829,t1_Paradigm,2021.1.4,59.974199377737186,
C,left,Distractor,0,48,48,48,1522.5486641970929,1524.5507439555367,left,1,2,0.7845815573236905,G14E11,2021_Oct_18_0829,t1_Paradigm,2021.1.4,59.974199377737186,
T,left,Pretarget,0,49,49,49,1526.0494647581363,1528.0508576797438,left,1,2,0.6763205567840487,G14E11,2021_Oct_18_0829,t1_Paradigm,2021.1.4,59.974199377737186,
S,left,Lure,0,50,50,50,1529.5487065429334,1531.550509770168,left,1,2,1.0167865984840319,G14E11,2021_Oct_18_0829,t1_Paradigm,2021.1.4,59.974199377737186,
T,right,Target,0,51,51,51,1533.0487545028445,1535.0498417002964,right,1,2,0.6213694453472272,G14E11,2021_Oct_18_0829,t1_Paradigm,2021.1.4,59.974199377737186,
N,left,Pretarget,0,52,52,52,1536.5486433450133,1538.549888697802,left,1,2,0.5932784313336015,G14E11,2021_Oct_18_0829,t1_Paradigm,2021.1.4,59.974199377737186,
B,left,Distractor,0,53,53,53,1540.0487124777865,1542.0486120668356,left,1,2,1.1107731998199597,G14E11,2021_Oct_18_0829,t1_Paradigm,2021.1.4,59.974199377737186,
N,right,Target,0,54,54,54,1543.548703655717,1545.5505960658775,right,1,2,0.45668517373269424,G14E11,2021_Oct_18_0829,t1_Paradigm,2021.1.4,59.974199377737186,
N,left,Lure,0,55,55,55,1547.049591154093,1549.048895334825,left,1,2,0.9104087047162466,G14E11,2021_Oct_18_0829,t1_Paradigm,2021.1.4,59.974199377737186,
X,left,Distractor,0,56,56,56,1550.5493118960294,1552.5507712236722,left,1,2,0.7686085123568773,G14E11,2021_Oct_18_0829,t1_Paradigm,2021.1.4,59.974199377737186,
W,left,Distractor,0,57,57,57,1554.0485963475076,1556.05006080796,left,1,2,0.805155863170512,G14E11,2021_Oct_18_0829,t1_Paradigm,2021.1.4,59.974199377737186,
S,left,Distractor,0,58,58,58,1557.548623455281,1559.5507648076164,left,1,2,0.8086776259006001,G14E11,2021_Oct_18_0829,t1_Paradigm,2021.1.4,59.974199377737186,
L,left,Distractor,0,59,59,59,1561.0485963475076,1563.0507450783043,left,1,2,0.636492365389131,G14E11,2021_Oct_18_0829,t1_Paradigm,2021.1.4,59.974199377737186,
K,left,Pretarget,0,60,60,60,1564.5486356457695,1566.550835384056,left,1,2,0.7363704927847721,G14E11,2021_Oct_18_0829,t1_Paradigm,2021.1.4,59.974199377737186,
V,left,Pretarget,0,61,61,61,1568.0486492798082,1570.0496001365245,left,1,2,0.8697287844843231,G14E11,2021_Oct_18_0829,t1_Paradigm,2021.1.4,59.974199377737186,
K,right,Target,0,62,62,62,1571.549251264485,1573.5507468427531,right,1,2,0.4245193345705047,G14E11,2021_Oct_18_0829,t1_Paradigm,2021.1.4,59.974199377737186,
V,right,Target,0,63,63,63,1575.0483339315979,1577.0507097901427,right,1,2,0.6525600468739867,G14E11,2021_Oct_18_0829,t1_Paradigm,2021.1.4,59.974199377737186,
R,left,Distractor,0,0,0,0,1671.9776086724014,1673.9673272938817,left,1,3,0.7279943564790301,G14E11,2021_Oct_18_0829,t1_Paradigm,2021.1.4,59.974199377737186,
P,left,Lure,0,1,1,1,1675.4656041067792,1677.4648040269385,left,1,3,0.5904393349192105,G14E11,2021_Oct_18_0829,t1_Paradigm,2021.1.4,59.974199377737186,
V,left,Distractor,0,2,2,2,1678.9651881871396,1680.9670706524048,left,1,3,1.2481437603128143,G14E11,2021_Oct_18_0829,t1_Paradigm,2021.1.4,59.974199377737186,
P,left,Pretarget,0,3,3,3,1682.4651742322603,1684.467352476844,left,1,3,0.8358023847686127,G14E11,2021_Oct_18_0829,t1_Paradigm,2021.1.4,59.974199377737186,
Z,left,Distractor,0,4,4,4,1685.9651596358162,1687.9663296001381,left,1,3,0.7451200424693525,G14E11,2021_Oct_18_0829,t1_Paradigm,2021.1.4,59.974199377737186,
L,left,Pretarget,0,5,5,5,1689.4650273050065,1691.4664102818351,left,1,3,0.8766747861518525,G14E11,2021_Oct_18_0829,t1_Paradigm,2021.1.4,59.974199377737186,
P,right,Target,0,6,6,6,1692.96532228234,1694.9672130884137,right,1,3,0.7199393428163603,G14E11,2021_Oct_18_0829,t1_Paradigm,2021.1.4,59.974199377737186,
S,left,Distractor,0,7,7,7,1696.4652101621032,1698.4662832442555,left,1,3,0.8048588006640784,G14E11,2021_Oct_18_0829,t1_Paradigm,2021.1.4,59.974199377737186,
L,right,Target,0,8,8,8,1699.9651407084893,1701.9665378005593,right,1,3,0.5527332478086464,G14E11,2021_Oct_18_0829,t1_Paradigm,2021.1.4,59.974199377737186,
D,left,Distractor,0,9,9,9,1703.4659011692856,1705.4673627425218,left,1,3,1.16418638714822,G14E11,2021_Oct_18_0829,t1_Paradigm,2021.1.4,59.974199377737186,
G,left,Distractor,0,10,10,10,1706.9649841571809,1708.9672679455834,left,1,3,0.8480939076398499,G14E11,2021_Oct_18_0829,t1_Paradigm,2021.1.4,59.974199377737186,
M,left,Pretarget,0,11,11,11,1710.4649098915397,1712.4648845482152,left,1,3,1.014523662161082,G14E11,2021_Oct_18_0829,t1_Paradigm,2021.1.4,59.974199377737186,
Y,left,Distractor,0,12,12,12,1713.965747665614,1715.9673513540183,left,1,3,0.8398643778054975,G14E11,2021_Oct_18_0829,t1_Paradigm,2021.1.4,59.974199377737186,
V,left,Distractor,0,13,13,13,1717.4651572298026,1719.4648832650273,left,1,3,0.830483490077313,G14E11,2021_Oct_18_0829,t1_Paradigm,2021.1.4,59.974199377737186,
M,right,Target,0,14,14,14,1720.9658326780773,1722.9649286584463,right,1,3,1.1543852490140125,G14E11,2021_Oct_18_0829,t1_Paradigm,2021.1.4,59.974199377737186,
S,left,Pretarget,0,15,15,15,1724.4656589638907,1726.4672658603522,left,1,3,1.1081099028815515,G14E11,2021_Oct_18_0829,t1_Paradigm,2021.1.4,59.974199377737186,
Q,left,Distractor,0,16,16,16,1727.965108307486,1729.9648237562506,left,1,3,1.1149506815127097,G14E11,2021_Oct_18_0829,t1_Paradigm,2021.1.4,59.974199377737186,
R,left,Pretarget,0,17,17,17,1731.4651649290463,1733.4647825332358,left,1,3,1.4224568994832225,G14E11,2021_Oct_18_0829,t1_Paradigm,2021.1.4,59.974199377737186,
S,right,Target,0,18,18,18,1734.9659324474633,1736.967349750048,right,1,3,1.0078006177791394,G14E11,2021_Oct_18_0829,t1_Paradigm,2021.1.4,59.974199377737186,
F,left,Distractor,0,19,19,19,1738.465114883962,1740.4667384620989,left,1,3,1.396610535972286,G14E11,2021_Oct_18_0829,t1_Paradigm,2021.1.4,59.974199377737186,
R,right,Target,0,20,20,20,1741.9652459314675,1743.967279494449,None,0,3,,G14E11,2021_Oct_18_0829,t1_Paradigm,2021.1.4,59.974199377737186,
P,left,Distractor,0,21,21,21,1745.4651373400702,1747.4649256108678,left,1,3,1.1343258300912566,G14E11,2021_Oct_18_0829,t1_Paradigm,2021.1.4,59.974199377737186,
L,left,Distractor,0,22,22,22,1748.9657046781504,1750.9672358653625,left,1,3,1.1519795559579507,G14E11,2021_Oct_18_0829,t1_Paradigm,2021.1.4,59.974199377737186,
R,right,Target,0,23,23,23,1752.4650840869872,1754.4648624128895,right,1,3,1.1903083194047213,G14E11,2021_Oct_18_0829,t1_Paradigm,2021.1.4,59.974199377737186,
H,left,Pretarget,0,24,24,24,1755.965148407733,1757.9671970483614,left,1,3,1.2079655741108581,G14E11,2021_Oct_18_0829,t1_Paradigm,2021.1.4,59.974199377737186,
G,left,Pretarget,0,25,25,25,1759.4659903522115,1761.467752195953,left,1,3,1.0034069156390615,G14E11,2021_Oct_18_0829,t1_Paradigm,2021.1.4,59.974199377737186,
T,left,Distractor,0,26,26,26,1762.9651121571078,1764.9670915045426,left,1,3,0.800091685145162,G14E11,2021_Oct_18_0829,t1_Paradigm,2021.1.4,59.974199377737186,
H,right,Target,0,27,27,27,1766.4652059916407,1768.4669614193845,right,1,3,1.0600653345463797,G14E11,2021_Oct_18_0829,t1_Paradigm,2021.1.4,59.974199377737186,
G,right,Target,0,28,28,28,1769.965082643379,1771.9662038458046,right,1,3,0.6971312935929745,G14E11,2021_Oct_18_0829,t1_Paradigm,2021.1.4,59.974199377737186,
D,left,Distractor,0,29,29,29,1773.4650658012833,1775.4661555651692,left,1,3,0.876909933926072,G14E11,2021_Oct_18_0829,t1_Paradigm,2021.1.4,59.974199377737186,
N,left,Pretarget,0,30,30,30,1776.9651121571078,1778.9674026823486,left,1,3,0.9118603331153281,G14E11,2021_Oct_18_0829,t1_Paradigm,2021.1.4,59.974199377737186,
V,left,Distractor,0,31,31,31,1780.4651152047445,1782.466538281762,left,1,3,0.9166540751466528,G14E11,2021_Oct_18_0829,t1_Paradigm,2021.1.4,59.974199377737186,
R,left,Distractor,0,32,32,32,1783.9649690794758,1785.9664258406847,left,1,3,1.272610675834585,G14E11,2021_Oct_18_0829,t1_Paradigm,2021.1.4,59.974199377737186,
N,right,Target,0,33,33,33,1787.4650985230692,1789.4663259109366,left,0,3,1.0688578716362827,G14E11,2021_Oct_18_0829,t1_Paradigm,2021.1.4,59.974199377737186,
Z,left,Distractor,0,34,34,34,1790.9649613802321,1792.9673436547746,left,1,3,0.7999149233219214,G14E11,2021_Oct_18_0829,t1_Paradigm,2021.1.4,59.974199377737186,
N,left,Lure,0,35,35,35,1794.4649766183575,1796.4646551748738,None,0,3,,G14E11,2021_Oct_18_0829,t1_Paradigm,2021.1.4,59.974199377737186,
Y,left,Pretarget,0,36,36,36,1797.965443866211,1799.9673555244808,left,1,3,1.207779188232962,G14E11,2021_Oct_18_0829,t1_Paradigm,2021.1.4,59.974199377737186,
Y,left,Lure,0,37,37,37,1801.465087294986,1803.4651049390668,left,1,3,1.0060102226561867,G14E11,2021_Oct_18_0829,t1_Paradigm,2021.1.4,59.974199377737186,
B,left,Distractor,0,38,38,38,1804.9650377311045,1806.9660485777422,left,1,3,0.7370627832133323,G14E11,2021_Oct_18_0829,t1_Paradigm,2021.1.4,59.974199377737186,
Y,right,Target,0,39,39,39,1808.4648328991025,1810.4673258502735,right,1,3,1.1878516188589856,G14E11,2021_Oct_18_0829,t1_Paradigm,2021.1.4,59.974199377737186,
J,left,Distractor,0,40,40,40,1811.9656934500672,1813.9671931987396,left,1,3,0.8240161247667857,G14E11,2021_Oct_18_0829,t1_Paradigm,2021.1.4,59.974199377737186,
X,left,Distractor,0,41,41,41,1815.4656721167266,1817.467287995678,left,1,3,0.9078503100317903,G14E11,2021_Oct_18_0829,t1_Paradigm,2021.1.4,59.974199377737186,
W,left,Pretarget,0,42,42,42,1818.965842943755,1820.9673712437507,left,1,3,0.8157477779313922,G14E11,2021_Oct_18_0829,t1_Paradigm,2021.1.4,59.974199377737186,
S,left,Pretarget,0,43,43,43,1822.465055214765,1824.467455454229,left,1,3,0.7076362709631212,G14E11,2021_Oct_18_0829,t1_Paradigm,2021.1.4,59.974199377737186,
R,left,Distractor,0,44,44,44,1825.9650056508835,1827.965950091544,left,1,3,1.001210706133861,G14E11,2021_Oct_18_0829,t1_Paradigm,2021.1.4,59.974199377737186,
W,right,Target,0,45,45,45,1829.4651071847184,1831.4663733895868,right,1,3,1.1651584167848341,G14E11,2021_Oct_18_0829,t1_Paradigm,2021.1.4,59.974199377737186,
S,right,Target,0,46,46,46,1832.9650633952697,1834.9672483766335,left,0,3,1.1519362476537935,G14E11,2021_Oct_18_0829,t1_Paradigm,2021.1.4,59.974199377737186,
D,left,Distractor,0,47,47,47,1836.4649968288722,1838.4659412695328,left,1,3,0.7091626462060958,G14E11,2021_Oct_18_0829,t1_Paradigm,2021.1.4,59.974199377737186,
T,left,Distractor,0,48,48,48,1839.9650880969712,1841.9644445684971,left,1,3,0.7787038257811219,G14E11,2021_Oct_18_0829,t1_Paradigm,2021.1.4,59.974199377737186,
S,right,Target,0,49,49,49,1843.4657272946788,1845.4670977601781,right,1,3,0.6681083501898684,G14E11,2021_Oct_18_0829,t1_Paradigm,2021.1.4,59.974199377737186,
K,left,Distractor,0,50,50,50,1846.9658759863232,1848.967295855342,left,1,3,0.6718129699584097,G14E11,2021_Oct_18_0829,t1_Paradigm,2021.1.4,59.974199377737186,
S,left,Lure,0,51,51,51,1850.4650837661466,1852.4670377702569,right,0,3,0.660110118391458,G14E11,2021_Oct_18_0829,t1_Paradigm,2021.1.4,59.974199377737186,
T,left,Pretarget,0,52,52,52,1853.9649129391764,1855.9645173904719,left,1,3,0.9867207281640731,G14E11,2021_Oct_18_0829,t1_Paradigm,2021.1.4,59.974199377737186,
V,left,Distractor,0,53,53,53,1857.4651389440987,1859.4673043565708,left,1,3,1.0679265838698484,G14E11,2021_Oct_18_0829,t1_Paradigm,2021.1.4,59.974199377737186,
B,left,Distractor,0,54,54,54,1860.9657608184498,1862.977892582072,left,1,3,0.901390323182568,G14E11,2021_Oct_18_0829,t1_Paradigm,2021.1.4,59.974199377737186,
T,right,Target,0,55,55,55,1864.4650815205532,1866.4663875048864,right,1,3,0.5007688016048633,G14E11,2021_Oct_18_0829,t1_Paradigm,2021.1.4,59.974199377737186,
Y,left,Pretarget,0,56,56,56,1867.9650014804793,1869.9662994447863,left,1,3,0.9207853614352643,G14E11,2021_Oct_18_0829,t1_Paradigm,2021.1.4,59.974199377737186,
T,left,Lure,0,57,57,57,1871.465047836362,1873.4662104222807,left,1,3,1.1653993389336392,G14E11,2021_Oct_18_0829,t1_Paradigm,2021.1.4,59.974199377737186,
P,left,Pretarget,0,58,58,58,1874.9649151847698,1876.96685860242,left,1,3,1.2645383388735354,G14E11,2021_Oct_18_0829,t1_Paradigm,2021.1.4,59.974199377737186,
Y,right,Target,0,59,59,59,1878.46493106446,1880.4673313039239,right,1,3,0.6921912659308873,G14E11,2021_Oct_18_0829,t1_Paradigm,2021.1.4,59.974199377737186,
R,left,Distractor,0,60,60,60,1881.9650572999963,1883.966094452364,left,1,3,0.8731251136632636,G14E11,2021_Oct_18_0829,t1_Paradigm,2021.1.4,59.974199377737186,
P,right,Target,0,61,61,61,1885.4650863325805,1887.465963725641,right,1,3,0.8611656206776388,G14E11,2021_Oct_18_0829,t1_Paradigm,2021.1.4,59.974199377737186,
L,left,Distractor,0,62,62,62,1888.9649065231206,1890.966868547257,left,1,3,0.7361918061506003,G14E11,2021_Oct_18_0829,t1_Paradigm,2021.1.4,59.974199377737186,
V,left,Distractor,0,63,63,63,1892.4657542420318,1894.4671946423477,left,1,3,1.427998430619482,G14E11,2021_Oct_18_0829,t1_Paradigm,2021.1.4,59.974199377737186,
H,left,Lure,0,0,0,0,1902.6941266634385,1904.6838148087845,left,1,3,0.7954294718219899,G14E11,2021_Oct_18_0829,t1_Paradigm,2021.1.4,59.974199377737186,
B,left,Distractor,0,1,1,1,1906.1819844738347,1908.1831220371532,left,1,3,0.6080000282381661,G14E11,2021_Oct_18_0829,t1_Paradigm,2021.1.4,59.974199377737186,
T,left,Distractor,0,2,2,2,1909.6824565337156,1911.6980789422523,left,1,3,0.6613471303717233,G14E11,2021_Oct_18_0829,t1_Paradigm,2021.1.4,59.974199377737186,
R,left,Distractor,0,3,3,3,1913.181698960194,1915.1839285330498,left,1,3,0.8231207667849958,G14E11,2021_Oct_18_0829,t1_Paradigm,2021.1.4,59.974199377737186,
H,left,Pretarget,0,4,4,4,1916.6825136364787,1918.6835572049022,left,1,3,1.2595152235007845,G14E11,2021_Oct_18_0829,t1_Paradigm,2021.1.4,59.974199377737186,
K,left,Distractor,0,5,5,5,1920.1824688846245,1922.1839474603184,left,1,3,1.2952663440955803,G14E11,2021_Oct_18_0829,t1_Paradigm,2021.1.4,59.974199377737186,
G,left,Distractor,0,6,6,6,1923.6816705692327,1925.6834548690822,left,1,3,0.9156400205683894,G14E11,2021_Oct_18_0829,t1_Paradigm,2021.1.4,59.974199377737186,
H,right,Target,0,7,7,7,1927.1819645841024,1929.1836372449761,None,0,3,,G14E11,2021_Oct_18_0829,t1_Paradigm,2021.1.4,59.974199377737186,
Y,left,Pretarget,0,8,8,8,1930.681713556638,1932.6839501871727,left,1,3,0.939198746054899,G14E11,2021_Oct_18_0829,t1_Paradigm,2021.1.4,59.974199377737186,
S,left,Distractor,0,9,9,9,1934.1816408950253,1936.183373225038,left,1,3,0.8958545664208941,G14E11,2021_Oct_18_0829,t1_Paradigm,2021.1.4,59.974199377737186,
P,left,Distractor,0,10,10,10,1937.6817321631825,1939.6829518518061,left,1,3,0.8842094592400827,G14E11,2021_Oct_18_0829,t1_Paradigm,2021.1.4,59.974199377737186,
Y,right,Target,0,11,11,11,1941.1816611055401,1943.1839814653504,right,1,3,0.9671373792225495,G14E11,2021_Oct_18_0829,t1_Paradigm,2021.1.4,59.974199377737186,
H,left,Lure,0,12,12,12,1944.6813873011852,1946.6833310395596,left,1,3,0.9557437807088718,G14E11,2021_Oct_18_0829,t1_Paradigm,2021.1.4,59.974199377737186,
Q,left,Distractor,0,13,13,13,1948.1815064790426,1950.181301165896,left,1,3,0.8342371925828047,G14E11,2021_Oct_18_0829,t1_Paradigm,2021.1.4,59.974199377737186,
V,left,Pretarget,0,14,14,14,1951.6822470501065,1953.6838250744622,left,1,3,1.171242103097029,G14E11,2021_Oct_18_0829,t1_Paradigm,2021.1.4,59.974199377737186,
G,left,Distractor,0,15,15,15,1955.181631591753,1957.183788984199,left,1,3,1.2552719773957506,G14E11,2021_Oct_18_0829,t1_Paradigm,2021.1.4,59.974199377737186,
Z,left,Pretarget,0,16,16,16,1958.68161892012,1960.6839360718732,left,1,3,1.3391629445832223,G14E11,2021_Oct_18_0829,t1_Paradigm,2021.1.4,59.974199377737186,
V,right,Target,0,17,17,17,1962.1817037722212,1964.181393877603,left,0,3,1.0737087164307013,G14E11,2021_Oct_18_0829,t1_Paradigm,2021.1.4,59.974199377737186,
N,left,Distractor,0,18,18,18,1965.6823294961941,1967.683885385166,None,0,3,,G14E11,2021_Oct_18_0829,t1_Paradigm,2021.1.4,59.974199377737186,
Z,right,Target,0,19,19,19,1969.1816954313545,1971.1835769342142,right,1,3,0.8394431649940088,G14E11,2021_Oct_18_0829,t1_Paradigm,2021.1.4,59.974199377737186,
R,left,Distractor,0,20,20,20,1972.6817565441015,1974.6829172052094,left,1,3,0.7803065518382937,G14E11,2021_Oct_18_0829,t1_Paradigm,2021.1.4,59.974199377737186,
P,left,Distractor,0,21,21,21,1976.1824483532691,1978.1837854554178,left,1,3,1.055267422052566,G14E11,2021_Oct_18_0829,t1_Paradigm,2021.1.4,59.974199377737186,
Z,right,Target,0,22,22,22,1979.681702328613,1981.6833079418284,right,1,3,1.1557047070236877,G14E11,2021_Oct_18_0829,t1_Paradigm,2021.1.4,59.974199377737186,
D,left,Pretarget,0,23,23,23,1983.1816344789695,1985.1827159020468,left,1,3,1.304245267121587,G14E11,2021_Oct_18_0829,t1_Paradigm,2021.1.4,59.974199377737186,
K,left,Distractor,0,24,24,24,1986.6816327145789,1988.6827962629031,None,0,3,,G14E11,2021_Oct_18_0829,t1_Paradigm,2021.1.4,59.974199377737186,
W,left,Distractor,0,25,25,25,1990.1816357622156,1992.1812899378128,left,1,3,1.1057170418207534,G14E11,2021_Oct_18_0829,t1_Paradigm,2021.1.4,59.974199377737186,
D,right,Target,0,26,26,26,1993.681349125749,1995.6832450646907,left,0,3,1.0279498611926101,G14E11,2021_Oct_18_0829,t1_Paradigm,2021.1.4,59.974199377737186,
G,left,Pretarget,0,27,27,27,1997.1816325541586,1999.1835737261572,left,1,3,0.8714328839560039,G14E11,2021_Oct_18_0829,t1_Paradigm,2021.1.4,59.974199377737186,
V,left,Distractor,0,28,28,28,2000.6817228599102,2002.6828995610704,left,1,3,1.1962707426282577,G14E11,2021_Oct_18_0829,t1_Paradigm,2021.1.4,59.974199377737186,
D,right,Target,0,29,29,29,2004.1815449752612,2006.1824971151655,right,1,3,1.0084691688534804,G14E11,2021_Oct_18_0829,t1_Paradigm,2021.1.4,59.974199377737186,
G,right,Target,0,30,30,30,2007.6814771256759,2009.6839043124928,None,0,3,,G14E11,2021_Oct_18_0829,t1_Paradigm,2021.1.4,59.974199377737186,
B,left,Pretarget,0,31,31,31,2011.1814955718,2013.1828737365431,left,1,3,0.8401412298553623,G14E11,2021_Oct_18_0829,t1_Paradigm,2021.1.4,59.974199377737186,
N,left,Distractor,0,32,32,32,2014.681759431318,2016.683912974142,left,1,3,1.0351919630193152,G14E11,2021_Oct_18_0829,t1_Paradigm,2021.1.4,59.974199377737186,
F,left,Distractor,0,33,33,33,2018.1815254063695,2020.183438989392,left,1,3,1.2155586331500672,G14E11,2021_Oct_18_0829,t1_Paradigm,2021.1.4,59.974199377737186,
B,right,Target,0,34,34,34,2021.68156245898,2023.6839633400086,left,0,3,1.0753752820310183,G14E11,2021_Oct_18_0829,t1_Paradigm,2021.1.4,59.974199377737186,
Q,left,Pretarget,0,35,35,35,2025.1814644540427,2027.1838553902344,left,1,3,0.7113094521919265,G14E11,2021_Oct_18_0829,t1_Paradigm,2021.1.4,59.974199377737186,
S,left,Pretarget,0,36,36,36,2028.681613787252,2030.6814556319732,left,1,3,0.8615165779483505,G14E11,2021_Oct_18_0829,t1_Paradigm,2021.1.4,59.974199377737186,
W,left,Distractor,0,37,37,37,2032.1814769653138,2034.18282048346,left,1,3,0.8321622462244704,G14E11,2021_Oct_18_0829,t1_Paradigm,2021.1.4,59.974199377737186,
Q,right,Target,0,38,38,38,2035.6815778574673,2037.6828780673677,right,1,3,0.5001400299952365,G14E11,2021_Oct_18_0829,t1_Paradigm,2021.1.4,59.974199377737186,
S,right,Target,0,39,39,39,2039.1815892459126,2041.183366808982,right,1,3,1.1916515168268234,G14E11,2021_Oct_18_0829,t1_Paradigm,2021.1.4,59.974199377737186,
T,left,Distractor,0,40,40,40,2042.6824106590939,2044.68391425733,left,1,3,1.2430067602545023,G14E11,2021_Oct_18_0829,t1_Paradigm,2021.1.4,59.974199377737186,
G,left,Distractor,0,41,41,41,2046.181593416375,2048.194544507889,left,1,3,0.8370307350414805,G14E11,2021_Oct_18_0829,t1_Paradigm,2021.1.4,59.974199377737186,
D,left,Distractor,0,42,42,42,2049.6816198825254,2051.683679109614,left,1,3,1.2193764959811233,G14E11,2021_Oct_18_0829,t1_Paradigm,2021.1.4,59.974199377737186,
S,left,Lure,0,43,43,43,2053.181333566841,2055.1813454365474,left,1,3,0.9538103078957647,G14E11,2021_Oct_18_0829,t1_Paradigm,2021.1.4,59.974199377737186,
Z,left,Pretarget,0,44,44,44,2056.6821668496705,2058.6838016558904,left,1,3,0.6672354483162053,G14E11,2021_Oct_18_0829,t1_Paradigm,2021.1.4,59.974199377737186,
J,left,Distractor,0,45,45,45,2060.1813515317626,2062.1813637222513,left,1,3,0.7857755817822181,G14E11,2021_Oct_18_0829,t1_Paradigm,2021.1.4,59.974199377737186,
M,left,Pretarget,0,46,46,46,2063.682256674161,2065.6838199415943,left,1,3,0.6431265476858243,G14E11,2021_Oct_18_0829,t1_Paradigm,2021.1.4,59.974199377737186,
Z,right,Target,0,47,47,47,2067.1822247544187,2069.183805345092,left,0,3,0.9033488184213638,G14E11,2021_Oct_18_0829,t1_Paradigm,2021.1.4,59.974199377737186,
P,left,Distractor,0,48,48,48,2070.6821674912935,2072.6837647637003,None,0,3,,G14E11,2021_Oct_18_0829,t1_Paradigm,2021.1.4,59.974199377737186,
M,right,Target,0,49,49,49,2074.181603361212,2076.181230910297,right,1,3,1.009797930077184,G14E11,2021_Oct_18_0829,t1_Paradigm,2021.1.4,59.974199377737186,
K,left,Distractor,0,50,50,50,2077.682157225616,2079.683859721059,left,1,3,1.2672301871934906,G14E11,2021_Oct_18_0829,t1_Paradigm,2021.1.4,59.974199377737186,
Y,left,Distractor,0,51,51,51,2081.181708263408,2083.183528813941,left,1,3,0.6956299409503117,G14E11,2021_Oct_18_0829,t1_Paradigm,2021.1.4,59.974199377737186,
X,left,Distractor,0,52,52,52,2084.681556684547,2086.682800112525,left,1,3,0.940149602771271,G14E11,2021_Oct_18_0829,t1_Paradigm,2021.1.4,59.974199377737186,
F,left,Pretarget,0,53,53,53,2088.1822491353378,2090.183794758632,left,1,3,0.8793836369877681,G14E11,2021_Oct_18_0829,t1_Paradigm,2021.1.4,59.974199377737186,
M,left,Lure,0,54,54,54,2091.682305115275,2093.684056051774,left,1,3,1.1709713463205844,G14E11,2021_Oct_18_0829,t1_Paradigm,2021.1.4,59.974199377737186,
V,left,Distractor,0,55,55,55,2095.1816508398624,2097.181344474142,left,1,3,1.0818599706399255,G14E11,2021_Oct_18_0829,t1_Paradigm,2021.1.4,59.974199377737186,
F,right,Target,0,56,56,56,2098.682285546325,2100.683733645885,right,1,3,0.8592103334376588,G14E11,2021_Oct_18_0829,t1_Paradigm,2021.1.4,59.974199377737186,
S,left,Distractor,0,57,57,57,2102.181505516637,2104.18329591176,None,0,3,,G14E11,2021_Oct_18_0829,t1_Paradigm,2021.1.4,59.974199377737186,
D,left,Distractor,0,58,58,58,2105.681702970178,2107.683830848895,left,1,3,1.0113733879989013,G14E11,2021_Oct_18_0829,t1_Paradigm,2021.1.4,59.974199377737186,
F,right,Target,0,59,59,59,2109.1821176065714,2111.183656813868,right,1,3,0.7115885498351417,G14E11,2021_Oct_18_0829,t1_Paradigm,2021.1.4,59.974199377737186,
V,left,Pretarget,0,60,60,60,2112.681586839899,2114.6833788390504,left,1,3,0.8436206466867588,G14E11,2021_Oct_18_0829,t1_Paradigm,2021.1.4,59.974199377737186,
J,left,Distractor,0,61,61,61,2116.1815379176405,2118.18332606717,left,1,3,0.8957974637160078,G14E11,2021_Oct_18_0829,t1_Paradigm,2021.1.4,59.974199377737186,
V,left,Lure,0,62,62,62,2119.6815948599833,2121.683323981939,None,0,3,,G14E11,2021_Oct_18_0829,t1_Paradigm,2021.1.4,59.974199377737186,
V,right,Target,0,63,63,63,2123.1815529953456,2125.181509366259,left,0,3,1.305498639936559,G14E11,2021_Oct_18_0829,t1_Paradigm,2021.1.4,59.974199377737186,
R,left,Distractor,0,0,0,0,2205.744840303203,2207.732166705304,left,1,4,0.8827632844913751,G14E11,2021_Oct_18_0829,t1_Paradigm,2021.1.4,59.974199377737186,
F,left,Distractor,0,1,1,1,2209.2313379137195,2211.230826876359,left,1,4,0.7281608526245691,G14E11,2021_Oct_18_0829,t1_Paradigm,2021.1.4,59.974199377737186,
P,left,Pretarget,0,2,2,2,2212.7320733519737,2214.7337171406252,left,1,4,0.7614228717284277,G14E11,2021_Oct_18_0829,t1_Paradigm,2021.1.4,59.974199377737186,
H,left,Distractor,0,3,3,3,2216.231549642922,2218.233241551905,left,1,4,0.7495942658861168,G14E11,2021_Oct_18_0829,t1_Paradigm,2021.1.4,59.974199377737186,
Z,left,Distractor,0,4,4,4,2219.732142003544,2221.73361255927,left,1,4,0.9938171859248541,G14E11,2021_Oct_18_0829,t1_Paradigm,2021.1.4,59.974199377737186,
T,left,Distractor,0,5,5,5,2223.231221462658,2225.2313924500486,left,1,4,0.7595548425451852,G14E11,2021_Oct_18_0829,t1_Paradigm,2021.1.4,59.974199377737186,
P,right,Target,0,6,6,6,2226.7323091413127,2228.7337421631673,right,1,4,1.401334022404626,G14E11,2021_Oct_18_0829,t1_Paradigm,2021.1.4,59.974199377737186,
G,left,Distractor,0,7,7,7,2230.2316070664674,2232.2332274366054,None,0,4,,G14E11,2021_Oct_18_0829,t1_Paradigm,2021.1.4,59.974199377737186,
L,left,Distractor,0,8,8,8,2233.7313332621125,2235.732299517258,left,1,4,0.6905834070639685,G14E11,2021_Oct_18_0829,t1_Paradigm,2021.1.4,59.974199377737186,
P,left,Lure,0,9,9,9,2237.2316295226337,2239.232696509571,right,0,4,1.1582095279009081,G14E11,2021_Oct_18_0829,t1_Paradigm,2021.1.4,59.974199377737186,
Q,left,Pretarget,0,10,10,10,2240.7315873371554,2242.733738634386,left,1,4,0.9692049471195787,G14E11,2021_Oct_18_0829,t1_Paradigm,2021.1.4,59.974199377737186,
D,left,Distractor,0,11,11,11,2244.231463668053,2246.2312326907413,left,1,4,0.7198418190237135,G14E11,2021_Oct_18_0829,t1_Paradigm,2021.1.4,59.974199377737186,
M,left,Pretarget,0,12,12,12,2247.732157081249,2249.7336943637347,left,1,4,0.7212892769603059,G14E11,2021_Oct_18_0829,t1_Paradigm,2021.1.4,59.974199377737186,
C,left,Distractor,0,13,13,13,2251.2314732921077,2253.2311226556776,left,1,4,0.680207391967997,G14E11,2021_Oct_18_0829,t1_Paradigm,2021.1.4,59.974199377737186,
Q,right,Target,0,14,14,14,2254.732063086296,2256.7337251607096,right,1,4,0.7294052430079319,G14E11,2021_Oct_18_0829,t1_Paradigm,2021.1.4,59.974199377737186,
R,left,Distractor,0,15,15,15,2258.2314960690564,2260.2334558475413,left,1,4,1.2456305986270308,G14E11,2021_Oct_18_0829,t1_Paradigm,2021.1.4,59.974199377737186,
M,right,Target,0,16,16,16,2261.732121472247,2263.73364399781,right,1,4,0.7853928651893511,G14E11,2021_Oct_18_0829,t1_Paradigm,2021.1.4,59.974199377737186,
S,left,Distractor,0,17,17,17,2265.2314633472706,2267.2310937835136,left,1,4,1.4640142127755098,G14E11,2021_Oct_18_0829,t1_Paradigm,2021.1.4,59.974199377737186,
Z,left,Distractor,0,18,18,18,2268.731398705684,2270.733208028134,left,1,4,0.9857608890160918,G14E11,2021_Oct_18_0829,t1_Paradigm,2021.1.4,59.974199377737186,
L,left,Pretarget,0,19,19,19,2272.231446665537,2274.2324042590917,left,1,4,0.6224543972639367,G14E11,2021_Oct_18_0829,t1_Paradigm,2021.1.4,59.974199377737186,
M,right,Target,0,20,20,20,2275.7314946254482,2277.7335596269695,left,0,4,1.2978199268109165,G14E11,2021_Oct_18_0829,t1_Paradigm,2021.1.4,59.974199377737186,
P,left,Distractor,0,21,21,21,2279.231517562759,2281.2332264742,left,1,4,1.1896500340662897,G14E11,2021_Oct_18_0829,t1_Paradigm,2021.1.4,59.974199377737186,
F,left,Distractor,0,22,22,22,2282.7314651116612,2284.733303306275,left,1,4,0.6656192486407235,G14E11,2021_Oct_18_0829,t1_Paradigm,2021.1.4,59.974199377737186,
L,right,Target,0,23,23,23,2286.2314809913514,2288.232898293936,right,1,4,0.9900221000425518,G14E11,2021_Oct_18_0829,t1_Paradigm,2021.1.4,59.974199377737186,
L,left,Lure,0,24,24,24,2289.732104469731,2291.731714374677,left,1,4,0.9951741778058931,G14E11,2021_Oct_18_0829,t1_Paradigm,2021.1.4,59.974199377737186,
V,left,Pretarget,0,25,25,25,2293.232198945887,2295.231639467471,left,1,4,0.6635840816888958,G14E11,2021_Oct_18_0829,t1_Paradigm,2021.1.4,59.974199377737186,
Z,left,Distractor,0,26,26,26,2296.732021702861,2298.733627636917,left,1,4,0.5212657942902297,G14E11,2021_Oct_18_0829,t1_Paradigm,2021.1.4,59.974199377737186,
H,left,Distractor,0,27,27,27,2300.2314829161623,2302.233749060426,left,1,4,0.6691653922316618,G14E11,2021_Oct_18_0829,t1_Paradigm,2021.1.4,59.974199377737186,
X,left,Distractor,0,28,28,28,2303.731346735789,2305.7326995572075,left,1,4,0.8661832824582234,G14E11,2021_Oct_18_0829,t1_Paradigm,2021.1.4,59.974199377737186,
V,right,Target,0,29,29,29,2307.231486765784,2309.232762273925,right,1,4,1.318196939653717,G14E11,2021_Oct_18_0829,t1_Paradigm,2021.1.4,59.974199377737186,
C,left,Distractor,0,30,30,30,2310.7314388059312,2312.7325458931155,left,1,4,1.0183832292095758,G14E11,2021_Oct_18_0829,t1_Paradigm,2021.1.4,59.974199377737186,
S,left,Pretarget,0,31,31,31,2314.2313603698276,2316.2327160784625,left,1,4,0.9422203786671162,G14E11,2021_Oct_18_0829,t1_Paradigm,2021.1.4,59.974199377737186,
D,left,Distractor,0,32,32,32,2317.7313971016556,2319.7326536825276,left,1,4,0.6264586459146813,G14E11,2021_Oct_18_0829,t1_Paradigm,2021.1.4,59.974199377737186,
V,left,Distractor,0,33,33,33,2321.2314704048913,2323.231016470294,right,0,4,0.5678750951774418,G14E11,2021_Oct_18_0829,t1_Paradigm,2021.1.4,59.974199377737186,
R,left,Distractor,0,34,34,34,2324.7314635076327,2326.733840970148,left,1,4,0.5530578992911614,G14E11,2021_Oct_18_0829,t1_Paradigm,2021.1.4,59.974199377737186,
S,right,Target,0,35,35,35,2328.231533923652,2330.2332851809333,right,1,4,0.6856706475373358,G14E11,2021_Oct_18_0829,t1_Paradigm,2021.1.4,59.974199377737186,
Y,left,Distractor,0,36,36,36,2331.732235677715,2333.73305564723,left,1,4,1.282200084766373,G14E11,2021_Oct_18_0829,t1_Paradigm,2021.1.4,59.974199377737186,
N,left,Pretarget,0,37,37,37,2335.23216429929,2337.2336595567176,left,1,4,1.221308364707511,G14E11,2021_Oct_18_0829,t1_Paradigm,2021.1.4,59.974199377737186,
Z,left,Pretarget,0,38,38,38,2338.7313845903846,2340.7336850604624,left,1,4,0.793153382721357,G14E11,2021_Oct_18_0829,t1_Paradigm,2021.1.4,59.974199377737186,
P,left,Pretarget,0,39,39,39,2342.23152462038,2344.2334067648626,left,1,4,0.9414408301818185,G14E11,2021_Oct_18_0829,t1_Paradigm,2021.1.4,59.974199377737186,
M,left,Distractor,0,40,40,40,2345.7313043899485,2347.732502264029,left,1,4,0.9465252187219448,G14E11,2021_Oct_18_0829,t1_Paradigm,2021.1.4,59.974199377737186,
N,right,Target,0,41,41,41,2349.231424851052,2351.232458795421,right,1,4,0.43838856101501733,G14E11,2021_Oct_18_0829,t1_Paradigm,2021.1.4,59.974199377737186,
Z,right,Target,0,42,42,42,2352.731413783389,2354.733229201054,right,1,4,0.4416132611804642,G14E11,2021_Oct_18_0829,t1_Paradigm,2021.1.4,59.974199377737186,
P,right,Target,0,43,43,43,2356.2312971719075,2358.232493121177,right,1,4,0.574359783786349,G14E11,2021_Oct_18_0829,t1_Paradigm,2021.1.4,59.974199377737186,
X,left,Pretarget,0,44,44,44,2359.7321593268425,2361.7336667747586,left,1,4,1.057192874723114,G14E11,2021_Oct_18_0829,t1_Paradigm,2021.1.4,59.974199377737186,
Z,left,Lure,0,45,45,45,2363.231357482611,2365.2307662448147,left,1,4,0.9685017494484782,G14E11,2021_Oct_18_0829,t1_Paradigm,2021.1.4,59.974199377737186,
R,left,Pretarget,0,46,46,46,2366.7321140937856,2368.733596839942,left,1,4,0.6173311916645616,G14E11,2021_Oct_18_0829,t1_Paradigm,2021.1.4,59.974199377737186,
K,left,Distractor,0,47,47,47,2370.231440570322,2372.2332373815007,left,1,4,0.6856241312343627,G14E11,2021_Oct_18_0829,t1_Paradigm,2021.1.4,59.974199377737186,
X,right,Target,0,48,48,48,2373.731206224591,2375.7309229565435,right,1,4,0.8519807428820059,G14E11,2021_Oct_18_0829,t1_Paradigm,2021.1.4,59.974199377737186,
B,left,Distractor,0,49,49,49,2377.2320626050932,2379.233582885063,left,1,4,0.8052331763901748,G14E11,2021_Oct_18_0829,t1_Paradigm,2021.1.4,59.974199377737186,
R,right,Target,0,50,50,50,2380.731399988872,2382.731168049155,right,1,4,0.6198125939699821,G14E11,2021_Oct_18_0829,t1_Paradigm,2021.1.4,59.974199377737186,
Y,left,Pretarget,0,51,51,51,2384.231412339781,2386.231119768461,left,1,4,0.7840868808561936,G14E11,2021_Oct_18_0829,t1_Paradigm,2021.1.4,59.974199377737186,
W,left,Pretarget,0,52,52,52,2387.7319472768577,2389.733534283587,left,1,4,0.9133796507376246,G14E11,2021_Oct_18_0829,t1_Paradigm,2021.1.4,59.974199377737186,
Z,left,Distractor,0,53,53,53,2391.2313911668607,2393.2318434974295,left,1,4,0.9510514120338485,G14E11,2021_Oct_18_0829,t1_Paradigm,2021.1.4,59.974199377737186,
Q,left,Distractor,0,54,54,54,2394.7321166602196,2396.7335339628044,left,1,4,0.6494232463883236,G14E11,2021_Oct_18_0829,t1_Paradigm,2021.1.4,59.974199377737186,
Y,right,Target,0,55,55,55,2398.2314758585417,2400.233352549374,right,1,4,1.0054828244028613,G14E11,2021_Oct_18_0829,t1_Paradigm,2021.1.4,59.974199377737186,
W,right,Target,0,56,56,56,2401.7311821644544,2403.7335528901313,left,0,4,1.1372605254291557,G14E11,2021_Oct_18_0829,t1_Paradigm,2021.1.4,59.974199377737186,
H,left,Pretarget,0,57,57,57,2405.2313962996705,2407.230729673407,left,1,4,1.1121205675881356,G14E11,2021_Oct_18_0829,t1_Paradigm,2021.1.4,59.974199377737186,
M,left,Distractor,0,58,58,58,2408.7319158382597,2410.7335910655092,left,1,4,0.8091501669841819,G14E11,2021_Oct_18_0829,t1_Paradigm,2021.1.4,59.974199377737186,
R,left,Pretarget,0,59,59,59,2412.2311887408723,2414.231138695788,left,1,4,1.2640000333776698,G14E11,2021_Oct_18_0829,t1_Paradigm,2021.1.4,59.974199377737186,
J,left,Distractor,0,60,60,60,2415.7320181740215,2417.7335978023475,left,1,4,0.7052097258274443,G14E11,2021_Oct_18_0829,t1_Paradigm,2021.1.4,59.974199377737186,
H,right,Target,0,61,61,61,2419.232065171527,2421.233552729711,right,1,4,0.46938539820257574,G14E11,2021_Oct_18_0829,t1_Paradigm,2021.1.4,59.974199377737186,
Z,left,Distractor,0,62,62,62,2422.7320226652664,2424.7332590356236,left,1,4,0.6016192794195376,G14E11,2021_Oct_18_0829,t1_Paradigm,2021.1.4,59.974199377737186,
R,right,Target,0,63,63,63,2426.2320725499885,2428.233556900115,right,1,4,0.4453951942268759,G14E11,2021_Oct_18_0829,t1_Paradigm,2021.1.4,59.974199377737186,
J,left,Pretarget,0,0,0,0,2441.514247291372,2443.5002722003264,left,1,4,0.8265251160482876,G14E11,2021_Oct_18_0829,t1_Paradigm,2021.1.4,59.974199377737186,
G,left,Pretarget,0,1,1,1,2444.9985095546,2447.00019183947,left,1,4,0.6386433418374509,G14E11,2021_Oct_18_0829,t1_Paradigm,2021.1.4,59.974199377737186,
Z,left,Distractor,0,2,2,2,2448.498145284073,2450.497777003562,left,1,4,0.5011261748732068,G14E11,2021_Oct_18_0829,t1_Paradigm,2021.1.4,59.974199377737186,
F,left,Distractor,0,3,3,3,2451.9987232086132,2454.000197613903,left,1,4,0.7747108051553369,G14E11,2021_Oct_18_0829,t1_Paradigm,2021.1.4,59.974199377737186,
J,right,Target,0,4,4,4,2455.4980294746347,2457.4974529937026,right,1,4,0.5414070176775567,G14E11,2021_Oct_18_0829,t1_Paradigm,2021.1.4,59.974199377737186,
G,right,Target,0,5,5,5,2458.998747910373,2461.0002418845543,right,1,4,0.4465802361955866,G14E11,2021_Oct_18_0829,t1_Paradigm,2021.1.4,59.974199377737186,
H,left,Distractor,0,6,6,6,2462.49778726924,2464.4983720909804,left,1,4,0.9485581400804222,G14E11,2021_Oct_18_0829,t1_Paradigm,2021.1.4,59.974199377737186,
P,left,Distractor,0,7,7,7,2465.9979715698864,2467.999559539021,left,1,4,0.6634544777334668,G14E11,2021_Oct_18_0829,t1_Paradigm,2021.1.4,59.974199377737186,
G,left,Lure,0,8,8,8,2469.498023700202,2471.4998788972734,left,1,4,0.9228943127673119,G14E11,2021_Oct_18_0829,t1_Paradigm,2021.1.4,59.974199377737186,
S,left,Distractor,0,9,9,9,2472.9985676197102,2475.0001632881467,left,1,4,0.7025919826701283,G14E11,2021_Oct_18_0829,t1_Paradigm,2021.1.4,59.974199377737186,
R,left,Pretarget,0,10,10,10,2476.4989322110196,2478.5002276088926,left,1,4,0.9147696851287037,G14E11,2021_Oct_18_0829,t1_Paradigm,2021.1.4,59.974199377737186,
T,left,Pretarget,0,11,11,11,2479.998016482161,2481.999286857492,left,1,4,0.5355299277580343,G14E11,2021_Oct_18_0829,t1_Paradigm,2021.1.4,59.974199377737186,
X,left,Distractor,0,12,12,12,2483.4980025272816,2485.4973596403725,left,1,4,0.9254847877309658,G14E11,2021_Oct_18_0829,t1_Paradigm,2021.1.4,59.974199377737186,
F,left,Pretarget,0,13,13,13,2486.997967399482,2488.997725835652,left,1,4,0.8813017112552188,G14E11,2021_Oct_18_0829,t1_Paradigm,2021.1.4,59.974199377737186,
R,right,Target,0,14,14,14,2490.498559760046,2492.50043869653,right,1,4,0.7064874795614742,G14E11,2021_Oct_18_0829,t1_Paradigm,2021.1.4,59.974199377737186,
T,right,Target,0,15,15,15,2493.9985788477934,2496.000114205468,left,0,4,1.2066704970202409,G14E11,2021_Oct_18_0829,t1_Paradigm,2021.1.4,59.974199377737186,
C,left,Distractor,0,16,16,16,2497.4980038104695,2499.500113082642,left,1,4,0.8747275189380161,G14E11,2021_Oct_18_0829,t1_Paradigm,2021.1.4,59.974199377737186,
F,right,Target,0,17,17,17,2500.99862921366,2503.0002492630156,right,1,4,0.9587942854850553,G14E11,2021_Oct_18_0829,t1_Paradigm,2021.1.4,59.974199377737186,
M,left,Distractor,0,18,18,18,2504.498007980874,2506.4974042318063,left,1,4,0.5656131213181652,G14E11,2021_Oct_18_0829,t1_Paradigm,2021.1.4,59.974199377737186,
N,left,Distractor,0,19,19,19,2507.9985393891693,2510.000167458551,left,1,4,1.0949012074852362,G14E11,2021_Oct_18_0829,t1_Paradigm,2021.1.4,59.974199377737186,
R,left,Lure,0,20,20,20,2511.4984782764222,2513.5000665663392,left,1,4,0.9707162446575239,G14E11,2021_Oct_18_0829,t1_Paradigm,2021.1.4,59.974199377737186,
F,right,Target,0,21,21,21,2514.998070376867,2516.997532712936,right,1,4,1.3452645957586356,G14E11,2021_Oct_18_0829,t1_Paradigm,2021.1.4,59.974199377737186,
P,left,Distractor,0,22,22,22,2518.4986149379984,2520.5000771528576,left,1,4,1.3148888309369795,G14E11,2021_Oct_18_0829,t1_Paradigm,2021.1.4,59.974199377737186,
L,left,Pretarget,0,23,23,23,2521.9979860059684,2523.999817463744,left,1,4,1.0150991806876846,G14E11,2021_Oct_18_0829,t1_Paradigm,2021.1.4,59.974199377737186,
T,left,Distractor,0,24,24,24,2525.497734336939,2527.5001698645647,left,1,4,0.778769910975825,G14E11,2021_Oct_18_0829,t1_Paradigm,2021.1.4,59.974199377737186,
F,left,Distractor,0,25,25,25,2528.997749254224,2531.000025022542,right,0,4,0.9267651079571806,G14E11,2021_Oct_18_0829,t1_Paradigm,2021.1.4,59.974199377737186,
V,left,Distractor,0,26,26,26,2532.497998998442,2534.4973782468587,left,1,4,1.1254521301016212,G14E11,2021_Oct_18_0829,t1_Paradigm,2021.1.4,59.974199377737186,
L,right,Target,0,27,27,27,2535.9985118001932,2538.0002499046386,right,1,4,0.5506518853944726,G14E11,2021_Oct_18_0829,t1_Paradigm,2021.1.4,59.974199377737186,
S,left,Pretarget,0,28,28,28,2539.497992903227,2541.5001692229416,left,1,4,1.1947947333101183,G14E11,2021_Oct_18_0829,t1_Paradigm,2021.1.4,59.974199377737186,
W,left,Distractor,0,29,29,29,2542.998695619637,2545.0001767618232,left,1,4,1.1026283616083674,G14E11,2021_Oct_18_0829,t1_Paradigm,2021.1.4,59.974199377737186,
Q,left,Distractor,0,30,30,30,2546.497943178925,2548.497681083798,left,1,4,0.8372193665709347,G14E11,2021_Oct_18_0829,t1_Paradigm,2021.1.4,59.974199377737186,
L,right,Target,0,31,31,31,2549.997944301751,2551.999774155498,right,1,4,0.5510483964462765,G14E11,2021_Oct_18_0829,t1_Paradigm,2021.1.4,59.974199377737186,
S,right,Target,0,32,32,32,2553.4979242515983,2555.499167679576,right,1,4,0.49164744262816384,G14E11,2021_Oct_18_0829,t1_Paradigm,2021.1.4,59.974199377737186,
Z,left,Pretarget,0,33,33,33,2556.9986025871476,2559.000108431035,left,1,4,0.6067957381019369,G14E11,2021_Oct_18_0829,t1_Paradigm,2021.1.4,59.974199377737186,
F,left,Distractor,0,34,34,34,2560.498489825288,2562.500098325778,left,1,4,0.9149037803290412,G14E11,2021_Oct_18_0829,t1_Paradigm,2021.1.4,59.974199377737186,
V,left,Distractor,0,35,35,35,2563.9979144671815,2566.000014436082,left,1,4,1.0468274461454712,G14E11,2021_Oct_18_0829,t1_Paradigm,2021.1.4,59.974199377737186,
M,left,Distractor,0,36,36,36,2567.497905645112,2569.4992729026126,left,1,4,1.0034909657551907,G14E11,2021_Oct_18_0829,t1_Paradigm,2021.1.4,59.974199377737186,
Z,right,Target,0,37,37,37,2570.9979343568557,2572.9991816344555,right,1,4,0.46379285951843485,G14E11,2021_Oct_18_0829,t1_Paradigm,2021.1.4,59.974199377737186,
H,left,Pretarget,0,38,38,38,2574.4978690737044,2576.500233704108,left,1,4,0.578742899466306,G14E11,2021_Oct_18_0829,t1_Paradigm,2021.1.4,59.974199377737186,
L,left,Distractor,0,39,39,39,2577.9985749981715,2580.000078917248,left,1,4,0.6148677542223595,G14E11,2021_Oct_18_0829,t1_Paradigm,2021.1.4,59.974199377737186,
G,left,Distractor,0,40,40,40,2581.4980124721187,2583.497700652748,left,1,4,0.8290700371144339,G14E11,2021_Oct_18_0829,t1_Paradigm,2021.1.4,59.974199377737186,
K,left,Distractor,0,41,41,41,2584.9985887926305,2587.00002630573,left,1,4,0.6547228929703124,G14E11,2021_Oct_18_0829,t1_Paradigm,2021.1.4,59.974199377737186,
H,right,Target,0,42,42,42,2588.4978751689196,2590.4997909975937,None,0,4,,G14E11,2021_Oct_18_0829,t1_Paradigm,2021.1.4,59.974199377737186,
B,left,Distractor,0,43,43,43,2591.9979199207737,2593.99977960909,left,1,4,0.8549552176846191,G14E11,2021_Oct_18_0829,t1_Paradigm,2021.1.4,59.974199377737186,
Z,left,Distractor,0,44,44,44,2595.4979033994605,2597.4976724221488,left,1,4,0.6370823199977167,G14E11,2021_Oct_18_0829,t1_Paradigm,2021.1.4,59.974199377737186,
T,left,Pretarget,0,45,45,45,2598.997850306798,2600.9976215750794,left,1,4,0.4813561192713678,G14E11,2021_Oct_18_0829,t1_Paradigm,2021.1.4,59.974199377737186,
H,right,Target,0,46,46,46,2602.498598897888,2604.4999972731457,right,1,4,0.5148837622837164,G14E11,2021_Oct_18_0829,t1_Paradigm,2021.1.4,59.974199377737186,
F,left,Distractor,0,47,47,47,2605.9978855949594,2607.9991370430216,left,1,4,0.6797672518296167,G14E11,2021_Oct_18_0829,t1_Paradigm,2021.1.4,59.974199377737186,
R,left,Distractor,0,48,48,48,2609.497938366898,2611.500158957322,left,1,4,0.5865383844356984,G14E11,2021_Oct_18_0829,t1_Paradigm,2021.1.4,59.974199377737186,
T,right,Target,0,49,49,49,2612.9979532841826,2614.99759174051,left,0,4,1.265381726960186,G14E11,2021_Oct_18_0829,t1_Paradigm,2021.1.4,59.974199377737186,
H,right,Target,0,50,50,50,2616.49857130897,2618.500172110158,left,0,4,1.0109447967843153,G14E11,2021_Oct_18_0829,t1_Paradigm,2021.1.4,59.974199377737186,
Y,left,Pretarget,0,51,51,51,2619.9980116701336,2622.0000949573587,left,1,4,0.694866111734882,G14E11,2021_Oct_18_0829,t1_Paradigm,2021.1.4,59.974199377737186,
H,left,Distractor,0,52,52,52,2623.4987435795483,2625.4995414137375,left,1,4,1.0512808174244128,G14E11,2021_Oct_18_0829,t1_Paradigm,2021.1.4,59.974199377737186,
S,left,Distractor,0,53,53,53,2626.998720321397,2629.000082125247,left,1,4,0.46280960185686126,G14E11,2021_Oct_18_0829,t1_Paradigm,2021.1.4,59.974199377737186,
Q,left,Distractor,0,54,54,54,2630.497647720389,2632.4997159299674,left,1,4,0.5632160898530856,G14E11,2021_Oct_18_0829,t1_Paradigm,2021.1.4,59.974199377737186,
Y,right,Target,0,55,55,55,2633.9982448930386,2635.997351459926,right,1,4,0.5534248966141604,G14E11,2021_Oct_18_0829,t1_Paradigm,2021.1.4,59.974199377737186,
R,left,Distractor,0,56,56,56,2637.498557514453,2639.5000842104782,left,1,4,0.9228801974677481,G14E11,2021_Oct_18_0829,t1_Paradigm,2021.1.4,59.974199377737186,
H,left,Pretarget,0,57,57,57,2640.9979827979696,2642.9999037594534,right,0,4,0.782885157095734,G14E11,2021_Oct_18_0829,t1_Paradigm,2021.1.4,59.974199377737186,
J,left,Distractor,0,58,58,58,2644.497951519792,2646.4989059052896,left,1,4,1.1237804316915572,G14E11,2021_Oct_18_0829,t1_Paradigm,2021.1.4,59.974199377737186,
V,left,Distractor,0,59,59,59,2647.997760482249,2649.9989429579,left,1,4,0.6799587705754675,G14E11,2021_Oct_18_0829,t1_Paradigm,2021.1.4,59.974199377737186,
Y,left,Lure,0,60,60,60,2651.4986874391907,2653.500153824454,left,1,4,0.9385754280374385,G14E11,2021_Oct_18_0829,t1_Paradigm,2021.1.4,59.974199377737186,
H,right,Target,0,61,61,61,2654.9976623168914,2656.9998434486915,right,1,4,0.639011622290127,G14E11,2021_Oct_18_0829,t1_Paradigm,2021.1.4,59.974199377737186,
L,left,Distractor,0,62,62,62,2658.497863620054,2660.5000858145067,left,1,4,0.8507145379553549,G14E11,2021_Oct_18_0829,t1_Paradigm,2021.1.4,59.974199377737186,
P,left,Distractor,0,63,63,63,2661.997786788037,2663.9995053235325,left,1,4,0.7431233717361465,G14E11,2021_Oct_18_0829,t1_Paradigm,2021.1.4,59.974199377737186,
