Letter,CorrAnswer,Stimulus,nback_run.thisRepN,nback_run.thisTrialN,nback_run.thisN,nback_run.thisIndex,fixcross.started,nback_trial.started,trial_resp.keys,trial_resp.corr,currentlevel,trial_resp.rt,Participant,date,expName,psychopyVersion,frameRate,
H,left,Distractor,0,0,0,0,177.0541683548945,179.04600940144155,None,0,1,,H02N01,2021_Oct_20_1009,t1_Paradigm,2021.1.4,59.98989645124489,
Q,left,Pretarget,0,1,1,1,180.54405363294063,182.5460012209951,left,1,1,0.5599166428437456,H02N01,2021_Oct_20_1009,t1_Paradigm,2021.1.4,59.98989645124489,
Q,right,Target,0,2,2,2,184.0440310164122,186.04408074071398,right,1,1,0.501924650685396,H02N01,2021_Oct_20_1009,t1_Paradigm,2021.1.4,59.98989645124489,
T,left,Distractor,0,3,3,3,187.5441424950841,189.54624021833297,left,1,1,0.6798089560470544,H02N01,2021_Oct_20_1009,t1_Paradigm,2021.1.4,59.98989645124489,
Q,left,Lure,0,4,4,4,191.04399669059785,193.04420681582997,left,1,1,0.9097789707011543,H02N01,2021_Oct_20_1009,t1_Paradigm,2021.1.4,59.98989645124489,
L,left,Distractor,0,5,5,5,194.54405106650665,196.5449926199508,left,1,1,0.6409479823196307,H02N01,2021_Oct_20_1009,t1_Paradigm,2021.1.4,59.98989645124489,
V,left,Pretarget,0,6,6,6,198.0440075978986,200.04442848992767,left,1,1,0.5656740737031214,H02N01,2021_Oct_20_1009,t1_Paradigm,2021.1.4,59.98989645124489,
V,right,Target,0,7,7,7,201.54405363294063,203.54406133218436,right,1,1,0.6499650807236321,H02N01,2021_Oct_20_1009,t1_Paradigm,2021.1.4,59.98989645124489,
K,left,Distractor,0,8,8,8,205.04395274078706,207.04756432800787,left,1,1,0.490445398085285,H02N01,2021_Oct_20_1009,t1_Paradigm,2021.1.4,59.98989645124489,
G,left,Pretarget,0,9,9,9,208.54434748744825,210.54612280486617,left,1,1,0.5444151766132563,H02N01,2021_Oct_20_1009,t1_Paradigm,2021.1.4,59.98989645124489,
G,right,Target,0,10,10,10,212.04414233466377,214.044166074018,right,1,1,0.5979833112214692,H02N01,2021_Oct_20_1009,t1_Paradigm,2021.1.4,59.98989645124489,
G,right,Target,0,11,11,11,215.54407127702143,217.54405395372305,right,1,1,0.6178342089406215,H02N01,2021_Oct_20_1009,t1_Paradigm,2021.1.4,59.98989645124489,
P,left,Pretarget,0,12,12,12,219.04400791868102,221.04594812827418,left,1,1,0.7801763062598184,H02N01,2021_Oct_20_1009,t1_Paradigm,2021.1.4,59.98989645124489,
P,right,Target,0,13,13,13,222.54404080088716,224.5444273671019,right,1,1,0.6416245534201153,H02N01,2021_Oct_20_1009,t1_Paradigm,2021.1.4,59.98989645124489,
G,left,Lure,0,14,14,14,226.04436849994818,228.04435213905526,left,1,1,0.5016683300491422,H02N01,2021_Oct_20_1009,t1_Paradigm,2021.1.4,59.98989645124489,
Y,left,Distractor,0,15,15,15,229.54405940737342,231.5458822034998,left,1,1,0.6319539816468023,H02N01,2021_Oct_20_1009,t1_Paradigm,2021.1.4,59.98989645124489,
B,left,Distractor,0,16,16,16,233.04414329706924,235.04615344147896,left,1,1,0.6838334153289907,H02N01,2021_Oct_20_1009,t1_Paradigm,2021.1.4,59.98989645124489,
T,left,Pretarget,0,17,17,17,236.54416430956917,238.5453201586497,left,1,1,0.7847156524658203,H02N01,2021_Oct_20_1009,t1_Paradigm,2021.1.4,59.98989645124489,
T,right,Target,0,18,18,18,240.04479195841122,242.04450131190242,right,1,1,0.5499085874762386,H02N01,2021_Oct_20_1009,t1_Paradigm,2021.1.4,59.98989645124489,
S,left,Distractor,0,19,19,19,243.54401096631773,245.5458090606844,left,1,1,0.6482731717405841,H02N01,2021_Oct_20_1009,t1_Paradigm,2021.1.4,59.98989645124489,
T,left,Lure,0,20,20,20,247.04413174820365,249.0443187757046,left,1,1,0.49365437898086384,H02N01,2021_Oct_20_1009,t1_Paradigm,2021.1.4,59.98989645124489,
J,left,Distractor,0,21,21,21,250.54435165785253,252.54555883520516,left,1,1,0.672361541131977,H02N01,2021_Oct_20_1009,t1_Paradigm,2021.1.4,59.98989645124489,
P,left,Distractor,0,22,22,22,254.04404833971057,256.0629108469584,left,1,1,0.6114486481528729,H02N01,2021_Oct_20_1009,t1_Paradigm,2021.1.4,59.98989645124489,
F,left,Distractor,0,23,23,23,257.5441854824894,259.54599480493926,left,1,1,0.5198250731336884,H02N01,2021_Oct_20_1009,t1_Paradigm,2021.1.4,59.98989645124489,
L,left,Distractor,0,24,24,24,261.0442440288607,263.04600811819546,left,1,1,0.4440959466737695,H02N01,2021_Oct_20_1009,t1_Paradigm,2021.1.4,59.98989645124489,
W,left,Pretarget,0,25,25,25,264.54398658534046,266.5456419229158,left,1,1,0.5284578509745188,H02N01,2021_Oct_20_1009,t1_Paradigm,2021.1.4,59.98989645124489,
W,right,Target,0,26,26,26,268.04401305149077,270.04399380338145,right,1,1,0.4859740618849173,H02N01,2021_Oct_20_1009,t1_Paradigm,2021.1.4,59.98989645124489,
V,left,Distractor,0,27,27,27,271.543944881123,273.54387334227795,left,1,1,0.5541130165220238,H02N01,2021_Oct_20_1009,t1_Paradigm,2021.1.4,59.98989645124489,
W,left,Lure,0,28,28,28,275.0439719888964,277.0439209814067,left,1,1,0.4780906771775335,H02N01,2021_Oct_20_1009,t1_Paradigm,2021.1.4,59.98989645124489,
R,left,Pretarget,0,29,29,29,278.544044008886,280.55714780208655,left,1,1,0.5169510093983263,H02N01,2021_Oct_20_1009,t1_Paradigm,2021.1.4,59.98989645124489,
R,right,Target,0,30,30,30,282.0439389462699,284.0443970513297,right,1,1,0.5016153976903297,H02N01,2021_Oct_20_1009,t1_Paradigm,2021.1.4,59.98989645124489,
G,left,Distractor,0,31,31,31,285.5445758983842,287.54581708071055,left,1,1,0.5840492828283459,H02N01,2021_Oct_20_1009,t1_Paradigm,2021.1.4,59.98989645124489,
R,left,Lure,0,32,32,32,289.0439623648417,291.044245632831,left,1,1,0.509716286091134,H02N01,2021_Oct_20_1009,t1_Paradigm,2021.1.4,59.98989645124489,
S,left,Distractor,0,33,33,33,292.5439814525307,294.54405523696914,left,1,1,0.5139527952997014,H02N01,2021_Oct_20_1009,t1_Paradigm,2021.1.4,59.98989645124489,
R,left,Lure,0,34,34,34,296.0439161693794,298.04391456535086,left,1,1,0.5981815668055788,H02N01,2021_Oct_20_1009,t1_Paradigm,2021.1.4,59.98989645124489,
P,left,Pretarget,0,35,35,35,299.54401289112866,301.54410528205335,left,1,1,0.8257702693226747,H02N01,2021_Oct_20_1009,t1_Paradigm,2021.1.4,59.98989645124489,
P,right,Target,0,36,36,36,303.044124690583,305.0441805101,right,1,1,0.5741015382809564,H02N01,2021_Oct_20_1009,t1_Paradigm,2021.1.4,59.98989645124489,
Y,left,Pretarget,0,37,37,37,306.54411233967403,308.54558097053086,left,1,1,0.4645922977360897,H02N01,2021_Oct_20_1009,t1_Paradigm,2021.1.4,59.98989645124489,
Y,right,Target,0,38,38,38,310.0439751968952,312.0440092018689,right,1,1,0.4859163175569847,H02N01,2021_Oct_20_1009,t1_Paradigm,2021.1.4,59.98989645124489,
J,left,Distractor,0,39,39,39,313.5439076680923,315.544141211838,left,1,1,0.5056315160472877,H02N01,2021_Oct_20_1009,t1_Paradigm,2021.1.4,59.98989645124489,
Y,left,Lure,0,40,40,40,317.0438590666163,319.0439344550832,left,1,1,0.8141161796520464,H02N01,2021_Oct_20_1009,t1_Paradigm,2021.1.4,59.98989645124489,
T,left,Distractor,0,41,41,41,320.54404785850784,322.54387173830764,left,1,1,0.5782228796742857,H02N01,2021_Oct_20_1009,t1_Paradigm,2021.1.4,59.98989645124489,
V,left,Distractor,0,42,42,42,324.04467807372566,326.0463680578978,left,1,1,0.49959915812360123,H02N01,2021_Oct_20_1009,t1_Paradigm,2021.1.4,59.98989645124489,
N,left,Pretarget,0,43,43,43,327.54388649517205,329.5441694424371,left,1,1,0.45765335368923843,H02N01,2021_Oct_20_1009,t1_Paradigm,2021.1.4,59.98989645124489,
N,right,Target,0,44,44,44,331.0439148861333,333.0440441693063,right,1,1,0.6539064522366971,H02N01,2021_Oct_20_1009,t1_Paradigm,2021.1.4,59.98989645124489,
N,right,Target,0,45,45,45,334.5440767306718,336.5439897933975,right,1,1,0.4980814445298165,H02N01,2021_Oct_20_1009,t1_Paradigm,2021.1.4,59.98989645124489,
X,left,Distractor,0,46,46,46,338.043966535246,340.0463783235755,left,1,1,0.48355714074568823,H02N01,2021_Oct_20_1009,t1_Paradigm,2021.1.4,59.98989645124489,
Z,left,Distractor,0,47,47,47,341.5439387859078,343.5459482886945,left,1,1,0.5999732451164164,H02N01,2021_Oct_20_1009,t1_Paradigm,2021.1.4,59.98989645124489,
H,left,Pretarget,0,48,48,48,345.04385008418467,347.0440444900887,left,1,1,0.47793188027571887,H02N01,2021_Oct_20_1009,t1_Paradigm,2021.1.4,59.98989645124489,
H,right,Target,0,49,49,49,348.54392146260943,350.54386756784515,right,1,1,0.5141497676377185,H02N01,2021_Oct_20_1009,t1_Paradigm,2021.1.4,59.98989645124489,
K,left,Distractor,0,50,50,50,352.043908149295,354.0442854122957,left,1,1,0.6297013110015541,H02N01,2021_Oct_20_1009,t1_Paradigm,2021.1.4,59.98989645124489,
V,left,Pretarget,0,51,51,51,355.5439134425251,357.544256058929,left,1,1,0.5695737409987487,H02N01,2021_Oct_20_1009,t1_Paradigm,2021.1.4,59.98989645124489,
V,right,Target,0,52,52,52,359.0440897231456,361.04407721187454,right,1,1,0.5418179648695514,H02N01,2021_Oct_20_1009,t1_Paradigm,2021.1.4,59.98989645124489,
R,left,Distractor,0,53,53,53,362.5441014324315,364.54431444488,left,1,1,0.5614888927084394,H02N01,2021_Oct_20_1009,t1_Paradigm,2021.1.4,59.98989645124489,
V,left,Lure,0,54,54,54,366.0439828961389,368.04433577816235,left,1,1,0.4694595034234226,H02N01,2021_Oct_20_1009,t1_Paradigm,2021.1.4,59.98989645124489,
Y,left,Distractor,0,55,55,55,369.54402476077667,371.54421820427524,left,1,1,0.6497260833275504,H02N01,2021_Oct_20_1009,t1_Paradigm,2021.1.4,59.98989645124489,
Q,left,Distractor,0,56,56,56,373.04473228927236,375.05713288480183,right,0,1,0.4968059363309294,H02N01,2021_Oct_20_1009,t1_Paradigm,2021.1.4,59.98989645124489,
Z,left,Pretarget,0,57,57,57,376.5440138535341,378.54429006390274,left,1,1,0.6735436959424987,H02N01,2021_Oct_20_1009,t1_Paradigm,2021.1.4,59.98989645124489,
Z,right,Target,0,58,58,58,380.04463380307425,382.044347968651,right,1,1,0.6137196044437587,H02N01,2021_Oct_20_1009,t1_Paradigm,2021.1.4,59.98989645124489,
B,left,Distractor,0,59,59,59,383.54472507123137,385.5461346745724,left,1,1,0.7119356573675759,H02N01,2021_Oct_20_1009,t1_Paradigm,2021.1.4,59.98989645124489,
S,left,Pretarget,0,60,60,60,387.04386580345454,389.0438853724045,left,1,1,0.6379154424066655,H02N01,2021_Oct_20_1009,t1_Paradigm,2021.1.4,59.98989645124489,
S,right,Target,0,61,61,61,390.5440340640489,392.54415372310905,right,1,1,0.625709573563654,H02N01,2021_Oct_20_1009,t1_Paradigm,2021.1.4,59.98989645124489,
T,left,Distractor,0,62,62,62,394.04387318191584,396.043796510261,left,1,1,0.5179820665507577,H02N01,2021_Oct_20_1009,t1_Paradigm,2021.1.4,59.98989645124489,
D,left,Distractor,0,63,63,63,397.5438194475719,399.5451427552034,left,1,1,0.440660800493788,H02N01,2021_Oct_20_1009,t1_Paradigm,2021.1.4,59.98989645124489,
R,left,Distractor,0,0,0,0,412.8122256943607,414.8112395494827,left,1,1,0.6467910672654398,H02N01,2021_Oct_20_1009,t1_Paradigm,2021.1.4,59.98989645124489,
V,left,Distractor,0,1,1,1,416.31080855219625,418.3110533240251,left,1,1,0.5387292845989577,H02N01,2021_Oct_20_1009,t1_Paradigm,2021.1.4,59.98989645124489,
N,left,Pretarget,0,2,2,2,419.81141021609074,421.8122786266613,left,1,1,0.6375786004355177,H02N01,2021_Oct_20_1009,t1_Paradigm,2021.1.4,59.98989645124489,
N,right,Target,0,3,3,3,423.31042359001003,425.3106228079414,right,1,1,0.4833835869212635,H02N01,2021_Oct_20_1009,t1_Paradigm,2021.1.4,59.98989645124489,
S,left,Distractor,0,4,4,4,426.8105331438128,428.8107772740186,left,1,1,0.5191112890606746,H02N01,2021_Oct_20_1009,t1_Paradigm,2021.1.4,59.98989645124489,
N,left,Lure,0,5,5,5,430.3105393994483,432.3105981061817,left,1,1,1.115411673730705,H02N01,2021_Oct_20_1009,t1_Paradigm,2021.1.4,59.98989645124489,
Z,left,Distractor,0,6,6,6,433.81061334424885,435.8107150384458,left,1,1,0.8950336344423704,H02N01,2021_Oct_20_1009,t1_Paradigm,2021.1.4,59.98989645124489,
L,left,Pretarget,0,7,7,7,437.3106507176999,439.3106917803525,left,1,1,0.6431939160102047,H02N01,2021_Oct_20_1009,t1_Paradigm,2021.1.4,59.98989645124489,
L,right,Target,0,8,8,8,440.811231850239,442.8109456949751,right,1,1,0.775221842515748,H02N01,2021_Oct_20_1009,t1_Paradigm,2021.1.4,59.98989645124489,
H,left,Distractor,0,9,9,9,444.3112862261478,446.3129274484236,left,1,1,0.6648769131861627,H02N01,2021_Oct_20_1009,t1_Paradigm,2021.1.4,59.98989645124489,
L,left,Lure,0,10,10,10,447.81056907359743,449.8108327727532,left,1,1,0.783140194544103,H02N01,2021_Oct_20_1009,t1_Paradigm,2021.1.4,59.98989645124489,
X,left,Pretarget,0,11,11,11,451.31058976531494,453.3108326123329,left,1,1,0.5949196535511874,H02N01,2021_Oct_20_1009,t1_Paradigm,2021.1.4,59.98989645124489,
X,right,Target,0,12,12,12,454.8105748480302,456.8109957400593,right,1,1,0.5029685398912989,H02N01,2021_Oct_20_1009,t1_Paradigm,2021.1.4,59.98989645124489,
X,right,Target,0,13,13,13,458.31125190033345,460.31104049191345,right,1,1,0.6028995996457525,H02N01,2021_Oct_20_1009,t1_Paradigm,2021.1.4,59.98989645124489,
R,left,Distractor,0,14,14,14,461.81138423114317,463.812893603812,left,1,1,0.7489837799221277,H02N01,2021_Oct_20_1009,t1_Paradigm,2021.1.4,59.98989645124489,
T,left,Distractor,0,15,15,15,465.3103956801933,467.3106892139185,left,1,1,0.6112288988661021,H02N01,2021_Oct_20_1009,t1_Paradigm,2021.1.4,59.98989645124489,
V,left,Pretarget,0,16,16,16,468.8105790184927,470.8108135246439,left,1,1,0.5830849524936639,H02N01,2021_Oct_20_1009,t1_Paradigm,2021.1.4,59.98989645124489,
V,right,Target,0,17,17,17,472.3104527829564,474.3109490633942,right,1,1,0.6509229950606823,H02N01,2021_Oct_20_1009,t1_Paradigm,2021.1.4,59.98989645124489,
N,left,Distractor,0,18,18,18,475.81126040162053,477.8122690026066,left,1,1,0.44570637203287333,H02N01,2021_Oct_20_1009,t1_Paradigm,2021.1.4,59.98989645124489,
B,left,Distractor,0,19,19,19,479.3104790886864,481.31045631179586,left,1,1,0.48342015832895413,H02N01,2021_Oct_20_1009,t1_Paradigm,2021.1.4,59.98989645124489,
V,left,Lure,0,20,20,20,482.81053089821944,484.81042086315574,left,1,1,0.6315642073750496,H02N01,2021_Oct_20_1009,t1_Paradigm,2021.1.4,59.98989645124489,
P,left,Distractor,0,21,21,21,486.31054292828776,488.310438026092,left,1,1,0.7953197575989179,H02N01,2021_Oct_20_1009,t1_Paradigm,2021.1.4,59.98989645124489,
K,left,Pretarget,0,22,22,22,489.8112584768096,491.8128599196207,left,1,1,0.42910808423766866,H02N01,2021_Oct_20_1009,t1_Paradigm,2021.1.4,59.98989645124489,
K,right,Target,0,23,23,23,493.3105422866647,495.3104409133084,right,1,1,0.6434171941364184,H02N01,2021_Oct_20_1009,t1_Paradigm,2021.1.4,59.98989645124489,
J,left,Pretarget,0,24,24,24,496.8108048629947,498.81236492237076,left,1,1,0.5815746174193919,H02N01,2021_Oct_20_1009,t1_Paradigm,2021.1.4,59.98989645124489,
J,right,Target,0,25,25,25,500.3106715698377,502.3107713391655,right,1,1,0.5549900887999684,H02N01,2021_Oct_20_1009,t1_Paradigm,2021.1.4,59.98989645124489,
H,left,Distractor,0,26,26,26,503.81082892313134,505.8125362305436,left,1,1,0.525347677001264,H02N01,2021_Oct_20_1009,t1_Paradigm,2021.1.4,59.98989645124489,
J,left,Lure,0,27,27,27,507.3110982362996,509.3108030985459,left,1,1,0.6110627235029824,H02N01,2021_Oct_20_1009,t1_Paradigm,2021.1.4,59.98989645124489,
V,left,Distractor,0,28,28,28,510.8105655448162,512.8128669772996,left,1,1,0.4688554335734807,H02N01,2021_Oct_20_1009,t1_Paradigm,2021.1.4,59.98989645124489,
Z,left,Pretarget,0,29,29,29,514.3105252841488,516.3107844920596,left,1,1,0.47512037289561704,H02N01,2021_Oct_20_1009,t1_Paradigm,2021.1.4,59.98989645124489,
Z,right,Target,0,30,30,30,517.8105908881407,519.810526727757,right,1,1,0.591231073893141,H02N01,2021_Oct_20_1009,t1_Paradigm,2021.1.4,59.98989645124489,
T,left,Distractor,0,31,31,31,521.3104601614177,523.3130669972161,left,1,1,0.5448662240523845,H02N01,2021_Oct_20_1009,t1_Paradigm,2021.1.4,59.98989645124489,
Z,left,Lure,0,32,32,32,524.8107493642601,526.8113152587321,left,1,1,0.5985626793699339,H02N01,2021_Oct_20_1009,t1_Paradigm,2021.1.4,59.98989645124489,
F,left,Distractor,0,33,33,33,528.3107222564868,530.3126037593465,left,1,1,0.47319010813953355,H02N01,2021_Oct_20_1009,t1_Paradigm,2021.1.4,59.98989645124489,
Y,left,Pretarget,0,34,34,34,531.8106402916601,533.8125577243045,left,1,1,0.4773348680464551,H02N01,2021_Oct_20_1009,t1_Paradigm,2021.1.4,59.98989645124489,
Y,right,Target,0,35,35,35,535.3106561713503,537.310702045972,right,1,1,0.6112157459720038,H02N01,2021_Oct_20_1009,t1_Paradigm,2021.1.4,59.98989645124489,
Y,right,Target,0,36,36,36,538.810612702684,540.8106451036874,right,1,1,0.6472610419150442,H02N01,2021_Oct_20_1009,t1_Paradigm,2021.1.4,59.98989645124489,
W,left,Distractor,0,37,37,37,542.3105923317489,544.3113035494462,left,1,1,0.5704527380294167,H02N01,2021_Oct_20_1009,t1_Paradigm,2021.1.4,59.98989645124489,
Q,left,Distractor,0,38,38,38,545.810665955767,547.8120935240295,left,1,1,0.5417448220541701,H02N01,2021_Oct_20_1009,t1_Paradigm,2021.1.4,59.98989645124489,
P,left,Pretarget,0,39,39,39,549.3104608029826,551.3103068181081,left,1,1,0.46743813098873943,H02N01,2021_Oct_20_1009,t1_Paradigm,2021.1.4,59.98989645124489,
P,right,Target,0,40,40,40,552.8112247926183,554.8110268578748,right,1,1,0.6631506783887744,H02N01,2021_Oct_20_1009,t1_Paradigm,2021.1.4,59.98989645124489,
J,left,Distractor,0,41,41,41,556.3113869579392,558.3237076738151,left,1,1,0.5900973601383157,H02N01,2021_Oct_20_1009,t1_Paradigm,2021.1.4,59.98989645124489,
P,left,Lure,0,42,42,42,559.8103332842584,561.8103291138541,left,1,1,0.6713308047619648,H02N01,2021_Oct_20_1009,t1_Paradigm,2021.1.4,59.98989645124489,
L,left,Distractor,0,43,43,43,563.310352692788,565.3102279008599,left,1,1,0.5954537886427715,H02N01,2021_Oct_20_1009,t1_Paradigm,2021.1.4,59.98989645124489,
Z,left,Distractor,0,44,44,44,566.8104734746739,568.8108189782361,left,1,1,0.4870166679029353,H02N01,2021_Oct_20_1009,t1_Paradigm,2021.1.4,59.98989645124489,
F,left,Pretarget,0,45,45,45,570.3104454044951,572.3105865573161,left,1,1,0.4596160194487311,H02N01,2021_Oct_20_1009,t1_Paradigm,2021.1.4,59.98989645124489,
F,right,Target,0,46,46,46,573.8113043514895,575.81100664736,left,0,1,0.4789991880534217,H02N01,2021_Oct_20_1009,t1_Paradigm,2021.1.4,59.98989645124489,
G,left,Pretarget,0,47,47,47,577.3111405821401,579.3126387267839,left,1,1,0.8171179225901142,H02N01,2021_Oct_20_1009,t1_Paradigm,2021.1.4,59.98989645124489,
G,right,Target,0,48,48,48,580.8104134847526,582.8105244821636,right,1,1,0.6951638158643618,H02N01,2021_Oct_20_1009,t1_Paradigm,2021.1.4,59.98989645124489,
V,left,Distractor,0,49,49,49,584.3105041112285,586.3107366925688,left,1,1,0.7152139315148816,H02N01,2021_Oct_20_1009,t1_Paradigm,2021.1.4,59.98989645124489,
G,left,Lure,0,50,50,50,587.8104311288334,589.8129426864907,left,1,1,0.8290302577079274,H02N01,2021_Oct_20_1009,t1_Paradigm,2021.1.4,59.98989645124489,
Q,left,Pretarget,0,51,51,51,591.3104575949837,593.3110366422916,left,1,1,0.7226234918343835,H02N01,2021_Oct_20_1009,t1_Paradigm,2021.1.4,59.98989645124489,
Q,right,Target,0,52,52,52,594.8105482215178,596.8108796098386,right,1,1,0.6791955829248764,H02N01,2021_Oct_20_1009,t1_Paradigm,2021.1.4,59.98989645124489,
Y,left,Distractor,0,53,53,53,598.3107427878422,600.3110058453167,left,1,1,0.714934833929874,H02N01,2021_Oct_20_1009,t1_Paradigm,2021.1.4,59.98989645124489,
V,left,Distractor,0,54,54,54,601.8105886425474,603.8108815346495,left,1,1,0.7668293452588841,H02N01,2021_Oct_20_1009,t1_Paradigm,2021.1.4,59.98989645124489,
B,left,Distractor,0,55,55,55,605.3104646526044,607.3114116596989,left,1,1,0.5464634964591824,H02N01,2021_Oct_20_1009,t1_Paradigm,2021.1.4,59.98989645124489,
J,left,Pretarget,0,56,56,56,608.8105254445691,610.8104513393482,left,1,1,0.5353316721739247,H02N01,2021_Oct_20_1009,t1_Paradigm,2021.1.4,59.98989645124489,
J,right,Target,0,57,57,57,612.3103899057605,614.3103693744633,right,1,1,0.5552871513646096,H02N01,2021_Oct_20_1009,t1_Paradigm,2021.1.4,59.98989645124489,
H,left,Distractor,0,58,58,58,615.8103486827458,617.8101250838372,left,1,1,0.6236339855822735,H02N01,2021_Oct_20_1009,t1_Paradigm,2021.1.4,59.98989645124489,
J,left,Lure,0,59,59,59,619.310549665126,621.3110440207529,left,1,1,0.7066652037901804,H02N01,2021_Oct_20_1009,t1_Paradigm,2021.1.4,59.98989645124489,
D,left,Pretarget,0,60,60,60,622.8104336952674,624.8109691135469,left,1,1,0.6469643001910299,H02N01,2021_Oct_20_1009,t1_Paradigm,2021.1.4,59.98989645124489,
D,right,Target,0,61,61,61,626.3105012240121,628.310505715257,right,1,1,0.6031488626613282,H02N01,2021_Oct_20_1009,t1_Paradigm,2021.1.4,59.98989645124489,
R,left,Distractor,0,62,62,62,629.810427599994,631.8120389877004,left,1,1,0.669579868321307,H02N01,2021_Oct_20_1009,t1_Paradigm,2021.1.4,59.98989645124489,
F,left,Distractor,0,63,63,63,633.3104575949837,635.3104508581455,left,1,1,0.979349343222566,H02N01,2021_Oct_20_1009,t1_Paradigm,2021.1.4,59.98989645124489,
F,left,Distractor,0,0,0,0,710.2167362967157,712.2105207608547,None,0,2,,H02N01,2021_Oct_20_1009,t1_Paradigm,2021.1.4,59.98989645124489,
N,left,Pretarget,0,1,1,1,713.7104615729186,715.7111387856421,left,1,2,0.5307631330797449,H02N01,2021_Oct_20_1009,t1_Paradigm,2021.1.4,59.98989645124489,
V,left,Distractor,0,2,2,2,717.2105454626144,719.2111905951169,left,1,2,0.5826403211103752,H02N01,2021_Oct_20_1009,t1_Paradigm,2021.1.4,59.98989645124489,
N,right,Target,0,3,3,3,720.7105392069789,722.7108099637553,right,1,2,0.49087110214168206,H02N01,2021_Oct_20_1009,t1_Paradigm,2021.1.4,59.98989645124489,
N,left,Lure,0,4,4,4,724.2107443597633,726.2104020642,left,1,2,0.8314073994406499,H02N01,2021_Oct_20_1009,t1_Paradigm,2021.1.4,59.98989645124489,
X,left,Distractor,0,5,5,5,727.7104529112694,729.7108231165912,left,1,2,0.7229131759377196,H02N01,2021_Oct_20_1009,t1_Paradigm,2021.1.4,59.98989645124489,
G,left,Pretarget,0,6,6,6,731.21058331721,733.2110080588609,left,1,2,0.5666817122837529,H02N01,2021_Oct_20_1009,t1_Paradigm,2021.1.4,59.98989645124489,
H,left,Pretarget,0,7,7,7,734.7104391168104,736.7111169710988,left,1,2,0.4905368266045116,H02N01,2021_Oct_20_1009,t1_Paradigm,2021.1.4,59.98989645124489,
G,right,Target,0,8,8,8,738.2103247509222,740.2127169703599,right,1,2,0.4131392097333446,H02N01,2021_Oct_20_1009,t1_Paradigm,2021.1.4,59.98989645124489,
H,right,Target,0,9,9,9,741.7104679889744,743.7110168809304,right,1,2,0.866635933809448,H02N01,2021_Oct_20_1009,t1_Paradigm,2021.1.4,59.98989645124489,
T,left,Pretarget,0,10,10,10,745.210513703234,747.2106789161917,left,1,2,0.615186310489662,H02N01,2021_Oct_20_1009,t1_Paradigm,2021.1.4,59.98989645124489,
K,left,Distractor,0,11,11,11,748.7104208311066,750.7109122995171,left,1,2,0.9227319870842621,H02N01,2021_Oct_20_1009,t1_Paradigm,2021.1.4,59.98989645124489,
T,right,Target,0,12,12,12,752.2103764000349,754.2107113171369,right,1,2,0.5589519916684367,H02N01,2021_Oct_20_1009,t1_Paradigm,2021.1.4,59.98989645124489,
T,left,Lure,0,13,13,13,755.7104991067317,757.7104840290267,left,1,2,0.7231589101720601,H02N01,2021_Oct_20_1009,t1_Paradigm,2021.1.4,59.98989645124489,
J,left,Distractor,0,14,14,14,759.2104954175302,761.2121100132354,left,1,2,0.6457215138361789,H02N01,2021_Oct_20_1009,t1_Paradigm,2021.1.4,59.98989645124489,
Q,left,Pretarget,0,15,15,15,762.710336460208,764.7106540540117,left,1,2,0.538932352210395,H02N01,2021_Oct_20_1009,t1_Paradigm,2021.1.4,59.98989645124489,
M,left,Distractor,0,16,16,16,766.2103048611898,768.2122271059197,left,1,2,0.5254625240922906,H02N01,2021_Oct_20_1009,t1_Paradigm,2021.1.4,59.98989645124489,
Q,right,Target,0,17,17,17,769.7102716582012,771.7102678085794,right,1,2,0.5155183083261363,H02N01,2021_Oct_20_1009,t1_Paradigm,2021.1.4,59.98989645124489,
R,left,Distractor,0,18,18,18,773.2110828057048,775.2235748297535,left,1,2,0.5381759014562704,H02N01,2021_Oct_20_1009,t1_Paradigm,2021.1.4,59.98989645124489,
W,left,Distractor,0,19,19,19,776.7102687709848,778.7101706056274,left,1,2,0.6035078399581835,H02N01,2021_Oct_20_1009,t1_Paradigm,2021.1.4,59.98989645124489,
C,left,Pretarget,0,20,20,20,780.2103350165999,782.2124551960151,left,1,2,0.5252864038920961,H02N01,2021_Oct_20_1009,t1_Paradigm,2021.1.4,59.98989645124489,
T,left,Distractor,0,21,21,21,783.7102565805544,785.7106460339855,left,1,2,0.5631641199579462,H02N01,2021_Oct_20_1009,t1_Paradigm,2021.1.4,59.98989645124489,
C,right,Target,0,22,22,22,787.2103128812741,789.2106137934024,right,1,2,0.4709637433406897,H02N01,2021_Oct_20_1009,t1_Paradigm,2021.1.4,59.98989645124489,
F,left,Pretarget,0,23,23,23,790.7109536829521,792.7108888810035,left,1,2,0.5546955927275121,H02N01,2021_Oct_20_1009,t1_Paradigm,2021.1.4,59.98989645124489,
C,right,Target,0,24,24,24,794.2102904251078,796.2106734625413,right,1,2,0.4151746974675916,H02N01,2021_Oct_20_1009,t1_Paradigm,2021.1.4,59.98989645124489,
F,right,Target,0,25,25,25,797.7103662947775,799.7107390665333,right,1,2,0.46685234672622755,H02N01,2021_Oct_20_1009,t1_Paradigm,2021.1.4,59.98989645124489,
H,left,Distractor,0,26,26,26,801.2102856130805,803.2105951869162,left,1,2,0.5351693464908749,H02N01,2021_Oct_20_1009,t1_Paradigm,2021.1.4,59.98989645124489,
H,left,Lure,0,27,27,27,804.7104214726714,806.7104840290267,left,1,2,0.5391254749265499,H02N01,2021_Oct_20_1009,t1_Paradigm,2021.1.4,59.98989645124489,
P,left,Distractor,0,28,28,28,808.2105092119891,810.2102541745408,left,1,2,0.5113751524477266,H02N01,2021_Oct_20_1009,t1_Paradigm,2021.1.4,59.98989645124489,
G,left,Pretarget,0,29,29,29,811.7103974125348,813.7104070365895,left,1,2,0.5314133983920328,H02N01,2021_Oct_20_1009,t1_Paradigm,2021.1.4,59.98989645124489,
K,left,Distractor,0,30,30,30,815.2103417534381,817.2105246104766,left,1,2,0.5191539556835778,H02N01,2021_Oct_20_1009,t1_Paradigm,2021.1.4,59.98989645124489,
G,right,Target,0,31,31,31,818.7103011719882,820.7104256431339,right,1,2,0.8113142963266,H02N01,2021_Oct_20_1009,t1_Paradigm,2021.1.4,59.98989645124489,
M,left,Pretarget,0,32,32,32,822.2103523398982,824.2234599827207,left,1,2,0.6902234673616476,H02N01,2021_Oct_20_1009,t1_Paradigm,2021.1.4,59.98989645124489,
B,left,Distractor,0,33,33,33,825.7103165704757,827.7106155577931,left,1,2,0.5471885086153634,H02N01,2021_Oct_20_1009,t1_Paradigm,2021.1.4,59.98989645124489,
M,right,Target,0,34,34,34,829.2102596281329,831.2105291017215,right,1,2,0.5831904963124543,H02N01,2021_Oct_20_1009,t1_Paradigm,2021.1.4,59.98989645124489,
M,left,Lure,0,35,35,35,832.7103313273983,834.7103040592046,left,1,2,0.9233318864717148,H02N01,2021_Oct_20_1009,t1_Paradigm,2021.1.4,59.98989645124489,
T,left,Distractor,0,36,36,36,836.2102387760533,838.2105849212385,left,1,2,0.7511033177725039,H02N01,2021_Oct_20_1009,t1_Paradigm,2021.1.4,59.98989645124489,
F,left,Distractor,0,37,37,37,839.7104076782125,841.7126635567984,left,1,2,0.6729261523578316,H02N01,2021_Oct_20_1009,t1_Paradigm,2021.1.4,59.98989645124489,
X,left,Distractor,0,38,38,38,843.2101797484793,845.2103507358697,left,1,2,0.535387170908507,H02N01,2021_Oct_20_1009,t1_Paradigm,2021.1.4,59.98989645124489,
C,left,Distractor,0,39,39,39,846.7102876983117,848.7106970414752,left,1,2,0.4909009367111139,H02N01,2021_Oct_20_1009,t1_Paradigm,2021.1.4,59.98989645124489,
R,left,Distractor,0,40,40,40,850.2104569213116,852.2106112269685,left,1,2,0.49494881444843486,H02N01,2021_Oct_20_1009,t1_Paradigm,2021.1.4,59.98989645124489,
B,left,Pretarget,0,41,41,41,853.7104118486168,855.7105475478456,left,1,2,0.5472436865093186,H02N01,2021_Oct_20_1009,t1_Paradigm,2021.1.4,59.98989645124489,
H,left,Distractor,0,42,42,42,857.2108078785241,859.2107004098943,left,1,2,0.45483382628299296,H02N01,2021_Oct_20_1009,t1_Paradigm,2021.1.4,59.98989645124489,
B,right,Target,0,43,43,43,860.7103483298561,862.7110223345808,right,1,2,0.5705194647889584,H02N01,2021_Oct_20_1009,t1_Paradigm,2021.1.4,59.98989645124489,
W,left,Pretarget,0,44,44,44,864.2104540340952,866.2105749764014,left,1,2,0.47911820554872975,H02N01,2021_Oct_20_1009,t1_Paradigm,2021.1.4,59.98989645124489,
L,left,Pretarget,0,45,45,45,867.7102941143676,869.7125214416301,left,1,2,0.6251456039608456,H02N01,2021_Oct_20_1009,t1_Paradigm,2021.1.4,59.98989645124489,
W,right,Target,0,46,46,46,871.2104687909596,873.2272024570848,right,1,2,0.5024902243167162,H02N01,2021_Oct_20_1009,t1_Paradigm,2021.1.4,59.98989645124489,
L,right,Target,0,47,47,47,874.7105417734128,876.7121643891442,right,1,2,0.5374326035380363,H02N01,2021_Oct_20_1009,t1_Paradigm,2021.1.4,59.98989645124489,
W,right,Target,0,48,48,48,878.2105217232602,880.2119868253358,None,0,2,,H02N01,2021_Oct_20_1009,t1_Paradigm,2021.1.4,59.98989645124489,
X,left,Distractor,0,49,49,49,881.710517713218,883.7125086095184,left,1,2,0.6251853833673522,H02N01,2021_Oct_20_1009,t1_Paradigm,2021.1.4,59.98989645124489,
R,left,Distractor,0,50,50,50,885.2104148962535,887.2122707349481,left,1,2,0.6774985411320813,H02N01,2021_Oct_20_1009,t1_Paradigm,2021.1.4,59.98989645124489,
V,left,Pretarget,0,51,51,51,888.7104436079971,890.7127719878335,left,1,2,0.5208012731745839,H02N01,2021_Oct_20_1009,t1_Paradigm,2021.1.4,59.98989645124489,
Z,left,Distractor,0,52,52,52,892.2101973926183,894.2099837385467,left,1,2,0.5116953126271255,H02N01,2021_Oct_20_1009,t1_Paradigm,2021.1.4,59.98989645124489,
V,right,Target,0,53,53,53,895.7101805505226,897.7104981443263,right,1,2,0.5791538466583006,H02N01,2021_Oct_20_1009,t1_Paradigm,2021.1.4,59.98989645124489,
V,left,Lure,0,54,54,54,899.2102124702651,901.2103099940578,left,1,2,0.7433630106970668,H02N01,2021_Oct_20_1009,t1_Paradigm,2021.1.4,59.98989645124489,
N,left,Distractor,0,55,55,55,902.7102941143676,904.7104022245621,left,1,2,0.7313800991978496,H02N01,2021_Oct_20_1009,t1_Paradigm,2021.1.4,59.98989645124489,
B,left,Distractor,0,56,56,56,906.2102371720248,908.2126518475707,left,1,2,0.5249861333868466,H02N01,2021_Oct_20_1009,t1_Paradigm,2021.1.4,59.98989645124489,
V,left,Lure,0,57,57,57,909.7101260141935,911.7106768309604,left,1,2,0.531084255722817,H02N01,2021_Oct_20_1009,t1_Paradigm,2021.1.4,59.98989645124489,
J,left,Distractor,0,58,58,58,913.2103414326557,915.2105085703661,left,1,2,0.4070532778277993,H02N01,2021_Oct_20_1009,t1_Paradigm,2021.1.4,59.98989645124489,
H,left,Distractor,0,59,59,59,916.7102254627389,918.7106142746052,left,1,2,0.6190821281634271,H02N01,2021_Oct_20_1009,t1_Paradigm,2021.1.4,59.98989645124489,
X,left,Pretarget,0,60,60,60,920.2103420742205,922.210498625529,left,1,2,0.591085429827217,H02N01,2021_Oct_20_1009,t1_Paradigm,2021.1.4,59.98989645124489,
P,left,Distractor,0,61,61,61,923.7110383746331,925.7126507247449,left,1,2,0.5929098299820907,H02N01,2021_Oct_20_1009,t1_Paradigm,2021.1.4,59.98989645124489,
X,right,Target,0,62,62,62,927.2101659540203,929.2100703550386,right,1,2,0.7115879082120955,H02N01,2021_Oct_20_1009,t1_Paradigm,2021.1.4,59.98989645124489,
Q,left,Distractor,0,63,63,63,930.7101061244612,932.7106178034446,left,1,2,0.6510211604181677,H02N01,2021_Oct_20_1009,t1_Paradigm,2021.1.4,59.98989645124489,
B,left,Pretarget,0,0,0,0,950.7151497711893,952.7101734928438,left,1,2,0.5234475676552393,H02N01,2021_Oct_20_1009,t1_Paradigm,2021.1.4,59.98989645124489,
F,left,Distractor,0,1,1,1,954.2101094928803,956.2099625656265,left,1,2,0.639499882759992,H02N01,2021_Oct_20_1009,t1_Paradigm,2021.1.4,59.98989645124489,
B,right,Target,0,2,2,2,957.710209743469,959.7097615833045,right,1,2,0.659805677481927,H02N01,2021_Oct_20_1009,t1_Paradigm,2021.1.4,59.98989645124489,
V,left,Distractor,0,3,3,3,961.2101742948871,963.2105037583387,left,1,2,0.7590742813772522,H02N01,2021_Oct_20_1009,t1_Paradigm,2021.1.4,59.98989645124489,
G,left,Pretarget,0,4,4,4,964.7101811920875,966.7105401693843,left,1,2,0.6030837398720905,H02N01,2021_Oct_20_1009,t1_Paradigm,2021.1.4,59.98989645124489,
B,left,Lure,0,5,5,5,968.2101714076707,970.2103667759802,left,1,2,0.6071704346104525,H02N01,2021_Oct_20_1009,t1_Paradigm,2021.1.4,59.98989645124489,
G,right,Target,0,6,6,6,971.7101969114156,973.7234716919484,right,1,2,0.5022432069526985,H02N01,2021_Oct_20_1009,t1_Paradigm,2021.1.4,59.98989645124489,
Y,left,Pretarget,0,7,7,7,975.2102503249189,977.2104909262853,left,1,2,0.5830955389537849,H02N01,2021_Oct_20_1009,t1_Paradigm,2021.1.4,59.98989645124489,
P,left,Distractor,0,8,8,8,978.7102302747662,980.7104849914322,left,1,2,0.5550141489948146,H02N01,2021_Oct_20_1009,t1_Paradigm,2021.1.4,59.98989645124489,
Y,right,Target,0,9,9,9,982.2102111870772,984.2104575628764,right,1,2,0.5590726131922565,H02N01,2021_Oct_20_1009,t1_Paradigm,2021.1.4,59.98989645124489,
X,left,Distractor,0,10,10,10,985.7108651416493,987.7120213115122,left,1,2,0.6255809320718981,H02N01,2021_Oct_20_1009,t1_Paradigm,2021.1.4,59.98989645124489,
Y,right,Target,0,11,11,11,989.2100713174441,991.2110452718916,right,1,2,0.4544565632240847,H02N01,2021_Oct_20_1009,t1_Paradigm,2021.1.4,59.98989645124489,
N,left,Distractor,0,12,12,12,992.7103605203447,994.7122388151474,left,1,2,0.4733440930140205,H02N01,2021_Oct_20_1009,t1_Paradigm,2021.1.4,59.98989645124489,
Y,right,Target,0,13,13,13,996.2104527508491,998.2124728400959,right,1,2,0.47786932392045856,H02N01,2021_Oct_20_1009,t1_Paradigm,2021.1.4,59.98989645124489,
Y,left,Lure,0,14,14,14,999.7105241292738,1001.7103637283435,left,1,2,0.5473200373817235,H02N01,2021_Oct_20_1009,t1_Paradigm,2021.1.4,59.98989645124489,
K,left,Distractor,0,15,15,15,1003.2105326305027,1005.21082488104,left,1,2,0.7106906254193746,H02N01,2021_Oct_20_1009,t1_Paradigm,2021.1.4,59.98989645124489,
T,left,Pretarget,0,16,16,16,1006.71098512155,1008.7117268154398,left,1,2,0.6338980408618227,H02N01,2021_Oct_20_1009,t1_Paradigm,2021.1.4,59.98989645124489,
J,left,Distractor,0,17,17,17,1010.2101855229121,1012.2100572022027,left,1,2,0.5914886777754873,H02N01,2021_Oct_20_1009,t1_Paradigm,2021.1.4,59.98989645124489,
T,right,Target,0,18,18,18,1013.7100993876229,1015.7100426057004,right,1,2,0.48349233879707754,H02N01,2021_Oct_20_1009,t1_Paradigm,2021.1.4,59.98989645124489,
S,left,Pretarget,0,19,19,19,1017.2101681996137,1019.2101941845613,left,1,2,0.5033740334911272,H02N01,2021_Oct_20_1009,t1_Paradigm,2021.1.4,59.98989645124489,
R,left,Distractor,0,20,20,20,1020.71032074088,1022.7101619439782,left,1,2,0.587417381524574,H02N01,2021_Oct_20_1009,t1_Paradigm,2021.1.4,59.98989645124489,
S,right,Target,0,21,21,21,1024.2104771318263,1026.2106683297316,right,1,2,0.5429449417279102,H02N01,2021_Oct_20_1009,t1_Paradigm,2021.1.4,59.98989645124489,
Q,left,Distractor,0,22,22,22,1027.710151357518,1029.7104166606441,left,1,2,0.5152661580359563,H02N01,2021_Oct_20_1009,t1_Paradigm,2021.1.4,59.98989645124489,
D,left,Distractor,0,23,23,23,1031.2102256231592,1033.2104925303138,left,1,2,0.5031254120403901,H02N01,2021_Oct_20_1009,t1_Paradigm,2021.1.4,59.98989645124489,
F,left,Distractor,0,24,24,24,1034.7103297233698,1036.7105882896576,left,1,2,0.5548457279801369,H02N01,2021_Oct_20_1009,t1_Paradigm,2021.1.4,59.98989645124489,
Z,left,Distractor,0,25,25,25,1038.2102817634586,1040.2120426448528,left,1,2,0.6054624855751172,H02N01,2021_Oct_20_1009,t1_Paradigm,2021.1.4,59.98989645124489,
P,left,Distractor,0,26,26,26,1041.7101022748393,1043.7110810413142,left,1,2,0.49884655693313107,H02N01,2021_Oct_20_1009,t1_Paradigm,2021.1.4,59.98989645124489,
H,left,Distractor,0,27,27,27,1045.2101701244246,1047.2101415731013,left,1,2,0.48745969525771216,H02N01,2021_Oct_20_1009,t1_Paradigm,2021.1.4,59.98989645124489,
Z,left,Pretarget,0,28,28,28,1048.7101090116776,1050.7102652422036,left,1,2,0.523153071582783,H02N01,2021_Oct_20_1009,t1_Paradigm,2021.1.4,59.98989645124489,
J,left,Pretarget,0,29,29,29,1052.2101309866412,1054.210121683369,left,1,2,0.7514584454474971,H02N01,2021_Oct_20_1009,t1_Paradigm,2021.1.4,59.98989645124489,
Z,right,Target,0,30,30,30,1055.7102328412002,1057.71248069976,left,0,2,0.4974529937026091,H02N01,2021_Oct_20_1009,t1_Paradigm,2021.1.4,59.98989645124489,
J,right,Target,0,31,31,31,1059.210205091862,1061.210144139477,right,1,2,0.6000133453635499,H02N01,2021_Oct_20_1009,t1_Paradigm,2021.1.4,59.98989645124489,
V,left,Pretarget,0,32,32,32,1062.710310796043,1064.710522846086,left,1,2,0.5709320160094649,H02N01,2021_Oct_20_1009,t1_Paradigm,2021.1.4,59.98989645124489,
Z,left,Lure,0,33,33,33,1066.2101582547766,1068.2104492220678,left,1,2,0.6389984694542363,H02N01,2021_Oct_20_1009,t1_Paradigm,2021.1.4,59.98989645124489,
V,right,Target,0,34,34,34,1069.7100782147027,1071.7104628561065,right,1,2,0.5472241176175885,H02N01,2021_Oct_20_1009,t1_Paradigm,2021.1.4,59.98989645124489,
X,left,Distractor,0,35,35,35,1073.2101313074236,1075.2124693113146,left,1,2,0.932996042247396,H02N01,2021_Oct_20_1009,t1_Paradigm,2021.1.4,59.98989645124489,
S,left,Distractor,0,36,36,36,1076.7099925606162,1078.7103836180759,left,1,2,0.87512402998982,H02N01,2021_Oct_20_1009,t1_Paradigm,2021.1.4,59.98989645124489,
Q,left,Distractor,0,37,37,37,1080.2103728711954,1082.2117824745364,left,1,2,0.6057216934859753,H02N01,2021_Oct_20_1009,t1_Paradigm,2021.1.4,59.98989645124489,
P,left,Distractor,0,38,38,38,1083.7102585053653,1085.710581232037,left,1,2,0.6270020842202939,H02N01,2021_Oct_20_1009,t1_Paradigm,2021.1.4,59.98989645124489,
S,left,Lure,0,39,39,39,1087.2101685204543,1089.2105743347784,left,1,2,0.6311176511808299,H02N01,2021_Oct_20_1009,t1_Paradigm,2021.1.4,59.98989645124489,
K,left,Pretarget,0,40,40,40,1090.710422435077,1092.7121502738446,left,1,2,0.4893360653077252,H02N01,2021_Oct_20_1009,t1_Paradigm,2021.1.4,59.98989645124489,
L,left,Distractor,0,41,41,41,1094.2101094928803,1096.2104476180393,left,1,2,0.5590360417263582,H02N01,2021_Oct_20_1009,t1_Paradigm,2021.1.4,59.98989645124489,
K,right,Target,0,42,42,42,1097.7101606607903,1099.710436871159,right,1,2,0.6590713620535098,H02N01,2021_Oct_20_1009,t1_Paradigm,2021.1.4,59.98989645124489,
B,left,Distractor,0,43,43,43,1101.2100328212255,1103.2102875378914,left,1,2,0.5995228393585421,H02N01,2021_Oct_20_1009,t1_Paradigm,2021.1.4,59.98989645124489,
N,left,Distractor,0,44,44,44,1104.7100913675968,1106.726766647771,left,1,2,0.50708282366395,H02N01,2021_Oct_20_1009,t1_Paradigm,2021.1.4,59.98989645124489,
S,left,Pretarget,0,45,45,45,1108.210115267313,1110.2102034878335,left,1,2,0.4795628369320184,H02N01,2021_Oct_20_1009,t1_Paradigm,2021.1.4,59.98989645124489,
Z,left,Distractor,0,46,46,46,1111.7102880190942,1113.7105610215222,left,1,2,0.5631137540913187,H02N01,2021_Oct_20_1009,t1_Paradigm,2021.1.4,59.98989645124489,
S,right,Target,0,47,47,47,1115.210100189608,1117.2102811218938,right,1,2,0.5350464793737046,H02N01,2021_Oct_20_1009,t1_Paradigm,2021.1.4,59.98989645124489,
C,left,Distractor,0,48,48,48,1118.7100673074601,1120.7102960391785,left,1,2,0.6191777271451429,H02N01,2021_Oct_20_1009,t1_Paradigm,2021.1.4,59.98989645124489,
T,left,Pretarget,0,49,49,49,1122.2102419840521,1124.2125042786938,left,1,2,0.5410592684638686,H02N01,2021_Oct_20_1009,t1_Paradigm,2021.1.4,59.98989645124489,
S,left,Lure,0,50,50,50,1125.710083668353,1127.7105456230347,left,1,2,0.531112807104364,H02N01,2021_Oct_20_1009,t1_Paradigm,2021.1.4,59.98989645124489,
T,right,Target,0,51,51,51,1129.2101723700762,1131.2103808912798,right,1,2,0.6312963378150016,H02N01,2021_Oct_20_1009,t1_Paradigm,2021.1.4,59.98989645124489,
N,left,Pretarget,0,52,52,52,1132.7102758286637,1134.7104567608912,left,1,2,1.0191059958306141,H02N01,2021_Oct_20_1009,t1_Paradigm,2021.1.4,59.98989645124489,
B,left,Distractor,0,53,53,53,1136.2100989064202,1138.2102041294565,left,1,2,0.5912583420285955,H02N01,2021_Oct_20_1009,t1_Paradigm,2021.1.4,59.98989645124489,
N,right,Target,0,54,54,54,1139.709902415285,1141.7121114568436,left,0,2,0.929530099092517,H02N01,2021_Oct_20_1009,t1_Paradigm,2021.1.4,59.98989645124489,
N,left,Lure,0,55,55,55,1143.210078375123,1145.2100677886629,left,1,2,0.919467186613474,H02N01,2021_Oct_20_1009,t1_Paradigm,2021.1.4,59.98989645124489,
X,left,Distractor,0,56,56,56,1146.7101231269771,1148.710339026642,left,1,2,0.5871139029623009,H02N01,2021_Oct_20_1009,t1_Paradigm,2021.1.4,59.98989645124489,
W,left,Distractor,0,57,57,57,1150.210277272272,1152.2111812918447,left,1,2,0.5423318893881515,H02N01,2021_Oct_20_1009,t1_Paradigm,2021.1.4,59.98989645124489,
S,left,Distractor,0,58,58,58,1153.7103406306123,1155.7112722392194,left,1,2,0.6101866136305034,H02N01,2021_Oct_20_1009,t1_Paradigm,2021.1.4,59.98989645124489,
L,left,Distractor,0,59,59,59,1157.210935878451,1159.2123332913034,left,1,2,0.7571600567316636,H02N01,2021_Oct_20_1009,t1_Paradigm,2021.1.4,59.98989645124489,
K,left,Pretarget,0,60,60,60,1160.709975878941,1162.7099165305845,left,1,2,0.651551445829682,H02N01,2021_Oct_20_1009,t1_Paradigm,2021.1.4,59.98989645124489,
V,left,Pretarget,0,61,61,61,1164.2099526207894,1166.2099118789774,left,1,2,0.5436279288842343,H02N01,2021_Oct_20_1009,t1_Paradigm,2021.1.4,59.98989645124489,
K,right,Target,0,62,62,62,1167.7101609815727,1169.7100878387573,right,1,2,0.6434656351921149,H02N01,2021_Oct_20_1009,t1_Paradigm,2021.1.4,59.98989645124489,
V,right,Target,0,63,63,63,1171.21010403923,1173.21018006932,right,1,2,0.47131213411921635,H02N01,2021_Oct_20_1009,t1_Paradigm,2021.1.4,59.98989645124489,
R,left,Distractor,0,0,0,0,1262.9337505682488,1264.9266573184868,left,1,3,0.5309309124131687,H02N01,2021_Oct_20_1009,t1_Paradigm,2021.1.4,59.98989645124489,
P,left,Lure,0,1,1,1,1266.4267059199628,1268.4265256293584,left,1,3,0.7748638276243582,H02N01,2021_Oct_20_1009,t1_Paradigm,2021.1.4,59.98989645124489,
V,left,Distractor,0,2,2,2,1269.9266595641384,1271.9266733585973,left,1,3,1.3868450068403035,H02N01,2021_Oct_20_1009,t1_Paradigm,2021.1.4,59.98989645124489,
P,left,Pretarget,0,3,3,3,1273.4266799350153,1275.4268265414867,left,1,3,0.8946008728235029,H02N01,2021_Oct_20_1009,t1_Paradigm,2021.1.4,59.98989645124489,
Z,left,Distractor,0,4,4,4,1276.9266021405929,1278.926737518981,left,1,3,0.9308405746123753,H02N01,2021_Oct_20_1009,t1_Paradigm,2021.1.4,59.98989645124489,
L,left,Pretarget,0,5,5,5,1280.4267036743695,1282.426522100519,left,1,3,1.1588302794843912,H02N01,2021_Oct_20_1009,t1_Paradigm,2021.1.4,59.98989645124489,
P,right,Target,0,6,6,6,1283.9266332583502,1285.9266473736498,None,0,3,,H02N01,2021_Oct_20_1009,t1_Paradigm,2021.1.4,59.98989645124489,
S,left,Distractor,0,7,7,7,1287.4266959751258,1289.4265147221158,left,1,3,0.6548027726239525,H02N01,2021_Oct_20_1009,t1_Paradigm,2021.1.4,59.98989645124489,
L,right,Target,0,8,8,8,1290.9273675738368,1292.9270464511355,left,0,3,0.46638237207662314,H02N01,2021_Oct_20_1009,t1_Paradigm,2021.1.4,59.98989645124489,
D,left,Distractor,0,9,9,9,1294.426786120457,1296.427196426026,left,1,3,0.53420148731675,H02N01,2021_Oct_20_1009,t1_Paradigm,2021.1.4,59.98989645124489,
G,left,Distractor,0,10,10,10,1297.926709288382,1299.9269495690241,left,1,3,0.6185159129090607,H02N01,2021_Oct_20_1009,t1_Paradigm,2021.1.4,59.98989645124489,
M,left,Pretarget,0,11,11,11,1301.4267286969116,1303.4271778195398,left,1,3,0.446452236326877,H02N01,2021_Oct_20_1009,t1_Paradigm,2021.1.4,59.98989645124489,
Y,left,Distractor,0,12,12,12,1304.9267003059504,1306.9456144622527,left,1,3,0.4319885640288703,H02N01,2021_Oct_20_1009,t1_Paradigm,2021.1.4,59.98989645124489,
V,left,Distractor,0,13,13,13,1308.427419704094,1310.428606670932,left,1,3,0.5007912577711977,H02N01,2021_Oct_20_1009,t1_Paradigm,2021.1.4,59.98989645124489,
M,right,Target,0,14,14,14,1311.9265912333503,1313.9267500302522,right,1,3,0.4746208844007924,H02N01,2021_Oct_20_1009,t1_Paradigm,2021.1.4,59.98989645124489,
S,left,Pretarget,0,15,15,15,1315.4266472132294,1317.4268605464604,left,1,3,0.47847243142314255,H02N01,2021_Oct_20_1009,t1_Paradigm,2021.1.4,59.98989645124489,
Q,left,Distractor,0,16,16,16,1318.9266669425415,1320.9266274839174,left,1,3,0.48317346174735576,H02N01,2021_Oct_20_1009,t1_Paradigm,2021.1.4,59.98989645124489,
R,left,Pretarget,0,17,17,17,1322.4266808974207,1324.4285104303854,left,1,3,0.43675985001027584,H02N01,2021_Oct_20_1009,t1_Paradigm,2021.1.4,59.98989645124489,
S,right,Target,0,18,18,18,1325.9266820202465,1327.9269200552371,left,0,3,0.9223858418990858,H02N01,2021_Oct_20_1009,t1_Paradigm,2021.1.4,59.98989645124489,
F,left,Distractor,0,19,19,19,1329.4266549124732,1331.4268547720276,left,1,3,0.46268769714515656,H02N01,2021_Oct_20_1009,t1_Paradigm,2021.1.4,59.98989645124489,
R,right,Target,0,20,20,20,1332.9266528273001,1334.926754521497,right,1,3,0.7385622109868564,H02N01,2021_Oct_20_1009,t1_Paradigm,2021.1.4,59.98989645124489,
P,left,Distractor,0,21,21,21,1336.4267498698318,1338.42671971448,left,1,3,0.5027475074166432,H02N01,2021_Oct_20_1009,t1_Paradigm,2021.1.4,59.98989645124489,
L,left,Distractor,0,22,22,22,1339.9265501706977,1341.9286600844935,left,1,3,0.6008211244479753,H02N01,2021_Oct_20_1009,t1_Paradigm,2021.1.4,59.98989645124489,
R,right,Target,0,23,23,23,1343.4265464814962,1345.4264682058129,left,0,3,0.46298957167891786,H02N01,2021_Oct_20_1009,t1_Paradigm,2021.1.4,59.98989645124489,
H,left,Pretarget,0,24,24,24,1346.9266550728935,1348.9270057093236,left,1,3,0.5145485242828727,H02N01,2021_Oct_20_1009,t1_Paradigm,2021.1.4,59.98989645124489,
G,left,Pretarget,0,25,25,25,1350.426744095399,1352.4269044963294,left,1,3,0.5829239099402912,H02N01,2021_Oct_20_1009,t1_Paradigm,2021.1.4,59.98989645124489,
T,left,Distractor,0,26,26,26,1353.926654752111,1355.926712496439,left,1,3,0.7308231871575117,H02N01,2021_Oct_20_1009,t1_Paradigm,2021.1.4,59.98989645124489,
H,right,Target,0,27,27,27,1357.4274200249347,1359.4284305507317,left,0,3,0.9250449683750048,H02N01,2021_Oct_20_1009,t1_Paradigm,2021.1.4,59.98989645124489,
G,right,Target,0,28,28,28,1360.9265296394005,1362.9264491181239,left,0,3,0.5949443553108722,H02N01,2021_Oct_20_1009,t1_Paradigm,2021.1.4,59.98989645124489,
D,left,Distractor,0,29,29,29,1364.4264826418948,1366.426858300867,left,1,3,1.0146981783909723,H02N01,2021_Oct_20_1009,t1_Paradigm,2021.1.4,59.98989645124489,
N,left,Pretarget,0,30,30,30,1367.9267019099789,1369.9268446667702,left,1,3,0.6987420397344977,H02N01,2021_Oct_20_1009,t1_Paradigm,2021.1.4,59.98989645124489,
V,left,Distractor,0,31,31,31,1371.4267293385346,1373.4269282356836,left,1,3,0.7986660417518578,H02N01,2021_Oct_20_1009,t1_Paradigm,2021.1.4,59.98989645124489,
R,left,Distractor,0,32,32,32,1374.9273374184268,1376.9285859792144,left,1,3,1.440862905641552,H02N01,2021_Oct_20_1009,t1_Paradigm,2021.1.4,59.98989645124489,
N,right,Target,0,33,33,33,1378.426831995137,1380.428709648375,right,1,3,1.3167029654141515,H02N01,2021_Oct_20_1009,t1_Paradigm,2021.1.4,59.98989645124489,
Z,left,Distractor,0,34,34,34,1381.9270300902426,1383.9265357346158,left,1,3,0.8748519900836982,H02N01,2021_Oct_20_1009,t1_Paradigm,2021.1.4,59.98989645124489,
N,left,Lure,0,35,35,35,1385.4265458398731,1387.426814992621,left,1,3,0.9106120931683108,H02N01,2021_Oct_20_1009,t1_Paradigm,2021.1.4,59.98989645124489,
Y,left,Pretarget,0,36,36,36,1388.926557549159,1390.9282860294916,left,1,3,1.0890484984847717,H02N01,2021_Oct_20_1009,t1_Paradigm,2021.1.4,59.98989645124489,
Y,left,Lure,0,37,37,37,1392.426831353514,1394.4268913434353,left,1,3,1.030652296030894,H02N01,2021_Oct_20_1009,t1_Paradigm,2021.1.4,59.98989645124489,
B,left,Distractor,0,38,38,38,1395.926884446235,1397.928758249851,left,1,3,0.7765445085242391,H02N01,2021_Oct_20_1009,t1_Paradigm,2021.1.4,59.98989645124489,
Y,right,Target,0,39,39,39,1399.4268631128944,1401.4285643250914,right,1,3,1.3248484451905824,H02N01,2021_Oct_20_1009,t1_Paradigm,2021.1.4,59.98989645124489,
J,left,Distractor,0,40,40,40,1402.9265219401568,1404.9266284463229,left,1,3,1.0427648114855401,H02N01,2021_Oct_20_1009,t1_Paradigm,2021.1.4,59.98989645124489,
X,left,Distractor,0,41,41,41,1406.4263937798096,1408.4398305653012,left,1,3,0.5534794328850694,H02N01,2021_Oct_20_1009,t1_Paradigm,2021.1.4,59.98989645124489,
W,left,Pretarget,0,42,42,42,1409.9261581508326,1411.926822852285,left,1,3,0.5065393853001297,H02N01,2021_Oct_20_1009,t1_Paradigm,2021.1.4,59.98989645124489,
S,left,Pretarget,0,43,43,43,1413.4265285165748,1415.4266815390438,left,1,3,0.49466586724156514,H02N01,2021_Oct_20_1009,t1_Paradigm,2021.1.4,59.98989645124489,
R,left,Distractor,0,44,44,44,1416.926527393749,1418.9265042960178,left,1,3,0.6429481818340719,H02N01,2021_Oct_20_1009,t1_Paradigm,2021.1.4,59.98989645124489,
W,right,Target,0,45,45,45,1420.4265801656875,1422.4265073436545,right,1,3,0.9029009790392593,H02N01,2021_Oct_20_1009,t1_Paradigm,2021.1.4,59.98989645124489,
S,right,Target,0,46,46,46,1423.9273929171613,1425.9267198749003,right,1,3,1.2906105468864553,H02N01,2021_Oct_20_1009,t1_Paradigm,2021.1.4,59.98989645124489,
D,left,Distractor,0,47,47,47,1427.4265734288492,1429.4266918047215,left,1,3,0.6544575898442417,H02N01,2021_Oct_20_1009,t1_Paradigm,2021.1.4,59.98989645124489,
T,left,Distractor,0,48,48,48,1430.9265062208287,1432.926896315883,left,1,3,1.298611986625474,H02N01,2021_Oct_20_1009,t1_Paradigm,2021.1.4,59.98989645124489,
S,right,Target,0,49,49,49,1434.4266738398,1436.4268034437555,right,1,3,0.6784426610101946,H02N01,2021_Oct_20_1009,t1_Paradigm,2021.1.4,59.98989645124489,
K,left,Distractor,0,50,50,50,1437.9265241857502,1439.9289536181604,left,1,3,1.0484930493403226,H02N01,2021_Oct_20_1009,t1_Paradigm,2021.1.4,59.98989645124489,
S,left,Lure,0,51,51,51,1441.4269077043282,1443.4269301604945,left,1,3,0.9743980875355192,H02N01,2021_Oct_20_1009,t1_Paradigm,2021.1.4,59.98989645124489,
T,left,Pretarget,0,52,52,52,1444.9265954037546,1446.9269367369125,left,1,3,0.9626782335108146,H02N01,2021_Oct_20_1009,t1_Paradigm,2021.1.4,59.98989645124489,
V,left,Distractor,0,53,53,53,1448.426658762095,1450.4269401053316,left,1,3,0.5503885070793331,H02N01,2021_Oct_20_1009,t1_Paradigm,2021.1.4,59.98989645124489,
B,left,Distractor,0,54,54,54,1451.9266091982136,1453.92705447122,left,1,3,0.9062312230817042,H02N01,2021_Oct_20_1009,t1_Paradigm,2021.1.4,59.98989645124489,
T,right,Target,0,55,55,55,1455.4267068823683,1457.4288225705968,right,1,3,0.6204006237676367,H02N01,2021_Oct_20_1009,t1_Paradigm,2021.1.4,59.98989645124489,
Y,left,Pretarget,0,56,56,56,1458.926617218298,1460.9268889374216,left,1,3,0.6904425750253722,H02N01,2021_Oct_20_1009,t1_Paradigm,2021.1.4,59.98989645124489,
T,left,Lure,0,57,57,57,1462.4266677445848,1464.4268762657885,right,0,3,0.6306136714993045,H02N01,2021_Oct_20_1009,t1_Paradigm,2021.1.4,59.98989645124489,
P,left,Pretarget,0,58,58,58,1465.9265710228356,1467.9269322457258,left,1,3,0.7625251468271017,H02N01,2021_Oct_20_1009,t1_Paradigm,2021.1.4,59.98989645124489,
Y,right,Target,0,59,59,59,1469.426466281002,1471.4268672832986,right,1,3,1.198560947086662,H02N01,2021_Oct_20_1009,t1_Paradigm,2021.1.4,59.98989645124489,
R,left,Distractor,0,60,60,60,1472.9264587421785,1474.9397126706317,left,1,3,0.7897163117304444,H02N01,2021_Oct_20_1009,t1_Paradigm,2021.1.4,59.98989645124489,
P,right,Target,0,61,61,61,1476.4265830529039,1478.426648817258,left,0,3,0.5027500738506205,H02N01,2021_Oct_20_1009,t1_Paradigm,2021.1.4,59.98989645124489,
L,left,Distractor,0,62,62,62,1479.9265463210759,1481.926707363571,left,1,3,0.458647197810933,H02N01,2021_Oct_20_1009,t1_Paradigm,2021.1.4,59.98989645124489,
V,left,Distractor,0,63,63,63,1483.4266286067432,1485.4262802159647,left,1,3,0.5430950769805349,H02N01,2021_Oct_20_1009,t1_Paradigm,2021.1.4,59.98989645124489,
H,left,Lure,0,0,0,0,1524.4818116578972,1526.4764372644713,left,1,3,0.9168013232410885,H02N01,2021_Oct_20_1009,t1_Paradigm,2021.1.4,59.98989645124489,
B,left,Distractor,0,1,1,1,1527.976439670485,1529.9764136855374,left,1,3,0.5529478642274626,H02N01,2021_Oct_20_1009,t1_Paradigm,2021.1.4,59.98989645124489,
T,left,Distractor,0,2,2,2,1531.476546657912,1533.476590607781,left,1,3,0.6046210223576054,H02N01,2021_Oct_20_1009,t1_Paradigm,2021.1.4,59.98989645124489,
R,left,Distractor,0,3,3,3,1534.9766109786578,1536.9766161115258,left,1,3,0.5927353138104081,H02N01,2021_Oct_20_1009,t1_Paradigm,2021.1.4,59.98989645124489,
H,left,Pretarget,0,4,4,4,1538.4764221867663,1540.478856431262,left,1,3,0.6586395627236925,H02N01,2021_Oct_20_1009,t1_Paradigm,2021.1.4,59.98989645124489,
K,left,Distractor,0,5,5,5,1541.977299740247,1543.9763921918347,left,1,3,0.5529363154200837,H02N01,2021_Oct_20_1009,t1_Paradigm,2021.1.4,59.98989645124489,
G,left,Distractor,0,6,6,6,1545.4764741567196,1547.4768247930915,left,1,3,0.5723701707320288,H02N01,2021_Oct_20_1009,t1_Paradigm,2021.1.4,59.98989645124489,
H,right,Target,0,7,7,7,1548.9764749587048,1550.976704973611,right,1,3,0.5925556647707708,H02N01,2021_Oct_20_1009,t1_Paradigm,2021.1.4,59.98989645124489,
Y,left,Pretarget,0,8,8,8,1552.4765829085372,1554.476545374724,left,1,3,0.5969378180452622,H02N01,2021_Oct_20_1009,t1_Paradigm,2021.1.4,59.98989645124489,
S,left,Distractor,0,9,9,9,1555.976515058952,1557.9781620556605,left,1,3,0.5671096619335003,H02N01,2021_Oct_20_1009,t1_Paradigm,2021.1.4,59.98989645124489,
P,left,Distractor,0,10,10,10,1559.4765030288836,1561.476633916027,left,1,3,0.5246422337368131,H02N01,2021_Oct_20_1009,t1_Paradigm,2021.1.4,59.98989645124489,
Y,right,Target,0,11,11,11,1562.9764743170817,1564.976775870833,right,1,3,1.0724300002329983,H02N01,2021_Oct_20_1009,t1_Paradigm,2021.1.4,59.98989645124489,
H,left,Lure,0,12,12,12,1566.4764407933108,1568.4768084321986,left,1,3,0.6925175213837065,H02N01,2021_Oct_20_1009,t1_Paradigm,2021.1.4,59.98989645124489,
Q,left,Distractor,0,13,13,13,1569.9764845827594,1571.9764926027856,left,1,3,0.6489247203571722,H02N01,2021_Oct_20_1009,t1_Paradigm,2021.1.4,59.98989645124489,
V,left,Pretarget,0,14,14,14,1573.4765004624496,1575.478264231002,left,1,3,0.554954159015324,H02N01,2021_Oct_20_1009,t1_Paradigm,2021.1.4,59.98989645124489,
G,left,Distractor,0,15,15,15,1576.9764021366718,1578.976355620427,left,1,3,0.8168863036553375,H02N01,2021_Oct_20_1009,t1_Paradigm,2021.1.4,59.98989645124489,
Z,left,Pretarget,0,16,16,16,1580.4765258057741,1582.4767558207386,left,1,3,0.7404854181222618,H02N01,2021_Oct_20_1009,t1_Paradigm,2021.1.4,59.98989645124489,
V,right,Target,0,17,17,17,1583.976564462413,1585.9765862769564,right,1,3,0.8087215757695958,H02N01,2021_Oct_20_1009,t1_Paradigm,2021.1.4,59.98989645124489,
N,left,Distractor,0,18,18,18,1587.4764667782583,1589.476677865896,left,1,3,0.5085713442531414,H02N01,2021_Oct_20_1009,t1_Paradigm,2021.1.4,59.98989645124489,
Z,right,Target,0,19,19,19,1590.9772766425158,1592.9896672932082,right,1,3,0.9636521879001521,H02N01,2021_Oct_20_1009,t1_Paradigm,2021.1.4,59.98989645124489,
R,left,Distractor,0,20,20,20,1594.4763926730375,1596.4763041317347,left,1,3,0.48491284932242706,H02N01,2021_Oct_20_1009,t1_Paradigm,2021.1.4,59.98989645124489,
P,left,Distractor,0,21,21,21,1597.9764496153803,1599.9768194998614,left,1,3,0.8404119865735993,H02N01,2021_Oct_20_1009,t1_Paradigm,2021.1.4,59.98989645124489,
Z,right,Target,0,22,22,22,1601.4764539462049,1603.4767372141941,right,1,3,0.5085421513067558,H02N01,2021_Oct_20_1009,t1_Paradigm,2021.1.4,59.98989645124489,
D,left,Pretarget,0,23,23,23,1604.9764444825123,1606.9766860463424,left,1,3,0.5607998103369027,H02N01,2021_Oct_20_1009,t1_Paradigm,2021.1.4,59.98989645124489,
K,left,Distractor,0,24,24,24,1608.4767089836532,1610.4775510884938,left,1,3,0.6436693443683907,H02N01,2021_Oct_20_1009,t1_Paradigm,2021.1.4,59.98989645124489,
W,left,Distractor,0,25,25,25,1611.9764229888096,1613.9766036002547,left,1,3,0.5527050172677264,H02N01,2021_Oct_20_1009,t1_Paradigm,2021.1.4,59.98989645124489,
D,right,Target,0,26,26,26,1615.4764353396604,1617.476263710705,right,1,3,0.6850428382749669,H02N01,2021_Oct_20_1009,t1_Paradigm,2021.1.4,59.98989645124489,
G,left,Pretarget,0,27,27,27,1618.976467901084,1620.9764624474337,left,1,3,0.4969448435585946,H02N01,2021_Oct_20_1009,t1_Paradigm,2021.1.4,59.98989645124489,
V,left,Distractor,0,28,28,28,1622.4764353396604,1624.4788673385046,left,1,3,0.48244363750563934,H02N01,2021_Oct_20_1009,t1_Paradigm,2021.1.4,59.98989645124489,
D,right,Target,0,29,29,29,1625.976437745674,1627.976792873349,right,1,3,0.5043810305069201,H02N01,2021_Oct_20_1009,t1_Paradigm,2021.1.4,59.98989645124489,
G,right,Target,0,30,30,30,1629.4763644424384,1631.4767218157067,right,1,3,0.7647078826557845,H02N01,2021_Oct_20_1009,t1_Paradigm,2021.1.4,59.98989645124489,
B,left,Pretarget,0,31,31,31,1632.976398928673,1634.9767521314789,left,1,3,0.8005770583986305,H02N01,2021_Oct_20_1009,t1_Paradigm,2021.1.4,59.98989645124489,
N,left,Distractor,0,32,32,32,1636.4764821767458,1638.4765950989677,left,1,3,0.5330956833204255,H02N01,2021_Oct_20_1009,t1_Paradigm,2021.1.4,59.98989645124489,
F,left,Distractor,0,33,33,33,1639.976271570311,1641.9782868475304,left,1,3,0.8229125664220192,H02N01,2021_Oct_20_1009,t1_Paradigm,2021.1.4,59.98989645124489,
B,right,Target,0,34,34,34,1643.4772164921742,1645.4783380154404,right,1,3,0.6668228971539065,H02N01,2021_Oct_20_1009,t1_Paradigm,2021.1.4,59.98989645124489,
Q,left,Pretarget,0,35,35,35,1646.976385775779,1648.9767566227238,left,1,3,0.720438510470558,H02N01,2021_Oct_20_1009,t1_Paradigm,2021.1.4,59.98989645124489,
S,left,Pretarget,0,36,36,36,1650.476462607854,1652.476726627734,left,1,3,0.5485759766306728,H02N01,2021_Oct_20_1009,t1_Paradigm,2021.1.4,59.98989645124489,
W,left,Distractor,0,37,37,37,1653.9764201015932,1655.9764499361627,left,1,3,0.7609253080445342,H02N01,2021_Oct_20_1009,t1_Paradigm,2021.1.4,59.98989645124489,
Q,right,Target,0,38,38,38,1657.4771719007404,1659.478167669673,right,1,3,0.6670904459315352,H02N01,2021_Oct_20_1009,t1_Paradigm,2021.1.4,59.98989645124489,
S,right,Target,0,39,39,39,1660.9763071793132,1662.9768098758068,right,1,3,0.5604982565855607,H02N01,2021_Oct_20_1009,t1_Paradigm,2021.1.4,59.98989645124489,
T,left,Distractor,0,40,40,40,1664.4765437706956,1666.4767734648194,left,1,3,0.5328865204937756,H02N01,2021_Oct_20_1009,t1_Paradigm,2021.1.4,59.98989645124489,
G,left,Distractor,0,41,41,41,1667.9765766529017,1669.9766565325554,left,1,3,0.48848337394883856,H02N01,2021_Oct_20_1009,t1_Paradigm,2021.1.4,59.98989645124489,
D,left,Distractor,0,42,42,42,1671.476557244372,1673.47639299382,left,1,3,0.7172885570907965,H02N01,2021_Oct_20_1009,t1_Paradigm,2021.1.4,59.98989645124489,
S,left,Lure,0,43,43,43,1674.976849976054,1676.9767267881543,left,1,3,0.4647510946379043,H02N01,2021_Oct_20_1009,t1_Paradigm,2021.1.4,59.98989645124489,
Z,left,Pretarget,0,44,44,44,1678.4765331842354,1680.4766573345405,left,1,3,0.5329814778524451,H02N01,2021_Oct_20_1009,t1_Paradigm,2021.1.4,59.98989645124489,
J,left,Distractor,0,45,45,45,1681.976515058952,1683.9772083117277,left,1,3,0.5841102352133021,H02N01,2021_Oct_20_1009,t1_Paradigm,2021.1.4,59.98989645124489,
M,left,Pretarget,0,46,46,46,1685.4765950989677,1687.4773274896434,left,1,3,0.8119834889657795,H02N01,2021_Oct_20_1009,t1_Paradigm,2021.1.4,59.98989645124489,
Z,right,Target,0,47,47,47,1688.976498698059,1690.978680471424,right,1,3,0.7024501882842742,H02N01,2021_Oct_20_1009,t1_Paradigm,2021.1.4,59.98989645124489,
P,left,Distractor,0,48,48,48,1692.4764459261205,1694.4766461065155,left,1,3,0.4684842657879926,H02N01,2021_Oct_20_1009,t1_Paradigm,2021.1.4,59.98989645124489,
M,right,Target,0,49,49,49,1695.9764338960522,1697.9766927831806,right,1,3,0.5206148872966878,H02N01,2021_Oct_20_1009,t1_Paradigm,2021.1.4,59.98989645124489,
K,left,Distractor,0,50,50,50,1699.4763958810363,1701.4767025675974,left,1,3,0.7164522266830318,H02N01,2021_Oct_20_1009,t1_Paradigm,2021.1.4,59.98989645124489,
Y,left,Distractor,0,51,51,51,1702.9763665276696,1704.9767222969094,left,1,3,0.5444523896439932,H02N01,2021_Oct_20_1009,t1_Paradigm,2021.1.4,59.98989645124489,
X,left,Distractor,0,52,52,52,1706.476393635443,1708.4778128628386,left,1,3,0.9474375791614875,H02N01,2021_Oct_20_1009,t1_Paradigm,2021.1.4,59.98989645124489,
F,left,Pretarget,0,53,53,53,1709.976157364843,1711.9766433796613,left,1,3,0.9205065846326761,H02N01,2021_Oct_20_1009,t1_Paradigm,2021.1.4,59.98989645124489,
M,left,Lure,0,54,54,54,1713.4763554600067,1715.4765806628857,left,1,3,0.4926784997805953,H02N01,2021_Oct_20_1009,t1_Paradigm,2021.1.4,59.98989645124489,
V,left,Distractor,0,55,55,55,1716.9765278910054,1718.9766539661214,left,1,3,0.7205530367209576,H02N01,2021_Oct_20_1009,t1_Paradigm,2021.1.4,59.98989645124489,
F,right,Target,0,56,56,56,1720.4763310790877,1722.47656911402,right,1,3,0.7885389689472504,H02N01,2021_Oct_20_1009,t1_Paradigm,2021.1.4,59.98989645124489,
S,left,Distractor,0,57,57,57,1723.9772121613496,1725.977985935402,left,1,3,0.5512703913846053,H02N01,2021_Oct_20_1009,t1_Paradigm,2021.1.4,59.98989645124489,
D,left,Distractor,0,58,58,58,1727.4763564224122,1729.476150788425,left,1,3,0.7651945390971377,H02N01,2021_Oct_20_1009,t1_Paradigm,2021.1.4,59.98989645124489,
F,right,Target,0,59,59,59,1730.976286006393,1732.9766921415576,left,0,3,1.0085346124251373,H02N01,2021_Oct_20_1009,t1_Paradigm,2021.1.4,59.98989645124489,
V,left,Pretarget,0,60,60,60,1734.476417374739,1736.4764363020658,left,1,3,0.45281405781861395,H02N01,2021_Oct_20_1009,t1_Paradigm,2021.1.4,59.98989645124489,
J,left,Distractor,0,61,61,61,1737.976381284534,1739.9764460865408,left,1,3,0.5528073530294932,H02N01,2021_Oct_20_1009,t1_Paradigm,2021.1.4,59.98989645124489,
V,left,Lure,0,62,62,62,1741.4770628280821,1743.4788240302587,right,0,3,0.6182364944834262,H02N01,2021_Oct_20_1009,t1_Paradigm,2021.1.4,59.98989645124489,
V,right,Target,0,63,63,63,1744.9761525528156,1746.9764047031058,left,0,3,0.8809841174515896,H02N01,2021_Oct_20_1009,t1_Paradigm,2021.1.4,59.98989645124489,
R,left,Distractor,0,0,0,0,1832.5454840884195,1834.5428631372633,left,1,4,0.4021613703807816,H02N01,2021_Oct_20_1009,t1_Paradigm,2021.1.4,59.98989645124489,
F,left,Distractor,0,1,1,1,1836.042911417957,1838.0428796585766,left,1,4,0.4061928872251883,H02N01,2021_Oct_20_1009,t1_Paradigm,2021.1.4,59.98989645124489,
P,left,Pretarget,0,2,2,2,1839.542999478057,1841.5427896736655,left,1,4,0.39443261217093095,H02N01,2021_Oct_20_1009,t1_Paradigm,2021.1.4,59.98989645124489,
H,left,Distractor,0,3,3,3,1843.0437807909911,1845.0448153769248,left,1,4,0.5882838672841899,H02N01,2021_Oct_20_1009,t1_Paradigm,2021.1.4,59.98989645124489,
Z,left,Distractor,0,4,4,4,1846.542873402941,1848.5432894829428,left,1,4,0.6578433325630613,H02N01,2021_Oct_20_1009,t1_Paradigm,2021.1.4,59.98989645124489,
T,left,Distractor,0,5,5,5,1850.0429123803624,1852.0430153577472,left,1,4,0.9822237278567627,H02N01,2021_Oct_20_1009,t1_Paradigm,2021.1.4,59.98989645124489,
P,right,Target,0,6,6,6,1853.5429901747848,1855.543193883961,None,0,4,,H02N01,2021_Oct_20_1009,t1_Paradigm,2021.1.4,59.98989645124489,
G,left,Distractor,0,7,7,7,1857.0429056435241,1859.04503673024,left,1,4,0.84422022535,H02N01,2021_Oct_20_1009,t1_Paradigm,2021.1.4,59.98989645124489,
L,left,Distractor,0,8,8,8,1860.5428798189969,1862.5428272074787,left,1,4,0.5145135569619015,H02N01,2021_Oct_20_1009,t1_Paradigm,2021.1.4,59.98989645124489,
P,left,Lure,0,9,9,9,1864.0427138039959,1866.0428331423318,left,1,4,0.982553832931444,H02N01,2021_Oct_20_1009,t1_Paradigm,2021.1.4,59.98989645124489,
Q,left,Pretarget,0,10,10,10,1867.5429853627575,1869.543242966698,left,1,4,0.6980834334972315,H02N01,2021_Oct_20_1009,t1_Paradigm,2021.1.4,59.98989645124489,
D,left,Distractor,0,11,11,11,1871.0430647612666,1873.0431192975375,None,0,4,,H02N01,2021_Oct_20_1009,t1_Paradigm,2021.1.4,59.98989645124489,
M,left,Pretarget,0,12,12,12,1874.54309860582,1876.5434338437626,left,1,4,1.1697792466147803,H02N01,2021_Oct_20_1009,t1_Paradigm,2021.1.4,59.98989645124489,
C,left,Distractor,0,13,13,13,1878.0430663652369,1880.0434513274813,left,1,4,0.853768571629189,H02N01,2021_Oct_20_1009,t1_Paradigm,2021.1.4,59.98989645124489,
Q,right,Target,0,14,14,14,1881.5429651522427,1883.5435053826077,right,1,4,1.3537174037192017,H02N01,2021_Oct_20_1009,t1_Paradigm,2021.1.4,59.98989645124489,
R,left,Distractor,0,15,15,15,1885.0429630670696,1887.0432761696866,left,1,4,0.9099435420939699,H02N01,2021_Oct_20_1009,t1_Paradigm,2021.1.4,59.98989645124489,
M,right,Target,0,16,16,16,1888.5429696434876,1890.5432497035363,right,1,4,0.642112813773565,H02N01,2021_Oct_20_1009,t1_Paradigm,2021.1.4,59.98989645124489,
S,left,Distractor,0,17,17,17,1892.043359257339,1894.0436521494412,left,1,4,0.5016247009625658,H02N01,2021_Oct_20_1009,t1_Paradigm,2021.1.4,59.98989645124489,
Z,left,Distractor,0,18,18,18,1895.543071016902,1897.5434877384687,left,1,4,0.6176994721754454,H02N01,2021_Oct_20_1009,t1_Paradigm,2021.1.4,59.98989645124489,
L,left,Pretarget,0,19,19,19,1899.0430827261298,1901.0436460541678,left,1,4,0.7815871927887201,H02N01,2021_Oct_20_1009,t1_Paradigm,2021.1.4,59.98989645124489,
M,right,Target,0,20,20,20,1902.5429937036242,1904.5432503451011,right,1,4,0.6099389546434395,H02N01,2021_Oct_20_1009,t1_Paradigm,2021.1.4,59.98989645124489,
P,left,Distractor,0,21,21,21,1906.0429306660662,1908.0454130307771,left,1,4,1.011910731147509,H02N01,2021_Oct_20_1009,t1_Paradigm,2021.1.4,59.98989645124489,
F,left,Distractor,0,22,22,22,1909.5430344454944,1911.5431935631786,left,1,4,1.049828868242912,H02N01,2021_Oct_20_1009,t1_Paradigm,2021.1.4,59.98989645124489,
L,right,Target,0,23,23,23,1913.0430439091288,1915.043216179707,right,1,4,0.7498252431978472,H02N01,2021_Oct_20_1009,t1_Paradigm,2021.1.4,59.98989645124489,
L,left,Lure,0,24,24,24,1916.542929864081,1918.5429641898372,left,1,4,0.8500697262934409,H02N01,2021_Oct_20_1009,t1_Paradigm,2021.1.4,59.98989645124489,
V,left,Pretarget,0,25,25,25,1920.0428738841438,1922.043149132107,left,1,4,0.7260201418539509,H02N01,2021_Oct_20_1009,t1_Paradigm,2021.1.4,59.98989645124489,
Z,left,Distractor,0,26,26,26,1923.5429385257303,1925.5445601790561,left,1,4,0.5686045985785313,H02N01,2021_Oct_20_1009,t1_Paradigm,2021.1.4,59.98989645124489,
H,left,Distractor,0,27,27,27,1927.0428318590857,1929.042812290194,left,1,4,0.6061881394125521,H02N01,2021_Oct_20_1009,t1_Paradigm,2021.1.4,59.98989645124489,
X,left,Distractor,0,28,28,28,1930.5428098841803,1932.543013914139,left,1,4,0.5619489225209691,H02N01,2021_Oct_20_1009,t1_Paradigm,2021.1.4,59.98989645124489,
V,right,Target,0,29,29,29,1934.0429011522792,1936.0429011522792,right,1,4,1.286265606584493,H02N01,2021_Oct_20_1009,t1_Paradigm,2021.1.4,59.98989645124489,
C,left,Distractor,0,30,30,30,1937.5428599292645,1939.542759197473,left,1,4,0.7464488037512638,H02N01,2021_Oct_20_1009,t1_Paradigm,2021.1.4,59.98989645124489,
S,left,Pretarget,0,31,31,31,1941.0432973426068,1943.0432591671706,left,1,4,0.4139068885706365,H02N01,2021_Oct_20_1009,t1_Paradigm,2021.1.4,59.98989645124489,
D,left,Distractor,0,32,32,32,1944.5429821547586,1946.5434206908685,left,1,4,0.43376837274990976,H02N01,2021_Oct_20_1009,t1_Paradigm,2021.1.4,59.98989645124489,
V,left,Distractor,0,33,33,33,1948.0429576134193,1950.0434272673447,right,0,4,1.0938499398180284,H02N01,2021_Oct_20_1009,t1_Paradigm,2021.1.4,59.98989645124489,
R,left,Distractor,0,34,34,34,1951.5429208815913,1953.5432721596444,left,1,4,0.6979987418162636,H02N01,2021_Oct_20_1009,t1_Paradigm,2021.1.4,59.98989645124489,
S,right,Target,0,35,35,35,1955.043082084565,1957.0434362497763,left,0,4,0.5256655916455202,H02N01,2021_Oct_20_1009,t1_Paradigm,2021.1.4,59.98989645124489,
Y,left,Distractor,0,36,36,36,1958.543055297574,1960.5449515572982,left,1,4,0.48015247069997713,H02N01,2021_Oct_20_1009,t1_Paradigm,2021.1.4,59.98989645124489,
N,left,Pretarget,0,37,37,37,1962.0429053227417,1964.0432222749223,left,1,4,0.6618203130783513,H02N01,2021_Oct_20_1009,t1_Paradigm,2021.1.4,59.98989645124489,
Z,left,Pretarget,0,38,38,38,1965.542885914212,1967.5428843101836,left,1,4,0.7943730714032426,H02N01,2021_Oct_20_1009,t1_Paradigm,2021.1.4,59.98989645124489,
P,left,Pretarget,0,39,39,39,1969.0428575232509,1971.0430031672586,left,1,4,0.5420524710207246,H02N01,2021_Oct_20_1009,t1_Paradigm,2021.1.4,59.98989645124489,
M,left,Distractor,0,40,40,40,1972.5428288115072,1974.5449124195147,left,1,4,0.6242393387365155,H02N01,2021_Oct_20_1009,t1_Paradigm,2021.1.4,59.98989645124489,
N,right,Target,0,41,41,41,1976.042899548309,1978.0430291522644,left,0,4,1.0620498147327453,H02N01,2021_Oct_20_1009,t1_Paradigm,2021.1.4,59.98989645124489,
Z,right,Target,0,42,42,42,1979.5429786259192,1981.5432112072594,left,0,4,0.761751051992178,H02N01,2021_Oct_20_1009,t1_Paradigm,2021.1.4,59.98989645124489,
P,right,Target,0,43,43,43,1983.0428729217383,1985.0432906057686,left,0,4,0.5577768945368007,H02N01,2021_Oct_20_1009,t1_Paradigm,2021.1.4,59.98989645124489,
X,left,Pretarget,0,44,44,44,1986.543103738688,1988.544731487229,left,1,4,0.5762525146710686,H02N01,2021_Oct_20_1009,t1_Paradigm,2021.1.4,59.98989645124489,
Z,left,Lure,0,45,45,45,1990.0426858942374,1992.0451246299199,left,1,4,1.2679766931105405,H02N01,2021_Oct_20_1009,t1_Paradigm,2021.1.4,59.98989645124489,
R,left,Pretarget,0,46,46,46,1993.5428377939388,1995.5428342650994,left,1,4,0.4103042837814428,H02N01,2021_Oct_20_1009,t1_Paradigm,2021.1.4,59.98989645124489,
K,left,Distractor,0,47,47,47,1997.0428235182771,1999.0433496332844,left,1,4,0.4459084771806374,H02N01,2021_Oct_20_1009,t1_Paradigm,2021.1.4,59.98989645124489,
X,right,Target,0,48,48,48,2000.5429590570275,2002.5432715180214,left,0,4,0.7377448079059832,H02N01,2021_Oct_20_1009,t1_Paradigm,2021.1.4,59.98989645124489,
B,left,Distractor,0,49,49,49,2004.043004771287,2006.0428427663865,left,1,4,0.4862977509619668,H02N01,2021_Oct_20_1009,t1_Paradigm,2021.1.4,59.98989645124489,
R,right,Target,0,50,50,50,2007.5436702747247,2009.5442194875213,right,1,4,0.5367303682724014,H02N01,2021_Oct_20_1009,t1_Paradigm,2021.1.4,59.98989645124489,
Y,left,Pretarget,0,51,51,51,2011.0427840595949,2013.0426964806975,left,1,4,0.5743665205664001,H02N01,2021_Oct_20_1009,t1_Paradigm,2021.1.4,59.98989645124489,
W,left,Pretarget,0,52,52,52,2014.5428047513706,2016.5451642489643,left,1,4,0.5280334301060066,H02N01,2021_Oct_20_1009,t1_Paradigm,2021.1.4,59.98989645124489,
Z,left,Distractor,0,53,53,53,2018.0430153577472,2020.0430763101322,left,1,4,0.4540764130651951,H02N01,2021_Oct_20_1009,t1_Paradigm,2021.1.4,59.98989645124489,
Q,left,Distractor,0,54,54,54,2021.5429500745959,2023.5429882499739,left,1,4,0.4580386367160827,H02N01,2021_Oct_20_1009,t1_Paradigm,2021.1.4,59.98989645124489,
Y,right,Target,0,55,55,55,2025.0436322597088,2027.0431757586775,left,0,4,0.4939665191923268,H02N01,2021_Oct_20_1009,t1_Paradigm,2021.1.4,59.98989645124489,
W,right,Target,0,56,56,56,2028.5428179042065,2030.5431691822596,right,1,4,0.5462642784696072,H02N01,2021_Oct_20_1009,t1_Paradigm,2021.1.4,59.98989645124489,
H,left,Pretarget,0,57,57,57,2032.0429133427679,2034.0431706258678,left,1,4,0.4699512926163152,H02N01,2021_Oct_20_1009,t1_Paradigm,2021.1.4,59.98989645124489,
M,left,Distractor,0,58,58,58,2035.54291735281,2037.543239758641,left,1,4,0.5057351350551471,H02N01,2021_Oct_20_1009,t1_Paradigm,2021.1.4,59.98989645124489,
R,left,Pretarget,0,59,59,59,2039.0428867161972,2041.0457880481263,left,1,4,0.47516624751733616,H02N01,2021_Oct_20_1009,t1_Paradigm,2021.1.4,59.98989645124489,
J,left,Distractor,0,60,60,60,2042.5427563102567,2044.542888480646,left,1,4,0.5463480078033172,H02N01,2021_Oct_20_1009,t1_Paradigm,2021.1.4,59.98989645124489,
H,right,Target,0,61,61,61,2046.0429014731199,2048.0430878589978,left,0,4,0.4859692498575896,H02N01,2021_Oct_20_1009,t1_Paradigm,2021.1.4,59.98989645124489,
Z,left,Distractor,0,62,62,62,2049.542866986885,2051.54300011968,left,1,4,0.5059459019103087,H02N01,2021_Oct_20_1009,t1_Paradigm,2021.1.4,59.98989645124489,
R,right,Target,0,63,63,63,2053.0427949668956,2055.043068931671,None,0,4,,H02N01,2021_Oct_20_1009,t1_Paradigm,2021.1.4,59.98989645124489,
J,left,Pretarget,0,0,0,0,2105.7637374570477,2107.760025458818,left,1,4,1.0571091454476118,H02N01,2021_Oct_20_1009,t1_Paradigm,2021.1.4,59.98989645124489,
G,left,Pretarget,0,1,1,1,2109.2596313537797,2111.260334551451,left,1,4,0.4687575889984146,H02N01,2021_Oct_20_1009,t1_Paradigm,2021.1.4,59.98989645124489,
Z,left,Distractor,0,2,2,2,2112.7595477848663,2114.7604328771704,left,1,4,0.3767253124387935,H02N01,2021_Oct_20_1009,t1_Paradigm,2021.1.4,59.98989645124489,
F,left,Distractor,0,3,3,3,2116.2595906119095,2118.2613880647114,left,1,4,0.4595871472847648,H02N01,2021_Oct_20_1009,t1_Paradigm,2021.1.4,59.98989645124489,
J,right,Target,0,4,4,4,2119.7595477848663,2121.7605470826384,right,1,4,0.624500792240724,H02N01,2021_Oct_20_1009,t1_Paradigm,2021.1.4,59.98989645124489,
G,right,Target,0,5,5,5,2123.2602043058723,2125.26149874134,right,1,4,0.5478275459026918,H02N01,2021_Oct_20_1009,t1_Paradigm,2021.1.4,59.98989645124489,
H,left,Distractor,0,6,6,6,2126.7593251484213,2128.75969310815,left,1,4,0.6815066394628957,H02N01,2021_Oct_20_1009,t1_Paradigm,2021.1.4,59.98989645124489,
P,left,Distractor,0,7,7,7,2130.2594828224974,2132.2597362559754,left,1,4,0.605185954424087,H02N01,2021_Oct_20_1009,t1_Paradigm,2021.1.4,59.98989645124489,
G,left,Lure,0,8,8,8,2133.7594374290784,2135.759610020439,left,1,4,0.6093884586007334,H02N01,2021_Oct_20_1009,t1_Paradigm,2021.1.4,59.98989645124489,
S,left,Distractor,0,9,9,9,2137.2595072034746,2139.259833779768,left,1,4,0.4532179473317228,H02N01,2021_Oct_20_1009,t1_Paradigm,2021.1.4,59.98989645124489,
R,left,Pretarget,0,10,10,10,2140.7594342210214,2142.761253809149,left,1,4,0.5518250577733852,H02N01,2021_Oct_20_1009,t1_Paradigm,2021.1.4,59.98989645124489,
T,left,Pretarget,0,11,11,11,2144.2593063815148,2146.2597670529503,left,1,4,0.36534037557430565,H02N01,2021_Oct_20_1009,t1_Paradigm,2021.1.4,59.98989645124489,
X,left,Distractor,0,12,12,12,2147.759467263648,2149.7597514940426,left,1,4,0.43315692438045517,H02N01,2021_Oct_20_1009,t1_Paradigm,2021.1.4,59.98989645124489,
F,left,Pretarget,0,13,13,13,2151.259447855118,2153.259785338654,left,1,4,0.46927215514006093,H02N01,2021_Oct_20_1009,t1_Paradigm,2021.1.4,59.98989645124489,
R,right,Target,0,14,14,14,2154.759468867618,2156.759763042908,right,1,4,0.6814094365690835,H02N01,2021_Oct_20_1009,t1_Paradigm,2021.1.4,59.98989645124489,
T,right,Target,0,15,15,15,2158.259694551758,2160.2601821705466,right,1,4,0.8290565634379163,H02N01,2021_Oct_20_1009,t1_Paradigm,2021.1.4,59.98989645124489,
C,left,Distractor,0,16,16,16,2161.7595490681124,2163.759744436422,left,1,4,0.49742829194292426,H02N01,2021_Oct_20_1009,t1_Paradigm,2021.1.4,59.98989645124489,
F,right,Target,0,17,17,17,2165.259671454027,2167.260215854738,right,1,4,0.5008297539898194,H02N01,2021_Oct_20_1009,t1_Paradigm,2021.1.4,59.98989645124489,
M,left,Distractor,0,18,18,18,2168.7595509929233,2170.760193558992,left,1,4,0.6327264724532142,H02N01,2021_Oct_20_1009,t1_Paradigm,2021.1.4,59.98989645124489,
N,left,Distractor,0,19,19,19,2172.2595793838846,2174.2763464134187,left,1,4,0.5726531179388985,H02N01,2021_Oct_20_1009,t1_Paradigm,2021.1.4,59.98989645124489,
R,left,Lure,0,20,20,20,2175.7601348522585,2177.7617876234,left,1,4,0.4475872332113795,H02N01,2021_Oct_20_1009,t1_Paradigm,2021.1.4,59.98989645124489,
F,right,Target,0,21,21,21,2179.2596037648036,2181.259972366155,right,1,4,0.6449028275092132,H02N01,2021_Oct_20_1009,t1_Paradigm,2021.1.4,59.98989645124489,
P,left,Distractor,0,22,22,22,2182.759443845076,2184.7599673937075,left,1,4,0.5049963284400292,H02N01,2021_Oct_20_1009,t1_Paradigm,2021.1.4,59.98989645124489,
L,left,Pretarget,0,23,23,23,2186.2594369478757,2188.2600362056983,left,1,4,0.5728738295729272,H02N01,2021_Oct_20_1009,t1_Paradigm,2021.1.4,59.98989645124489,
T,left,Distractor,0,24,24,24,2189.759455073159,2191.761259904364,left,1,4,0.5118111221818253,H02N01,2021_Oct_20_1009,t1_Paradigm,2021.1.4,59.98989645124489,
F,left,Distractor,0,25,25,25,2193.259370862681,2195.2597410680028,right,0,4,0.9012697016587481,H02N01,2021_Oct_20_1009,t1_Paradigm,2021.1.4,59.98989645124489,
V,left,Distractor,0,26,26,26,2196.7594104817254,2198.759363003017,left,1,4,0.5855009112856351,H02N01,2021_Oct_20_1009,t1_Paradigm,2021.1.4,59.98989645124489,
L,right,Target,0,27,27,27,2200.2594382310635,2202.259333328868,right,1,4,0.5096787522197701,H02N01,2021_Oct_20_1009,t1_Paradigm,2021.1.4,59.98989645124489,
S,left,Pretarget,0,28,28,28,2203.759388667182,2205.7592943514464,left,1,4,0.45002115686656907,H02N01,2021_Oct_20_1009,t1_Paradigm,2021.1.4,59.98989645124489,
W,left,Distractor,0,29,29,29,2207.2591376397177,2209.2617300394922,left,1,4,1.1072440586867742,H02N01,2021_Oct_20_1009,t1_Paradigm,2021.1.4,59.98989645124489,
Q,left,Distractor,0,30,30,30,2210.759532386379,2212.7600418197108,left,1,4,0.6650469381129369,H02N01,2021_Oct_20_1009,t1_Paradigm,2021.1.4,59.98989645124489,
L,right,Target,0,31,31,31,2214.259504957823,2216.2598296093056,left,0,4,0.6850588783272542,H02N01,2021_Oct_20_1009,t1_Paradigm,2021.1.4,59.98989645124489,
S,right,Target,0,32,32,32,2217.759542972839,2219.760060426255,right,1,4,0.5448508255649358,H02N01,2021_Oct_20_1009,t1_Paradigm,2021.1.4,59.98989645124489,
Z,left,Pretarget,0,33,33,33,2221.259420266142,2223.2601244262187,left,1,4,0.6769961654790677,H02N01,2021_Oct_20_1009,t1_Paradigm,2021.1.4,59.98989645124489,
F,left,Distractor,0,34,34,34,2224.7602240351844,2226.7599208774627,left,1,4,0.48898799531161785,H02N01,2021_Oct_20_1009,t1_Paradigm,2021.1.4,59.98989645124489,
V,left,Distractor,0,35,35,35,2228.259529980365,2230.2598693887703,left,1,4,0.5410746669513173,H02N01,2021_Oct_20_1009,t1_Paradigm,2021.1.4,59.98989645124489,
M,left,Distractor,0,36,36,36,2231.759457639593,2233.759772025398,left,1,4,0.5932476343587041,H02N01,2021_Oct_20_1009,t1_Paradigm,2021.1.4,59.98989645124489,
Z,right,Target,0,37,37,37,2235.259712516621,2237.2610079144943,left,0,4,0.5961380589869805,H02N01,2021_Oct_20_1009,t1_Paradigm,2021.1.4,59.98989645124489,
H,left,Pretarget,0,38,38,38,2238.759277669713,2240.759078130999,left,1,4,0.6342820406425744,H02N01,2021_Oct_20_1009,t1_Paradigm,2021.1.4,59.98989645124489,
L,left,Distractor,0,39,39,39,2242.260073418729,2244.2617098289775,left,1,4,0.3954450628370978,H02N01,2021_Oct_20_1009,t1_Paradigm,2021.1.4,59.98989645124489,
G,left,Distractor,0,40,40,40,2245.759414331347,2247.7617885858053,left,1,4,0.575389557692688,H02N01,2021_Oct_20_1009,t1_Paradigm,2021.1.4,59.98989645124489,
K,left,Distractor,0,41,41,41,2249.2596284665633,2251.261246591108,left,1,4,0.38761044008424506,H02N01,2021_Oct_20_1009,t1_Paradigm,2021.1.4,59.98989645124489,
H,right,Target,0,42,42,42,2252.759364286205,2254.75933348923,right,1,4,0.5536484955227934,H02N01,2021_Oct_20_1009,t1_Paradigm,2021.1.4,59.98989645124489,
B,left,Distractor,0,43,43,43,2256.2593843363575,2258.261774630926,left,1,4,0.36314929893705994,H02N01,2021_Oct_20_1009,t1_Paradigm,2021.1.4,59.98989645124489,
Z,left,Distractor,0,44,44,44,2259.7593482461525,2261.759323544393,left,1,4,0.5299733189167455,H02N01,2021_Oct_20_1009,t1_Paradigm,2021.1.4,59.98989645124489,
T,left,Pretarget,0,45,45,45,2263.2595485869097,2265.2596547722933,left,1,4,0.4533507592859678,H02N01,2021_Oct_20_1009,t1_Paradigm,2021.1.4,59.98989645124489,
H,right,Target,0,46,46,46,2266.7594229929964,2268.7595031934325,left,0,4,0.5534935482428409,H02N01,2021_Oct_20_1009,t1_Paradigm,2021.1.4,59.98989645124489,
F,left,Distractor,0,47,47,47,2270.259343273705,2272.259666962782,left,1,4,0.589205851778388,H02N01,2021_Oct_20_1009,t1_Paradigm,2021.1.4,59.98989645124489,
R,left,Distractor,0,48,48,48,2273.7592260206584,2275.7617202550173,right,0,4,0.6231992990942672,H02N01,2021_Oct_20_1009,t1_Paradigm,2021.1.4,59.98989645124489,
T,right,Target,0,49,49,49,2277.259468065633,2279.259447855118,left,0,4,0.5015384052530862,H02N01,2021_Oct_20_1009,t1_Paradigm,2021.1.4,59.98989645124489,
H,right,Target,0,50,50,50,2280.7594242761843,2282.7595952635747,left,0,4,0.5212718895054422,H02N01,2021_Oct_20_1009,t1_Paradigm,2021.1.4,59.98989645124489,
Y,left,Pretarget,0,51,51,51,2284.2594067924656,2286.2596608675667,left,1,4,0.8295688839862123,H02N01,2021_Oct_20_1009,t1_Paradigm,2021.1.4,59.98989645124489,
H,left,Distractor,0,52,52,52,2287.759466622025,2289.7596805968788,left,1,4,0.5455017324420623,H02N01,2021_Oct_20_1009,t1_Paradigm,2021.1.4,59.98989645124489,
S,left,Distractor,0,53,53,53,2291.2601196141914,2293.2616941096494,left,1,4,0.49926295777549967,H02N01,2021_Oct_20_1009,t1_Paradigm,2021.1.4,59.98989645124489,
Q,left,Distractor,0,54,54,54,2294.759439995454,2296.7598073135596,left,1,4,0.40923376800492406,H02N01,2021_Oct_20_1009,t1_Paradigm,2021.1.4,59.98989645124489,
Y,right,Target,0,55,55,55,2298.259329479246,2300.259636165807,right,1,4,0.6212000619852915,H02N01,2021_Oct_20_1009,t1_Paradigm,2021.1.4,59.98989645124489,
R,left,Distractor,0,56,56,56,2301.7593700606376,2303.7594823412946,left,1,4,1.3453486458747648,H02N01,2021_Oct_20_1009,t1_Paradigm,2021.1.4,59.98989645124489,
H,left,Pretarget,0,57,57,57,2305.259370862681,2307.259546982881,left,1,4,0.9337557010585442,H02N01,2021_Oct_20_1009,t1_Paradigm,2021.1.4,59.98989645124489,
J,left,Distractor,0,58,58,58,2308.760019684385,2310.7610946914065,left,1,4,0.42387131485156715,H02N01,2021_Oct_20_1009,t1_Paradigm,2021.1.4,59.98989645124489,
V,left,Distractor,0,59,59,59,2312.259986802237,2314.2592419003486,left,1,4,0.5576399121200666,H02N01,2021_Oct_20_1009,t1_Paradigm,2021.1.4,59.98989645124489,
Y,left,Lure,0,60,60,60,2315.759305900312,2317.759263233631,left,1,4,0.5137962439912371,H02N01,2021_Oct_20_1009,t1_Paradigm,2021.1.4,59.98989645124489,
H,right,Target,0,61,61,61,2319.2592633940512,2321.2596252585645,right,1,4,0.7892665474792011,H02N01,2021_Oct_20_1009,t1_Paradigm,2021.1.4,59.98989645124489,
L,left,Distractor,0,62,62,62,2322.75922441663,2324.7616448666085,left,1,4,0.4392624252359383,H02N01,2021_Oct_20_1009,t1_Paradigm,2021.1.4,59.98989645124489,
P,left,Distractor,0,63,63,63,2326.259488917771,2328.2605417894083,left,1,4,0.5084487979765981,H02N01,2021_Oct_20_1009,t1_Paradigm,2021.1.4,59.98989645124489,
