Letter,CorrAnswer,Stimulus,finaln_nback_run.thisRepN,finaln_nback_run.thisTrialN,finaln_nback_run.thisN,finaln_nback_run.thisIndex,finaln_fixcross.started,finaln_nback_trial.started,finaln_trial_resp.keys,finaln_trial_resp.corr,finaln_trial_resp.rt,finaln_level,finaln_money,Participant,date,expName,psychopyVersion,frameRate,
F,left,Distractor,0,0,0,0,2585.0582762226113,2587.042597673775,left,1,1.054089758428745,1,1.97,H02N01,2021_Oct_20_1009,t1_Paradigm,2021.1.4,59.98989645124489,
T,left,Pretarget,0,1,1,1,2588.542505763995,2590.542408561043,left,1,0.5465491505456157,1,1.97,H02N01,2021_Oct_20_1009,t1_Paradigm,2021.1.4,59.98989645124489,
B,left,Distractor,0,2,2,2,2592.0423564307275,2594.0424449720886,left,1,0.518372482387349,1,1.97,H02N01,2021_Oct_20_1009,t1_Paradigm,2021.1.4,59.98989645124489,
T,right,Target,0,3,3,3,2595.542367177608,2597.5423925209907,right,1,0.6503988048061728,1,1.97,H02N01,2021_Oct_20_1009,t1_Paradigm,2021.1.4,59.98989645124489,
Z,left,Distractor,0,4,4,4,2599.042451708927,2601.0424975835485,left,1,0.4623441183939576,1,1.97,H02N01,2021_Oct_20_1009,t1_Paradigm,2021.1.4,59.98989645124489,
T,right,Target,0,5,5,5,2602.5424313379917,2604.542386746558,right,1,0.6264419641811401,1,1.97,H02N01,2021_Oct_20_1009,t1_Paradigm,2021.1.4,59.98989645124489,
L,left,Distractor,0,6,6,6,2606.04245908733,2608.0449436976924,left,1,0.51589525048621,1,1.97,H02N01,2021_Oct_20_1009,t1_Paradigm,2021.1.4,59.98989645124489,
T,right,Target,0,7,7,7,2609.5428252826678,2611.542724230094,right,1,0.48994975921232253,1,1.97,H02N01,2021_Oct_20_1009,t1_Paradigm,2021.1.4,59.98989645124489,
Z,left,Lure,0,8,8,8,2613.0427429970005,2615.04287677136,left,1,0.509978381160181,1,1.97,H02N01,2021_Oct_20_1009,t1_Paradigm,2021.1.4,59.98989645124489,
J,left,Distractor,0,9,9,9,2616.5425099344575,2618.542847097211,left,1,0.4662546929321252,1,1.97,H02N01,2021_Oct_20_1009,t1_Paradigm,2021.1.4,59.98989645124489,
D,left,Pretarget,0,10,10,10,2620.0425822752877,2622.0428645808715,left,1,0.4699743903474882,1,1.97,H02N01,2021_Oct_20_1009,t1_Paradigm,2021.1.4,59.98989645124489,
H,left,Distractor,0,11,11,11,2623.5425256537274,2625.5449364796514,left,1,0.471816755423788,1,1.97,H02N01,2021_Oct_20_1009,t1_Paradigm,2021.1.4,59.98989645124489,
D,right,Target,0,12,12,12,2627.0425331925508,2629.044215477479,right,1,0.5884869348374195,1,1.97,H02N01,2021_Oct_20_1009,t1_Paradigm,2021.1.4,59.98989645124489,
S,left,Distractor,0,13,13,13,2630.5425532427034,2632.542806996964,left,1,0.4180202098796144,1,1.97,H02N01,2021_Oct_20_1009,t1_Paradigm,2021.1.4,59.98989645124489,
R,left,Pretarget,0,14,14,14,2634.042512982036,2636.0428055533557,left,1,0.5018816632218659,1,1.97,H02N01,2021_Oct_20_1009,t1_Paradigm,2021.1.4,59.98989645124489,
Z,left,Distractor,0,15,15,15,2637.5424810622935,2639.543169503042,left,1,0.7297279696213081,1,1.97,H02N01,2021_Oct_20_1009,t1_Paradigm,2021.1.4,59.98989645124489,
R,right,Target,0,16,16,16,2641.042373112461,2643.044244991266,right,1,0.5245540132164024,1,1.97,H02N01,2021_Oct_20_1009,t1_Paradigm,2021.1.4,59.98989645124489,
T,left,Distractor,0,17,17,17,2644.542610024626,2646.543606755964,left,1,0.4655736305867322,1,1.97,H02N01,2021_Oct_20_1009,t1_Paradigm,2021.1.4,59.98989645124489,
M,left,Distractor,0,18,18,18,2648.0426076186122,2650.044866705255,left,1,0.4839183636358939,1,1.97,H02N01,2021_Oct_20_1009,t1_Paradigm,2021.1.4,59.98989645124489,
R,left,Lure,0,19,19,19,2651.542759839096,2653.5435381043935,left,1,0.5371400322765112,1,1.97,H02N01,2021_Oct_20_1009,t1_Paradigm,2021.1.4,59.98989645124489,
J,left,Distractor,0,20,20,20,2655.0424067966524,2657.0424215535168,left,1,0.8464956728857942,1,1.97,H02N01,2021_Oct_20_1009,t1_Paradigm,2021.1.4,59.98989645124489,
K,left,Distractor,0,21,21,21,2658.543268630805,2660.5556618479313,left,1,0.7890057355980389,1,1.97,H02N01,2021_Oct_20_1009,t1_Paradigm,2021.1.4,59.98989645124489,
Z,left,Distractor,0,22,22,22,2662.0424818642787,2664.0425684807706,left,1,0.534302539890632,1,1.97,H02N01,2021_Oct_20_1009,t1_Paradigm,2021.1.4,59.98989645124489,
W,left,Pretarget,0,23,23,23,2665.5424265259644,2667.5427293629036,left,1,0.42608324356842786,1,1.97,H02N01,2021_Oct_20_1009,t1_Paradigm,2021.1.4,59.98989645124489,
Q,left,Distractor,0,24,24,24,2669.042383057298,2671.0424468968995,left,1,0.44648239167872816,1,1.97,H02N01,2021_Oct_20_1009,t1_Paradigm,2021.1.4,59.98989645124489,
W,right,Target,0,25,25,25,2672.54240278661,2674.5424165811273,right,1,0.4665928180911578,1,1.97,H02N01,2021_Oct_20_1009,t1_Paradigm,2021.1.4,59.98989645124489,
D,left,Pretarget,0,26,26,26,2676.0427962500835,2678.0428026661393,left,1,0.46999556332593784,1,1.97,H02N01,2021_Oct_20_1009,t1_Paradigm,2021.1.4,59.98989645124489,
W,right,Target,0,27,27,27,2679.54255612992,2681.542874044564,right,1,0.6819836717913859,1,1.97,H02N01,2021_Oct_20_1009,t1_Paradigm,2021.1.4,59.98989645124489,
D,right,Target,0,28,28,28,2683.0424375936273,2685.0429579342017,right,1,0.46186708606546745,1,1.97,H02N01,2021_Oct_20_1009,t1_Paradigm,2021.1.4,59.98989645124489,
L,left,Pretarget,0,29,29,29,2686.5424627765897,2688.54313389404,left,1,0.5457740932470188,1,1.97,H02N01,2021_Oct_20_1009,t1_Paradigm,2021.1.4,59.98989645124489,
P,left,Distractor,0,30,30,30,2690.042555007094,2692.0446902642143,left,1,0.5321204457432032,1,1.97,H02N01,2021_Oct_20_1009,t1_Paradigm,2021.1.4,59.98989645124489,
L,right,Target,0,31,31,31,2693.542363327986,2695.5426860546577,right,1,0.44205436372430995,1,1.97,H02N01,2021_Oct_20_1009,t1_Paradigm,2021.1.4,59.98989645124489,
R,left,Distractor,0,32,32,32,2697.0423715084326,2699.0427215032396,left,1,0.4943126643775031,1,1.97,H02N01,2021_Oct_20_1009,t1_Paradigm,2021.1.4,59.98989645124489,
V,left,Distractor,0,33,33,33,2700.5423492126865,2702.5426295935176,left,1,0.562300521414727,1,1.97,H02N01,2021_Oct_20_1009,t1_Paradigm,2021.1.4,59.98989645124489,
L,left,Lure,0,34,34,34,2704.0423715084326,2706.042609543423,right,0,0.5982822985388339,1,1.97,H02N01,2021_Oct_20_1009,t1_Paradigm,2021.1.4,59.98989645124489,
H,left,Distractor,0,35,35,35,2707.5421580148395,2709.5442486804677,None,0,,1,1.97,H02N01,2021_Oct_20_1009,t1_Paradigm,2021.1.4,59.98989645124489,
K,left,Pretarget,0,36,36,36,2711.0423320498085,2713.0424501048983,left,1,1.0703537706867792,1,1.97,H02N01,2021_Oct_20_1009,t1_Paradigm,2021.1.4,59.98989645124489,
F,left,Distractor,0,37,37,37,2714.5426279895473,2716.544663156441,left,1,0.7520724601345137,1,1.97,H02N01,2021_Oct_20_1009,t1_Paradigm,2021.1.4,59.98989645124489,
K,right,Target,0,38,38,38,2718.0427397889434,2720.043289643363,right,1,0.6296355466474779,1,1.97,H02N01,2021_Oct_20_1009,t1_Paradigm,2021.1.4,59.98989645124489,
S,left,Pretarget,0,39,39,39,2721.542594946921,2723.544906645082,left,1,0.5037743942230009,1,1.97,H02N01,2021_Oct_20_1009,t1_Paradigm,2021.1.4,59.98989645124489,
W,left,Distractor,0,40,40,40,2725.0432543551433,2727.0448538731434,left,1,0.5239380737184547,1,1.97,H02N01,2021_Oct_20_1009,t1_Paradigm,2021.1.4,59.98989645124489,
S,right,Target,0,41,41,41,2728.542634405545,2730.543031558278,right,1,0.577650569146499,1,1.97,H02N01,2021_Oct_20_1009,t1_Paradigm,2021.1.4,59.98989645124489,
F,left,Pretarget,0,42,42,42,2732.042442726437,2734.0428658641176,left,1,0.5498646376654506,1,1.97,H02N01,2021_Oct_20_1009,t1_Paradigm,2021.1.4,59.98989645124489,
Y,left,Distractor,0,43,43,43,2735.5423838593415,2737.5431178539293,left,1,0.6495233365567401,1,1.97,H02N01,2021_Oct_20_1009,t1_Paradigm,2021.1.4,59.98989645124489,
F,right,Target,0,44,44,44,2739.042444009683,2741.042815498193,left,0,0.557911952084396,1,1.97,H02N01,2021_Oct_20_1009,t1_Paradigm,2021.1.4,59.98989645124489,
F,left,Lure,0,45,45,45,2742.5427207012544,2744.542519558512,left,1,0.6422398513532244,1,1.97,H02N01,2021_Oct_20_1009,t1_Paradigm,2021.1.4,59.98989645124489,
B,left,Pretarget,0,46,46,46,2746.0424343856284,2748.042757753865,left,1,0.5499791639158502,1,1.97,H02N01,2021_Oct_20_1009,t1_Paradigm,2021.1.4,59.98989645124489,
W,left,Distractor,0,47,47,47,2749.5424515485065,2751.5427537438227,left,1,0.6019923719577491,1,1.97,H02N01,2021_Oct_20_1009,t1_Paradigm,2021.1.4,59.98989645124489,
B,right,Target,0,48,48,48,2753.042517473281,2755.042909493146,right,1,0.7662929645739496,1,1.97,H02N01,2021_Oct_20_1009,t1_Paradigm,2021.1.4,59.98989645124489,
R,left,Pretarget,0,49,49,49,2756.542417222692,2758.5448264445877,left,1,0.496083811391145,1,1.97,H02N01,2021_Oct_20_1009,t1_Paradigm,2021.1.4,59.98989645124489,
N,left,Distractor,0,50,50,50,2760.042480901873,2762.042922004417,left,1,0.45373155106790364,1,1.97,H02N01,2021_Oct_20_1009,t1_Paradigm,2021.1.4,59.98989645124489,
R,right,Target,0,51,51,51,2763.5424849119154,2765.542910936754,right,1,0.6337783817434683,1,1.97,H02N01,2021_Oct_20_1009,t1_Paradigm,2021.1.4,59.98989645124489,
V,left,Distractor,0,52,52,52,2767.042432139977,2769.042920079606,left,1,0.5257643986260518,1,1.97,H02N01,2021_Oct_20_1009,t1_Paradigm,2021.1.4,59.98989645124489,
G,left,Distractor,0,53,53,53,2770.5423976538004,2772.5427425157977,left,1,0.498165815428365,1,1.97,H02N01,2021_Oct_20_1009,t1_Paradigm,2021.1.4,59.98989645124489,
H,left,Distractor,0,54,54,54,2774.042407117435,2776.044594665291,left,1,0.48415736097376794,1,1.97,H02N01,2021_Oct_20_1009,t1_Paradigm,2021.1.4,59.98989645124489,
V,left,Lure,0,55,55,55,2777.5424691925873,2779.5426424256293,left,1,0.5539599941112101,1,1.97,H02N01,2021_Oct_20_1009,t1_Paradigm,2021.1.4,59.98989645124489,
L,left,Distractor,0,56,56,56,2781.0423137641046,2783.0426082602353,left,1,0.5420463757473044,1,1.97,H02N01,2021_Oct_20_1009,t1_Paradigm,2021.1.4,59.98989645124489,
K,left,Distractor,0,57,57,57,2784.5423745560693,2786.54264948325,left,1,0.54624823841732,1,1.97,H02N01,2021_Oct_20_1009,t1_Paradigm,2021.1.4,59.98989645124489,
D,left,Pretarget,0,58,58,58,2788.042326596158,2790.0424029470305,left,1,0.4062015488743782,1,1.97,H02N01,2021_Oct_20_1009,t1_Paradigm,2021.1.4,59.98989645124489,
T,left,Pretarget,0,59,59,59,2791.5430674880627,2793.543853452604,left,1,0.5527226613485254,1,1.97,H02N01,2021_Oct_20_1009,t1_Paradigm,2021.1.4,59.98989645124489,
D,right,Target,0,60,60,60,2795.0424783354392,2797.0422736638575,right,1,0.5263755261548795,1,1.97,H02N01,2021_Oct_20_1009,t1_Paradigm,2021.1.4,59.98989645124489,
T,right,Target,0,61,61,61,2798.5423168117413,2800.5426315183286,right,1,0.7861239725607447,1,1.97,H02N01,2021_Oct_20_1009,t1_Paradigm,2021.1.4,59.98989645124489,
T,left,Lure,0,62,62,62,2802.04244336806,2804.0423654132173,left,1,0.7263900263933465,1,1.97,H02N01,2021_Oct_20_1009,t1_Paradigm,2021.1.4,59.98989645124489,
F,left,Distractor,0,63,63,63,2805.5423707064474,2807.5423912377446,left,1,0.6825078620458953,1,1.97,H02N01,2021_Oct_20_1009,t1_Paradigm,2021.1.4,59.98989645124489,
