Letter,CorrAnswer,Stimulus,nback_run.thisRepN,nback_run.thisTrialN,nback_run.thisN,nback_run.thisIndex,fixcross.started,nback_trial.started,trial_resp.keys,trial_resp.corr,currentlevel,trial_resp.rt,Participant,date,expName,psychopyVersion,frameRate,
H,left,Distractor,0,0,0,0,228.85028777550906,230.8319642036222,None,0,1,,H21R03,2021_Oct_13_1140,t1_Paradigm,2021.1.4,60.03422338814743,
Q,left,Pretarget,0,1,1,1,232.33379614376463,234.33078188763466,left,1,1,0.6127954466501251,H21R03,2021_Oct_13_1140,t1_Paradigm,2021.1.4,60.03422338814743,
Q,right,Target,0,2,2,2,235.8305831507314,237.83037815825082,right,1,1,0.6010929084150121,H21R03,2021_Oct_13_1140,t1_Paradigm,2021.1.4,60.03422338814743,
T,left,Distractor,0,3,3,3,239.33060993778054,241.33297489047982,left,1,1,0.6504800643306226,H21R03,2021_Oct_13_1140,t1_Paradigm,2021.1.4,60.03422338814743,
Q,left,Lure,0,4,4,4,242.8305991909001,244.83200462465174,left,1,1,0.5433835056610405,H21R03,2021_Oct_13_1140,t1_Paradigm,2021.1.4,60.03422338814743,
L,left,Distractor,0,5,5,5,246.3306814766256,248.33055315574165,left,1,1,0.5970575393876061,H21R03,2021_Oct_13_1140,t1_Paradigm,2021.1.4,60.03422338814743,
V,left,Pretarget,0,6,6,6,249.83069190266542,251.83268536662217,left,1,1,0.5507815219461918,H21R03,2021_Oct_13_1140,t1_Paradigm,2021.1.4,60.03422338814743,
V,right,Target,0,7,7,7,253.330610900186,255.330666719703,right,1,1,0.33326649956870824,H21R03,2021_Oct_13_1140,t1_Paradigm,2021.1.4,60.03422338814743,
K,left,Distractor,0,8,8,8,256.8306537272874,258.83136269974057,left,1,1,0.49625190917868167,H21R03,2021_Oct_13_1140,t1_Paradigm,2021.1.4,60.03422338814743,
G,left,Pretarget,0,9,9,9,260.3305069602793,262.3316506196279,left,1,1,0.5321762858657166,H21R03,2021_Oct_13_1140,t1_Paradigm,2021.1.4,60.03422338814743,
G,right,Target,0,10,10,10,263.83039772720076,265.83042242890224,right,1,1,0.5370364369591698,H21R03,2021_Oct_13_1140,t1_Paradigm,2021.1.4,60.03422338814743,
G,right,Target,0,11,11,11,267.33045948157087,269.33062918588985,right,1,1,0.38098612625617534,H21R03,2021_Oct_13_1140,t1_Paradigm,2021.1.4,60.03422338814743,
P,left,Pretarget,0,12,12,12,270.83078589767683,272.8324835821986,left,1,1,0.3989305100403726,H21R03,2021_Oct_13_1140,t1_Paradigm,2021.1.4,60.03422338814743,
P,right,Target,0,13,13,13,274.3305547598284,276.33092849422246,right,1,1,0.4366125612286851,H21R03,2021_Oct_13_1140,t1_Paradigm,2021.1.4,60.03422338814743,
G,left,Lure,0,14,14,14,277.83138002303895,279.8317313013831,left,1,1,0.7276153147686273,H21R03,2021_Oct_13_1140,t1_Paradigm,2021.1.4,60.03422338814743,
Y,left,Distractor,0,15,15,15,281.3307385793887,283.3326508804457,left,1,1,0.6667148938868195,H21R03,2021_Oct_13_1140,t1_Paradigm,2021.1.4,60.03422338814743,
B,left,Distractor,0,16,16,16,284.83054144645575,286.8325345896883,left,1,1,0.41487116424832493,H21R03,2021_Oct_13_1140,t1_Paradigm,2021.1.4,60.03422338814743,
T,left,Pretarget,0,17,17,17,288.3306619076757,290.33126276987605,left,1,1,0.5482147847069427,H21R03,2021_Oct_13_1140,t1_Paradigm,2021.1.4,60.03422338814743,
T,right,Target,0,18,18,18,291.8314396922942,293.83091646409594,right,1,1,0.4085510428994894,H21R03,2021_Oct_13_1140,t1_Paradigm,2021.1.4,60.03422338814743,
S,left,Distractor,0,19,19,19,295.33130543655716,297.33175070991274,left,1,1,0.3958087853388861,H21R03,2021_Oct_13_1140,t1_Paradigm,2021.1.4,60.03422338814743,
T,left,Lure,0,20,20,20,298.830524443998,300.8304089552257,left,1,1,0.8971880737226456,H21R03,2021_Oct_13_1140,t1_Paradigm,2021.1.4,60.03422338814743,
J,left,Distractor,0,21,21,21,302.3306227697758,304.33253956213593,left,1,1,0.6110903837252408,H21R03,2021_Oct_13_1140,t1_Paradigm,2021.1.4,60.03422338814743,
P,left,Distractor,0,22,22,22,305.8306376871187,307.8311692561256,left,1,1,0.4562947298400104,H21R03,2021_Oct_13_1140,t1_Paradigm,2021.1.4,60.03422338814743,
F,left,Distractor,0,23,23,23,309.33118353178725,311.3323454768397,left,1,1,0.4112980709178373,H21R03,2021_Oct_13_1140,t1_Paradigm,2021.1.4,60.03422338814743,
L,left,Distractor,0,24,24,24,312.8312735167565,314.8306723337155,left,1,1,0.43317869608290493,H21R03,2021_Oct_13_1140,t1_Paradigm,2021.1.4,60.03422338814743,
W,left,Pretarget,0,25,25,25,316.3304581983248,318.3322842037305,left,1,1,0.43512917251791805,H21R03,2021_Oct_13_1140,t1_Paradigm,2021.1.4,60.03422338814743,
W,right,Target,0,26,26,26,319.8305170655949,321.8305154615082,right,1,1,0.6489796730456874,H21R03,2021_Oct_13_1140,t1_Paradigm,2021.1.4,60.03422338814743,
V,left,Distractor,0,27,27,27,323.3304864289239,325.3434878947446,left,1,1,0.5599442701786757,H21R03,2021_Oct_13_1140,t1_Paradigm,2021.1.4,60.03422338814743,
W,left,Lure,0,28,28,28,326.8306091357954,328.8306485944195,left,1,1,0.7687568952096626,H21R03,2021_Oct_13_1140,t1_Paradigm,2021.1.4,60.03422338814743,
R,left,Pretarget,0,29,29,29,330.33059838891495,332.33157940150704,left,1,1,0.4838888394879177,H21R03,2021_Oct_13_1140,t1_Paradigm,2021.1.4,60.03422338814743,
R,right,Target,0,30,30,30,333.8305343888933,335.83060753170867,right,1,1,0.5047759405570105,H21R03,2021_Oct_13_1140,t1_Paradigm,2021.1.4,60.03422338814743,
G,left,Distractor,0,31,31,31,337.330657416489,339.3301005040994,left,1,1,0.5093284426257014,H21R03,2021_Oct_13_1140,t1_Paradigm,2021.1.4,60.03422338814743,
R,left,Lure,0,32,32,32,340.83032105548773,342.830331000383,left,1,1,0.481306382920593,H21R03,2021_Oct_13_1140,t1_Paradigm,2021.1.4,60.03422338814743,
S,left,Distractor,0,33,33,33,344.33062469458673,346.33141065970995,left,1,1,0.5962545718066394,H21R03,2021_Oct_13_1140,t1_Paradigm,2021.1.4,60.03422338814743,
R,left,Lure,0,34,34,34,347.8306582184741,349.83051032875665,left,1,1,0.8568918067030609,H21R03,2021_Oct_13_1140,t1_Paradigm,2021.1.4,60.03422338814743,
P,left,Pretarget,0,35,35,35,351.33052781247534,353.33065581240226,left,1,1,0.5727163625415415,H21R03,2021_Oct_13_1140,t1_Paradigm,2021.1.4,60.03422338814743,
P,right,Target,0,36,36,36,354.83044135628734,356.83040029357653,right,1,1,0.6250093433773145,H21R03,2021_Oct_13_1140,t1_Paradigm,2021.1.4,60.03422338814743,
Y,left,Pretarget,0,37,37,37,358.33074627863243,360.33081845904235,left,1,1,0.48466229322366416,H21R03,2021_Oct_13_1140,t1_Paradigm,2021.1.4,60.03422338814743,
Y,right,Target,0,38,38,38,361.8305671106791,363.83104895532597,right,1,1,0.5205096774734557,H21R03,2021_Oct_13_1140,t1_Paradigm,2021.1.4,60.03422338814743,
J,left,Distractor,0,39,39,39,365.33071997284424,367.3301126945298,left,1,1,0.5093152896733955,H21R03,2021_Oct_13_1140,t1_Paradigm,2021.1.4,60.03422338814743,
Y,left,Lure,0,40,40,40,368.83058860444,370.83028448408004,left,1,1,0.7852127575315535,H21R03,2021_Oct_13_1140,t1_Paradigm,2021.1.4,60.03422338814743,
T,left,Distractor,0,41,41,41,372.3305948600173,374.3309169453569,left,1,1,0.5487761881668121,H21R03,2021_Oct_13_1140,t1_Paradigm,2021.1.4,60.03422338814743,
V,left,Distractor,0,42,42,42,375.83115129126236,377.8302283437224,left,1,1,0.4411948978668079,H21R03,2021_Oct_13_1140,t1_Paradigm,2021.1.4,60.03422338814743,
N,left,Pretarget,0,43,43,43,379.3305592510151,381.3324012964731,left,1,1,0.506980492384173,H21R03,2021_Oct_13_1140,t1_Paradigm,2021.1.4,60.03422338814743,
N,right,Target,0,44,44,44,382.83053567202296,384.83042692020535,right,1,1,0.6090430250624195,H21R03,2021_Oct_13_1140,t1_Paradigm,2021.1.4,60.03422338814743,
N,right,Target,0,45,45,45,386.3304498575162,388.3305582886096,right,1,1,0.4528961528558284,H21R03,2021_Oct_13_1140,t1_Paradigm,2021.1.4,60.03422338814743,
X,left,Distractor,0,46,46,46,389.83060881495476,391.83149615337607,left,1,1,0.4719232436036691,H21R03,2021_Oct_13_1140,t1_Paradigm,2021.1.4,60.03422338814743,
Z,left,Distractor,0,47,47,47,393.33062501542736,395.33039307559375,left,1,1,0.5250705202342942,H21R03,2021_Oct_13_1140,t1_Paradigm,2021.1.4,60.03422338814743,
H,left,Pretarget,0,48,48,48,396.8307236620458,398.830404464039,left,1,1,0.529016706510447,H21R03,2021_Oct_13_1140,t1_Paradigm,2021.1.4,60.03422338814743,
H,right,Target,0,49,49,49,400.3306269402383,402.3306609452702,right,1,1,0.4847585338866338,H21R03,2021_Oct_13_1140,t1_Paradigm,2021.1.4,60.03422338814743,
K,left,Distractor,0,50,50,50,403.8307133964263,405.83034447405953,left,1,1,0.4250684992875904,H21R03,2021_Oct_13_1140,t1_Paradigm,2021.1.4,60.03422338814743,
V,left,Pretarget,0,51,51,51,407.3311610757373,409.33035490009934,left,1,1,0.49314462044276297,H21R03,2021_Oct_13_1140,t1_Paradigm,2021.1.4,60.03422338814743,
V,right,Target,0,52,52,52,410.8306184390094,412.83068484498654,right,1,1,0.5447523681214079,H21R03,2021_Oct_13_1140,t1_Paradigm,2021.1.4,60.03422338814743,
R,left,Distractor,0,53,53,53,414.33074980741367,416.33274230896495,left,1,1,0.49866979429498315,H21R03,2021_Oct_13_1140,t1_Paradigm,2021.1.4,60.03422338814743,
V,left,Lure,0,54,54,54,417.8304557923693,419.83056165708695,left,1,1,0.4728680056286976,H21R03,2021_Oct_13_1140,t1_Paradigm,2021.1.4,60.03422338814743,
Y,left,Distractor,0,55,55,55,421.330505356309,423.3307372961426,left,1,1,0.4768533295718953,H21R03,2021_Oct_13_1140,t1_Paradigm,2021.1.4,60.03422338814743,
Q,left,Distractor,0,56,56,56,424.8312440030277,426.830433336203,left,1,1,0.5134212352568284,H21R03,2021_Oct_13_1140,t1_Paradigm,2021.1.4,60.03422338814743,
Z,left,Pretarget,0,57,57,57,428.3306680029491,430.33025705546606,left,1,1,0.469309990061447,H21R03,2021_Oct_13_1140,t1_Paradigm,2021.1.4,60.03422338814743,
Z,right,Target,0,58,58,58,431.8307589503238,433.8306562936632,right,1,1,0.6491567557677627,H21R03,2021_Oct_13_1140,t1_Paradigm,2021.1.4,60.03422338814743,
B,left,Distractor,0,59,59,59,435.33069206308573,437.33238557714503,left,1,1,0.4910529910121113,H21R03,2021_Oct_13_1140,t1_Paradigm,2021.1.4,60.03422338814743,
S,left,Pretarget,0,60,60,60,438.83121128124185,440.8302783888066,left,1,1,0.44934615737292916,H21R03,2021_Oct_13_1140,t1_Paradigm,2021.1.4,60.03422338814743,
S,right,Target,0,61,61,61,442.33058234874625,444.33050439390354,right,1,1,0.5009436391992494,H21R03,2021_Oct_13_1140,t1_Paradigm,2021.1.4,60.03422338814743,
T,left,Distractor,0,62,62,62,445.83072879491374,447.830401255982,left,1,1,0.4570604843320325,H21R03,2021_Oct_13_1140,t1_Paradigm,2021.1.4,60.03422338814743,
D,left,Distractor,0,63,63,63,449.330657416489,451.33274647942744,left,1,1,0.49074598343577236,H21R03,2021_Oct_13_1140,t1_Paradigm,2021.1.4,60.03422338814743,
R,left,Distractor,0,0,0,0,474.16083250695374,476.1470412266208,left,1,1,1.2764765155734494,H21R03,2021_Oct_13_1140,t1_Paradigm,2021.1.4,60.03422338814743,
V,left,Distractor,0,1,1,1,477.64707860001363,479.64788541721646,left,1,1,0.6396558820270002,H21R03,2021_Oct_13_1140,t1_Paradigm,2021.1.4,60.03422338814743,
N,left,Pretarget,0,2,2,2,481.14728246978484,483.1470222992357,left,1,1,0.612552278675139,H21R03,2021_Oct_13_1140,t1_Paradigm,2021.1.4,60.03422338814743,
N,right,Target,0,3,3,3,484.64722969778813,486.6471648957813,right,1,1,0.552221923135221,H21R03,2021_Oct_13_1140,t1_Paradigm,2021.1.4,60.03422338814743,
S,left,Distractor,0,4,4,4,488.14747463015374,490.1471134070307,left,1,1,0.5563628361560404,H21R03,2021_Oct_13_1140,t1_Paradigm,2021.1.4,60.03422338814743,
N,left,Lure,0,5,5,5,491.6479575976264,493.6470632015262,left,1,1,0.8486292287707329,H21R03,2021_Oct_13_1140,t1_Paradigm,2021.1.4,60.03422338814743,
Z,left,Distractor,0,6,6,6,495.1471913619898,497.1476042341674,left,1,1,0.6441442235372961,H21R03,2021_Oct_13_1140,t1_Paradigm,2021.1.4,60.03422338814743,
L,left,Pretarget,0,7,7,7,498.6479935274692,500.6471093969885,left,1,1,0.472319113323465,H21R03,2021_Oct_13_1140,t1_Paradigm,2021.1.4,60.03422338814743,
L,right,Target,0,8,8,8,502.14725199353416,504.1472074020421,right,1,1,0.5082252043066546,H21R03,2021_Oct_13_1140,t1_Paradigm,2021.1.4,60.03422338814743,
H,left,Distractor,0,9,9,9,505.6473169559613,507.64752002363093,left,1,1,0.44814443285577,H21R03,2021_Oct_13_1140,t1_Paradigm,2021.1.4,60.03422338814743,
L,left,Lure,0,10,10,10,509.14811847987585,511.14707170275506,left,1,1,0.5806279828539118,H21R03,2021_Oct_13_1140,t1_Paradigm,2021.1.4,60.03422338814743,
X,left,Pretarget,0,11,11,11,512.6473612266127,514.6494326455286,left,1,1,0.4859612208092585,H21R03,2021_Oct_13_1140,t1_Paradigm,2021.1.4,60.03422338814743,
X,right,Target,0,12,12,12,516.1471281639533,518.1472138181562,right,1,1,0.44445103872567415,H21R03,2021_Oct_13_1140,t1_Paradigm,2021.1.4,60.03422338814743,
X,right,Target,0,13,13,13,519.6472207152983,521.6474173669703,right,1,1,0.576092804200016,H21R03,2021_Oct_13_1140,t1_Paradigm,2021.1.4,60.03422338814743,
R,left,Distractor,0,14,14,14,523.147126559983,525.1470267905388,left,1,1,0.5167976767988876,H21R03,2021_Oct_13_1140,t1_Paradigm,2021.1.4,60.03422338814743,
T,left,Distractor,0,15,15,15,526.6472255273256,528.647864885861,left,1,1,0.9356602603802457,H21R03,2021_Oct_13_1140,t1_Paradigm,2021.1.4,60.03422338814743,
V,left,Pretarget,0,16,16,16,530.1472529559396,532.1478246252518,left,1,1,0.45969426922965795,H21R03,2021_Oct_13_1140,t1_Paradigm,2021.1.4,60.03422338814743,
V,right,Target,0,17,17,17,533.6472428507404,535.6473038031254,right,1,1,0.49632280645892024,H21R03,2021_Oct_13_1140,t1_Paradigm,2021.1.4,60.03422338814743,
N,left,Distractor,0,18,18,18,537.1472651464865,539.1486378584523,left,1,1,0.4828208894468844,H21R03,2021_Oct_13_1140,t1_Paradigm,2021.1.4,60.03422338814743,
B,left,Distractor,0,19,19,19,540.647215903271,542.646945787943,left,1,1,0.34484937868546695,H21R03,2021_Oct_13_1140,t1_Paradigm,2021.1.4,60.03422338814743,
V,left,Lure,0,20,20,20,544.1473495173268,546.1485233320855,left,1,1,0.42691663990262896,H21R03,2021_Oct_13_1140,t1_Paradigm,2021.1.4,60.03422338814743,
P,left,Distractor,0,21,21,21,547.6473926652689,549.6482216177974,left,1,1,0.41583774087484926,H21R03,2021_Oct_13_1140,t1_Paradigm,2021.1.4,60.03422338814743,
K,left,Pretarget,0,22,22,22,551.147495803074,553.1480828708736,left,1,1,0.4833774809958413,H21R03,2021_Oct_13_1140,t1_Paradigm,2021.1.4,60.03422338814743,
K,right,Target,0,23,23,23,554.6474154421594,556.6474067805102,right,1,1,0.4560377673478797,H21R03,2021_Oct_13_1140,t1_Paradigm,2021.1.4,60.03422338814743,
J,left,Pretarget,0,24,24,24,558.164109179168,560.147014599992,left,1,1,0.4447278908919543,H21R03,2021_Oct_13_1140,t1_Paradigm,2021.1.4,60.03422338814743,
J,right,Target,0,25,25,25,561.6473756626947,563.647321447148,right,1,1,0.5761319420998916,H21R03,2021_Oct_13_1140,t1_Paradigm,2021.1.4,60.03422338814743,
H,left,Distractor,0,26,26,26,565.1474188106367,567.1489586605458,left,1,1,0.6427320529473945,H21R03,2021_Oct_13_1140,t1_Paradigm,2021.1.4,60.03422338814743,
J,left,Lure,0,27,27,27,568.6470888657495,570.6471100386698,left,1,1,0.4243290504673496,H21R03,2021_Oct_13_1140,t1_Paradigm,2021.1.4,60.03422338814743,
V,left,Distractor,0,28,28,28,572.1472375574522,574.1477890162496,left,1,1,0.4917064649052918,H21R03,2021_Oct_13_1140,t1_Paradigm,2021.1.4,60.03422338814743,
Z,left,Pretarget,0,29,29,29,575.647978770663,577.6472938582301,left,1,1,0.49636996432673186,H21R03,2021_Oct_13_1140,t1_Paradigm,2021.1.4,60.03422338814743,
Z,right,Target,0,30,30,30,579.1473177579464,581.1472151012858,right,1,1,0.4682317744009197,H21R03,2021_Oct_13_1140,t1_Paradigm,2021.1.4,60.03422338814743,
T,left,Distractor,0,31,31,31,582.6471411564853,584.6494047357701,left,1,1,0.4060295388335362,H21R03,2021_Oct_13_1140,t1_Paradigm,2021.1.4,60.03422338814743,
Z,left,Lure,0,32,32,32,586.1471753218211,588.1473973168759,left,1,1,0.5240397832822055,H21R03,2021_Oct_13_1140,t1_Paradigm,2021.1.4,60.03422338814743,
F,left,Distractor,0,33,33,33,589.647401326918,591.6481937080389,left,1,1,0.41578865819610655,H21R03,2021_Oct_13_1140,t1_Paradigm,2021.1.4,60.03422338814743,
Y,left,Pretarget,0,34,34,34,593.1473283444066,595.1482365350239,left,1,1,0.3872250847052783,H21R03,2021_Oct_13_1140,t1_Paradigm,2021.1.4,60.03422338814743,
Y,right,Target,0,35,35,35,596.647400043672,598.6473333168542,right,1,1,0.7120933072874323,H21R03,2021_Oct_13_1140,t1_Paradigm,2021.1.4,60.03422338814743,
Y,right,Target,0,36,36,36,600.1472773369169,602.1473543293541,right,1,1,0.4444016352063045,H21R03,2021_Oct_13_1140,t1_Paradigm,2021.1.4,60.03422338814743,
W,left,Distractor,0,37,37,37,603.6472248857608,605.6475841840729,left,1,1,0.4481216558488086,H21R03,2021_Oct_13_1140,t1_Paradigm,2021.1.4,60.03422338814743,
Q,left,Distractor,0,38,38,38,607.1472279333975,609.1470582290785,left,1,1,0.388404353056103,H21R03,2021_Oct_13_1140,t1_Paradigm,2021.1.4,60.03422338814743,
P,left,Pretarget,0,39,39,39,610.6472835926106,612.64776960772,left,1,1,0.43990687758196145,H21R03,2021_Oct_13_1140,t1_Paradigm,2021.1.4,60.03422338814743,
P,right,Target,0,40,40,40,614.147287923377,616.1472750912653,right,1,1,0.5242630615830421,H21R03,2021_Oct_13_1140,t1_Paradigm,2021.1.4,60.03422338814743,
J,left,Distractor,0,41,41,41,617.6474122342188,619.6479017781094,left,1,1,0.4316558486316353,H21R03,2021_Oct_13_1140,t1_Paradigm,2021.1.4,60.03422338814743,
P,left,Lure,0,42,42,42,621.147390259197,623.1476574873086,left,1,1,0.6118952761171386,H21R03,2021_Oct_13_1140,t1_Paradigm,2021.1.4,60.03422338814743,
L,left,Distractor,0,43,43,43,624.6472229609499,626.6470843744464,left,1,1,0.47244550939649343,H21R03,2021_Oct_13_1140,t1_Paradigm,2021.1.4,60.03422338814743,
Z,left,Distractor,0,44,44,44,628.1479908006731,630.1471397128189,left,1,1,0.5242983497446403,H21R03,2021_Oct_13_1140,t1_Paradigm,2021.1.4,60.03422338814743,
F,left,Pretarget,0,45,45,45,631.6472107705195,633.6470696176402,left,1,1,0.48052875872235745,H21R03,2021_Oct_13_1140,t1_Paradigm,2021.1.4,60.03422338814743,
F,right,Target,0,46,46,46,635.147135863197,637.1473049258348,right,1,1,0.4842221528524533,H21R03,2021_Oct_13_1140,t1_Paradigm,2021.1.4,60.03422338814743,
G,left,Pretarget,0,47,47,47,638.647113567451,640.6472008256242,left,1,1,0.6002575398888439,H21R03,2021_Oct_13_1140,t1_Paradigm,2021.1.4,60.03422338814743,
G,right,Target,0,48,48,48,642.1478005651152,644.1472510311287,left,0,1,0.42819311132188886,H21R03,2021_Oct_13_1140,t1_Paradigm,2021.1.4,60.03422338814743,
V,left,Distractor,0,49,49,49,645.6473493570229,647.6475681440206,left,1,1,0.7519536043982953,H21R03,2021_Oct_13_1140,t1_Paradigm,2021.1.4,60.03422338814743,
G,left,Lure,0,50,50,50,649.1473267404363,651.1477976778988,left,1,1,0.7556524521205574,H21R03,2021_Oct_13_1140,t1_Paradigm,2021.1.4,60.03422338814743,
Q,left,Pretarget,0,51,51,51,652.6475129660685,654.6476942191366,left,1,1,0.6799948158441111,H21R03,2021_Oct_13_1140,t1_Paradigm,2021.1.4,60.03422338814743,
Q,right,Target,0,52,52,52,656.1474095073063,658.1474005249329,right,1,1,0.5401527081849054,H21R03,2021_Oct_13_1140,t1_Paradigm,2021.1.4,60.03422338814743,
Y,left,Distractor,0,53,53,53,659.6477506803349,661.6471340988064,left,1,1,0.8167402212275192,H21R03,2021_Oct_13_1140,t1_Paradigm,2021.1.4,60.03422338814743,
V,left,Distractor,0,54,54,54,663.1472452566959,665.1470646451926,left,1,1,0.692376812803559,H21R03,2021_Oct_13_1140,t1_Paradigm,2021.1.4,60.03422338814743,
B,left,Distractor,0,55,55,55,666.6472495875787,668.6477724949364,left,1,1,0.4716922661755234,H21R03,2021_Oct_13_1140,t1_Paradigm,2021.1.4,60.03422338814743,
J,left,Pretarget,0,56,56,56,670.14731487073,672.1478133971104,left,1,1,0.47565160517115146,H21R03,2021_Oct_13_1140,t1_Paradigm,2021.1.4,60.03422338814743,
J,right,Target,0,57,57,57,673.6472980286926,675.6477125049569,right,1,1,0.6237912579672411,H21R03,2021_Oct_13_1140,t1_Paradigm,2021.1.4,60.03422338814743,
H,left,Distractor,0,58,58,58,677.1479558332358,679.1483042242471,left,1,1,0.4992279898142442,H21R03,2021_Oct_13_1140,t1_Paradigm,2021.1.4,60.03422338814743,
J,left,Lure,0,59,59,59,680.6471639333759,682.6477195625193,left,1,1,0.7598552798153833,H21R03,2021_Oct_13_1140,t1_Paradigm,2021.1.4,60.03422338814743,
D,left,Pretarget,0,60,60,60,684.1473398932721,686.148255462409,left,1,1,0.6512586508179083,H21R03,2021_Oct_13_1140,t1_Paradigm,2021.1.4,60.03422338814743,
D,right,Target,0,61,61,61,687.6473451865604,689.6473082943121,right,1,1,0.6402541778516024,H21R03,2021_Oct_13_1140,t1_Paradigm,2021.1.4,60.03422338814743,
R,left,Distractor,0,62,62,62,691.1472221589647,693.1475663795136,left,1,1,0.4839834760641679,H21R03,2021_Oct_13_1140,t1_Paradigm,2021.1.4,60.03422338814743,
F,left,Distractor,0,63,63,63,694.6472261690069,696.6475379886106,left,1,1,0.4239444088889286,H21R03,2021_Oct_13_1140,t1_Paradigm,2021.1.4,60.03422338814743,
F,left,Distractor,0,0,0,0,774.0993831938831,776.0806878124131,None,0,2,,H21R03,2021_Oct_13_1140,t1_Paradigm,2021.1.4,60.03422338814743,
N,left,Pretarget,0,1,1,1,777.5806587798288,779.5810373262502,None,0,2,,H21R03,2021_Oct_13_1140,t1_Paradigm,2021.1.4,60.03422338814743,
V,left,Distractor,0,2,2,2,781.0805489051854,783.0810904190876,left,1,2,0.5503946345997974,H21R03,2021_Oct_13_1140,t1_Paradigm,2021.1.4,60.03422338814743,
N,right,Target,0,3,3,3,784.5805660680635,786.5802462283755,right,1,2,0.47534684312995523,H21R03,2021_Oct_13_1140,t1_Paradigm,2021.1.4,60.03422338814743,
N,left,Lure,0,4,4,4,788.0807391407434,790.0803981281351,left,1,2,0.6230543756391853,H21R03,2021_Oct_13_1140,t1_Paradigm,2021.1.4,60.03422338814743,
X,left,Distractor,0,5,5,5,791.5804175366648,793.58133086015,left,1,2,0.6104285690234974,H21R03,2021_Oct_13_1140,t1_Paradigm,2021.1.4,60.03422338814743,
G,left,Pretarget,0,6,6,6,795.0805543587776,797.080410318682,left,1,2,0.43903589993715286,H21R03,2021_Oct_13_1140,t1_Paradigm,2021.1.4,60.03422338814743,
H,left,Pretarget,0,7,7,7,798.580533025437,800.5803970054258,left,1,2,0.5710353598697111,H21R03,2021_Oct_13_1140,t1_Paradigm,2021.1.4,60.03422338814743,
G,right,Target,0,8,8,8,802.0804452861194,804.0804398324108,right,1,2,0.5430848388932645,H21R03,2021_Oct_13_1140,t1_Paradigm,2021.1.4,60.03422338814743,
H,right,Target,0,9,9,9,805.5806180379586,807.580376794911,right,1,2,0.6752286596456543,H21R03,2021_Oct_13_1140,t1_Paradigm,2021.1.4,60.03422338814743,
T,left,Pretarget,0,10,10,10,809.0812075118301,811.0805142585887,left,1,2,0.45498232857789844,H21R03,2021_Oct_13_1140,t1_Paradigm,2021.1.4,60.03422338814743,
K,left,Distractor,0,11,11,11,812.5807322434848,814.5811335669132,left,1,2,0.5383552543353289,H21R03,2021_Oct_13_1140,t1_Paradigm,2021.1.4,60.03422338814743,
T,right,Target,0,12,12,12,816.0806156320032,818.0812306095613,right,1,2,0.7502392381429672,H21R03,2021_Oct_13_1140,t1_Paradigm,2021.1.4,60.03422338814743,
T,left,Lure,0,13,13,13,819.5806789903436,821.5806514014257,left,1,2,0.4989681402221322,H21R03,2021_Oct_13_1140,t1_Paradigm,2021.1.4,60.03422338814743,
J,left,Distractor,0,14,14,14,823.0806704891147,825.0975472436985,left,1,2,0.4379490226274356,H21R03,2021_Oct_13_1140,t1_Paradigm,2021.1.4,60.03422338814743,
Q,left,Pretarget,0,15,15,15,826.5806905392092,828.5810661985306,left,1,2,0.8584470549831167,H21R03,2021_Oct_13_1140,t1_Paradigm,2021.1.4,60.03422338814743,
M,left,Distractor,0,16,16,16,830.0806319928961,832.0814558125567,left,1,2,0.6220278090331703,H21R03,2021_Oct_13_1140,t1_Paradigm,2021.1.4,60.03422338814743,
Q,right,Target,0,17,17,17,833.5804342183983,835.5806305492297,right,1,2,0.5470239674905315,H21R03,2021_Oct_13_1140,t1_Paradigm,2021.1.4,60.03422338814743,
R,left,Distractor,0,18,18,18,837.0805091257207,839.0804606846068,left,1,2,0.6152585648233071,H21R03,2021_Oct_13_1140,t1_Paradigm,2021.1.4,60.03422338814743,
W,left,Distractor,0,19,19,19,840.58047720592,842.5823603139725,left,1,2,0.4731541611254215,H21R03,2021_Oct_13_1140,t1_Paradigm,2021.1.4,60.03422338814743,
C,left,Pretarget,0,20,20,20,844.0812915619463,846.0823162037414,left,1,2,0.5572232272243127,H21R03,2021_Oct_13_1140,t1_Paradigm,2021.1.4,60.03422338814743,
T,left,Distractor,0,21,21,21,847.5806132259313,849.580679952749,left,1,2,0.48311057372484356,H21R03,2021_Oct_13_1140,t1_Paradigm,2021.1.4,60.03422338814743,
C,right,Target,0,22,22,22,851.0804597222013,853.0807866194518,right,1,2,0.6149342339485884,H21R03,2021_Oct_13_1140,t1_Paradigm,2021.1.4,60.03422338814743,
F,left,Pretarget,0,23,23,23,854.5806854064576,856.5808432410704,left,1,2,0.4746372289955616,H21R03,2021_Oct_13_1140,t1_Paradigm,2021.1.4,60.03422338814743,
C,right,Target,0,24,24,24,858.0803076620214,860.0803766344907,right,1,2,0.639119180268608,H21R03,2021_Oct_13_1140,t1_Paradigm,2021.1.4,60.03422338814743,
F,right,Target,0,25,25,25,861.5806687247241,863.5809237624053,right,1,2,0.6745459929807112,H21R03,2021_Oct_13_1140,t1_Paradigm,2021.1.4,60.03422338814743,
H,left,Distractor,0,26,26,26,865.0806313513312,867.0809566446114,left,1,2,0.4225062532350421,H21R03,2021_Oct_13_1140,t1_Paradigm,2021.1.4,60.03422338814743,
H,left,Lure,0,27,27,27,868.5805776169291,870.5807008049451,left,1,2,0.506902216700837,H21R03,2021_Oct_13_1140,t1_Paradigm,2021.1.4,60.03422338814743,
P,left,Distractor,0,28,28,28,872.0806457874132,874.0827454368118,left,1,2,0.540843715891242,H21R03,2021_Oct_13_1140,t1_Paradigm,2021.1.4,60.03422338814743,
G,left,Pretarget,0,29,29,29,875.5812897975557,877.5808249553666,left,1,2,1.2028283833060414,H21R03,2021_Oct_13_1140,t1_Paradigm,2021.1.4,60.03422338814743,
K,left,Distractor,0,30,30,30,879.080822228454,881.082301767543,right,0,2,0.5013257145183161,H21R03,2021_Oct_13_1140,t1_Paradigm,2021.1.4,60.03422338814743,
G,right,Target,0,31,31,31,882.5807049754076,884.5823163640453,left,0,2,0.8891660975059494,H21R03,2021_Oct_13_1140,t1_Paradigm,2021.1.4,60.03422338814743,
M,left,Pretarget,0,32,32,32,886.0806159528438,888.0805354315089,left,1,2,0.9589662089711055,H21R03,2021_Oct_13_1140,t1_Paradigm,2021.1.4,60.03422338814743,
B,left,Distractor,0,33,33,33,889.5806093763094,891.5813510706648,left,1,2,0.7382389955455437,H21R03,2021_Oct_13_1140,t1_Paradigm,2021.1.4,60.03422338814743,
M,right,Target,0,34,34,34,893.0812922035111,895.0822549305158,right,1,2,0.5814229303505272,H21R03,2021_Oct_13_1140,t1_Paradigm,2021.1.4,60.03422338814743,
M,left,Lure,0,35,35,35,896.5806847647764,898.5806626294507,left,1,2,0.698978919070214,H21R03,2021_Oct_13_1140,t1_Paradigm,2021.1.4,60.03422338814743,
T,left,Distractor,0,36,36,36,900.0807609553449,902.0823871009052,left,1,2,0.9411523914895952,H21R03,2021_Oct_13_1140,t1_Paradigm,2021.1.4,60.03422338814743,
F,left,Distractor,0,37,37,37,903.5812413564418,905.580354017904,left,1,2,0.6431831006193534,H21R03,2021_Oct_13_1140,t1_Paradigm,2021.1.4,60.03422338814743,
X,left,Distractor,0,38,38,38,907.0807160430122,909.0803448749939,left,1,2,0.5992951337248087,H21R03,2021_Oct_13_1140,t1_Paradigm,2021.1.4,60.03422338814743,
C,left,Distractor,0,39,39,39,910.580646910239,912.5810491959564,left,1,2,0.5705531942658126,H21R03,2021_Oct_13_1140,t1_Paradigm,2021.1.4,60.03422338814743,
R,left,Distractor,0,40,40,40,914.0807340079919,916.0812091158004,left,1,2,0.8465186721878126,H21R03,2021_Oct_13_1140,t1_Paradigm,2021.1.4,60.03422338814743,
B,left,Pretarget,0,41,41,41,917.5806821984006,919.5813924542163,left,1,2,0.8826172443805262,H21R03,2021_Oct_13_1140,t1_Paradigm,2021.1.4,60.03422338814743,
H,left,Distractor,0,42,42,42,921.0806156320032,923.0812190606957,left,1,2,1.2062795718666166,H21R03,2021_Oct_13_1140,t1_Paradigm,2021.1.4,60.03422338814743,
B,right,Target,0,43,43,43,924.5805753712775,926.5803710203618,right,1,2,0.5071935049491003,H21R03,2021_Oct_13_1140,t1_Paradigm,2021.1.4,60.03422338814743,
W,left,Pretarget,0,44,44,44,928.0806348801125,930.0804610054474,left,1,2,0.49534500180743635,H21R03,2021_Oct_13_1140,t1_Paradigm,2021.1.4,60.03422338814743,
L,left,Pretarget,0,45,45,45,931.5807713813847,933.5823243841296,left,1,2,0.6412114512640983,H21R03,2021_Oct_13_1140,t1_Paradigm,2021.1.4,60.03422338814743,
W,right,Target,0,46,46,46,935.0807548600715,937.081237025559,right,1,2,0.630456882994622,H21R03,2021_Oct_13_1140,t1_Paradigm,2021.1.4,60.03422338814743,
L,right,Target,0,47,47,47,938.5808307297993,940.5816840631887,right,1,2,0.5538419735385105,H21R03,2021_Oct_13_1140,t1_Paradigm,2021.1.4,60.03422338814743,
W,right,Target,0,48,48,48,942.0808219077298,944.0821025494952,right,1,2,0.6693746638484299,H21R03,2021_Oct_13_1140,t1_Paradigm,2021.1.4,60.03422338814743,
X,left,Distractor,0,49,49,49,945.5805208350066,947.5806449854281,left,1,2,0.49891681177541614,H21R03,2021_Oct_13_1140,t1_Paradigm,2021.1.4,60.03422338814743,
R,left,Distractor,0,50,50,50,949.0804991808254,951.0803503287025,left,1,2,0.48718540149275213,H21R03,2021_Oct_13_1140,t1_Paradigm,2021.1.4,60.03422338814743,
V,left,Pretarget,0,51,51,51,952.5813029503915,954.5808775668265,left,1,2,0.6506661294260994,H21R03,2021_Oct_13_1140,t1_Paradigm,2021.1.4,60.03422338814743,
Z,left,Distractor,0,52,52,52,956.0806172359735,958.0806496370351,left,1,2,0.6069257315248251,H21R03,2021_Oct_13_1140,t1_Paradigm,2021.1.4,60.03422338814743,
V,right,Target,0,53,53,53,959.5812227498973,961.5804085542914,right,1,2,0.6113094915635884,H21R03,2021_Oct_13_1140,t1_Paradigm,2021.1.4,60.03422338814743,
V,left,Lure,0,54,54,54,963.0804998223903,965.0805813061306,left,1,2,0.6949021666077897,H21R03,2021_Oct_13_1140,t1_Paradigm,2021.1.4,60.03422338814743,
N,left,Distractor,0,55,55,55,966.5806821984006,968.5810379679315,left,1,2,0.8107928719837219,H21R03,2021_Oct_13_1140,t1_Paradigm,2021.1.4,60.03422338814743,
B,left,Distractor,0,56,56,56,970.080643220921,972.0812841834268,left,1,2,0.4789571495493874,H21R03,2021_Oct_13_1140,t1_Paradigm,2021.1.4,60.03422338814743,
V,left,Lure,0,57,57,57,973.5807216570247,975.5804961331887,left,1,2,0.49912693724036217,H21R03,2021_Oct_13_1140,t1_Paradigm,2021.1.4,60.03422338814743,
J,left,Distractor,0,58,58,58,977.08054794278,979.0810692460509,left,1,2,0.518578769871965,H21R03,2021_Oct_13_1140,t1_Paradigm,2021.1.4,60.03422338814743,
H,left,Distractor,0,59,59,59,980.5807437923504,982.5822945495602,left,1,2,0.9852767896372825,H21R03,2021_Oct_13_1140,t1_Paradigm,2021.1.4,60.03422338814743,
X,left,Pretarget,0,60,60,60,984.080458118231,986.0804176970851,right,0,2,1.0230842743767425,H21R03,2021_Oct_13_1140,t1_Paradigm,2021.1.4,60.03422338814743,
P,left,Distractor,0,61,61,61,987.5805240429472,989.5802937070839,left,1,2,0.4835311451461166,H21R03,2021_Oct_13_1140,t1_Paradigm,2021.1.4,60.03422338814743,
X,right,Target,0,62,62,62,991.0804292459507,993.0816380281467,right,1,2,0.9979420547606423,H21R03,2021_Oct_13_1140,t1_Paradigm,2021.1.4,60.03422338814743,
Q,left,Distractor,0,63,63,63,994.5806180379586,996.5805461783893,left,1,2,0.5870254174806178,H21R03,2021_Oct_13_1140,t1_Paradigm,2021.1.4,60.03422338814743,
B,left,Pretarget,0,0,0,0,1008.3954177276464,1010.3811882315204,None,0,2,,H21R03,2021_Oct_13_1140,t1_Paradigm,2021.1.4,60.03422338814743,
F,left,Distractor,0,1,1,1,1011.8805426174076,1013.8810276701115,None,0,2,,H21R03,2021_Oct_13_1140,t1_Paradigm,2021.1.4,60.03422338814743,
B,right,Target,0,2,2,2,1015.3806133542676,1017.3812408430967,right,1,2,0.7789295284310356,H21R03,2021_Oct_13_1140,t1_Paradigm,2021.1.4,60.03422338814743,
V,left,Distractor,0,3,3,3,1018.8806350084487,1020.8813067679293,left,1,2,1.150227753445506,H21R03,2021_Oct_13_1140,t1_Paradigm,2021.1.4,60.03422338814743,
G,left,Pretarget,0,4,4,4,1022.380748732714,1024.3813050035387,left,1,2,0.8824635801138356,H21R03,2021_Oct_13_1140,t1_Paradigm,2021.1.4,60.03422338814743,
B,left,Lure,0,5,5,5,1025.8802994494326,1027.8814617153257,left,1,2,1.3501317052869126,H21R03,2021_Oct_13_1140,t1_Paradigm,2021.1.4,60.03422338814743,
G,right,Target,0,6,6,6,1029.380726918229,1031.3800404018257,right,1,2,0.5234684349270537,H21R03,2021_Oct_13_1140,t1_Paradigm,2021.1.4,60.03422338814743,
Y,left,Pretarget,0,7,7,7,1032.8805445422186,1034.8808165823575,left,1,2,0.9906794170383364,H21R03,2021_Oct_13_1140,t1_Paradigm,2021.1.4,60.03422338814743,
P,left,Distractor,0,8,8,8,1036.3806617953815,1038.3803464469966,left,1,2,0.9474478111369535,H21R03,2021_Oct_13_1140,t1_Paradigm,2021.1.4,60.03422338814743,
Y,right,Target,0,9,9,9,1039.8807338154875,1041.8815900362097,right,1,2,0.6141347952652723,H21R03,2021_Oct_13_1140,t1_Paradigm,2021.1.4,60.03422338814743,
X,left,Distractor,0,10,10,10,1043.3806460760534,1045.3801966324681,left,1,2,0.5873930566012859,H21R03,2021_Oct_13_1140,t1_Paradigm,2021.1.4,60.03422338814743,
Y,right,Target,0,11,11,11,1046.8805448630592,1048.880686336779,right,1,2,0.5748538665939122,H21R03,2021_Oct_13_1140,t1_Paradigm,2021.1.4,60.03422338814743,
N,left,Distractor,0,12,12,12,1050.3807573943632,1052.3827723520808,left,1,2,0.6567969776224345,H21R03,2021_Oct_13_1140,t1_Paradigm,2021.1.4,60.03422338814743,
Y,right,Target,0,13,13,13,1053.880663559772,1055.882611790672,right,1,2,0.8528407182311639,H21R03,2021_Oct_13_1140,t1_Paradigm,2021.1.4,60.03422338814743,
Y,left,Lure,0,14,14,14,1057.380446537165,1059.3809566125274,left,1,2,0.9706517447484657,H21R03,2021_Oct_13_1140,t1_Paradigm,2021.1.4,60.03422338814743,
K,left,Distractor,0,15,15,15,1060.8811704270774,1062.8804159006104,right,0,2,0.607149972114712,H21R03,2021_Oct_13_1140,t1_Paradigm,2021.1.4,60.03422338814743,
T,left,Pretarget,0,16,16,16,1064.3804128529737,1066.380454236525,left,1,2,0.9312806706875563,H21R03,2021_Oct_13_1140,t1_Paradigm,2021.1.4,60.03422338814743,
J,left,Distractor,0,17,17,17,1067.8804826274281,1069.8803016950842,left,1,2,0.5993608981370926,H21R03,2021_Oct_13_1140,t1_Paradigm,2021.1.4,60.03422338814743,
T,right,Target,0,18,18,18,1071.3805286625866,1073.3806232991628,right,1,2,0.5708906780928373,H21R03,2021_Oct_13_1140,t1_Paradigm,2021.1.4,60.03422338814743,
S,left,Pretarget,0,19,19,19,1074.880219569779,1076.8803960109362,left,1,2,0.6871904059080407,H21R03,2021_Oct_13_1140,t1_Paradigm,2021.1.4,60.03422338814743,
R,left,Distractor,0,20,20,20,1078.3805623467779,1080.3806165623246,left,1,2,0.8029928907053545,H21R03,2021_Oct_13_1140,t1_Paradigm,2021.1.4,60.03422338814743,
S,right,Target,0,21,21,21,1081.880494817975,1083.8804341863142,right,1,2,0.599142111139372,H21R03,2021_Oct_13_1140,t1_Paradigm,2021.1.4,60.03422338814743,
Q,left,Distractor,0,22,22,22,1085.3813114195364,1087.3815132040763,left,1,2,0.6661233350168914,H21R03,2021_Oct_13_1140,t1_Paradigm,2021.1.4,60.03422338814743,
D,left,Distractor,0,23,23,23,1088.8806616349611,1090.8813199207652,left,1,2,0.7182116440963,H21R03,2021_Oct_13_1140,t1_Paradigm,2021.1.4,60.03422338814743,
F,left,Distractor,0,24,24,24,1092.3812203117413,1094.3806091839215,left,1,2,0.9632832421921194,H21R03,2021_Oct_13_1140,t1_Paradigm,2021.1.4,60.03422338814743,
Z,left,Distractor,0,25,25,25,1095.881349755451,1097.8804669081,left,1,2,0.839069006848149,H21R03,2021_Oct_13_1140,t1_Paradigm,2021.1.4,60.03422338814743,
P,left,Distractor,0,26,26,26,1099.3806871387642,1101.382388993632,left,1,2,1.2411154672736302,H21R03,2021_Oct_13_1140,t1_Paradigm,2021.1.4,60.03422338814743,
H,left,Distractor,0,27,27,27,1102.880636612419,1104.8812150185695,left,1,2,0.7826890078140423,H21R03,2021_Oct_13_1140,t1_Paradigm,2021.1.4,60.03422338814743,
Z,left,Pretarget,0,28,28,28,1106.3806406224612,1108.3814974847483,left,1,2,0.5463085789233446,H21R03,2021_Oct_13_1140,t1_Paradigm,2021.1.4,60.03422338814743,
J,left,Pretarget,0,29,29,29,1109.8813083718996,1111.8804819858633,left,1,2,0.6950333745917305,H21R03,2021_Oct_13_1140,t1_Paradigm,2021.1.4,60.03422338814743,
Z,right,Target,0,30,30,30,1113.3805581763154,1115.3808748079464,right,1,2,0.6987562825670466,H21R03,2021_Oct_13_1140,t1_Paradigm,2021.1.4,60.03422338814743,
J,right,Target,0,31,31,31,1116.8807030185126,1118.8817247729748,right,1,2,0.4779090891825035,H21R03,2021_Oct_13_1140,t1_Paradigm,2021.1.4,60.03422338814743,
V,left,Pretarget,0,32,32,32,1120.3804940158734,1122.380456161336,left,1,2,0.5632700251881033,H21R03,2021_Oct_13_1140,t1_Paradigm,2021.1.4,60.03422338814743,
Z,left,Lure,0,33,33,33,1123.8806773542892,1125.8822483220138,left,1,2,0.7094547103624791,H21R03,2021_Oct_13_1140,t1_Paradigm,2021.1.4,60.03422338814743,
V,right,Target,0,34,34,34,1127.380411569844,1129.3803997001378,right,1,2,0.5391120263375342,H21R03,2021_Oct_13_1140,t1_Paradigm,2021.1.4,60.03422338814743,
X,left,Distractor,0,35,35,35,1130.880504121189,1132.8807954094373,left,1,2,0.6226976438192651,H21R03,2021_Oct_13_1140,t1_Paradigm,2021.1.4,60.03422338814743,
S,left,Distractor,0,36,36,36,1134.3804266474908,1136.3808241212973,left,1,2,0.5469049499370158,H21R03,2021_Oct_13_1140,t1_Paradigm,2021.1.4,60.03422338814743,
Q,left,Distractor,0,37,37,37,1137.8806651638588,1139.88036457228,left,1,2,0.6952082117786631,H21R03,2021_Oct_13_1140,t1_Paradigm,2021.1.4,60.03422338814743,
P,left,Distractor,0,38,38,38,1141.3806845723884,1143.3803653742652,left,1,2,0.6993491246830672,H21R03,2021_Oct_13_1140,t1_Paradigm,2021.1.4,60.03422338814743,
S,left,Lure,0,39,39,39,1144.8806266675238,1146.8811579158064,right,0,2,1.0383602266665548,H21R03,2021_Oct_13_1140,t1_Paradigm,2021.1.4,60.03422338814743,
K,left,Pretarget,0,40,40,40,1148.3805896149715,1150.3809986375272,left,1,2,0.5945049173897132,H21R03,2021_Oct_13_1140,t1_Paradigm,2021.1.4,60.03422338814743,
L,left,Distractor,0,41,41,41,1151.880532993353,1153.8809323919704,left,1,2,0.7905768887139857,H21R03,2021_Oct_13_1140,t1_Paradigm,2021.1.4,60.03422338814743,
K,right,Target,0,42,42,42,1155.380447820411,1157.3808725622948,right,1,2,0.5867434324463829,H21R03,2021_Oct_13_1140,t1_Paradigm,2021.1.4,60.03422338814743,
B,left,Distractor,0,43,43,43,1158.881194487214,1160.8824863571208,left,1,2,0.8612280880333856,H21R03,2021_Oct_13_1140,t1_Paradigm,2021.1.4,60.03422338814743,
N,left,Distractor,0,44,44,44,1162.380468672607,1164.3825359210605,left,1,2,0.9132175900740549,H21R03,2021_Oct_13_1140,t1_Paradigm,2021.1.4,60.03422338814743,
S,left,Pretarget,0,45,45,45,1165.880712000886,1167.8800049532438,left,1,2,0.6955732845235616,H21R03,2021_Oct_13_1140,t1_Paradigm,2021.1.4,60.03422338814743,
Z,left,Distractor,0,46,46,46,1169.3806675698142,1171.3814570637187,left,1,2,0.794082292704843,H21R03,2021_Oct_13_1140,t1_Paradigm,2021.1.4,60.03422338814743,
S,right,Target,0,47,47,47,1172.8806638806127,1174.8816657454008,right,1,2,0.5580358188599348,H21R03,2021_Oct_13_1140,t1_Paradigm,2021.1.4,60.03422338814743,
C,left,Distractor,0,48,48,48,1176.3811651337892,1178.3816466577118,left,1,2,0.5938469524262473,H21R03,2021_Oct_13_1140,t1_Paradigm,2021.1.4,60.03422338814743,
T,left,Pretarget,0,49,49,49,1179.880584642524,1181.8811813343782,left,1,2,0.6625579409301281,H21R03,2021_Oct_13_1140,t1_Paradigm,2021.1.4,60.03422338814743,
S,left,Lure,0,50,50,50,1183.3807442415273,1185.38118662755,left,1,2,0.6984935456421226,H21R03,2021_Oct_13_1140,t1_Paradigm,2021.1.4,60.03422338814743,
T,right,Target,0,51,51,51,1186.8806279507698,1188.8804072389612,right,1,2,1.087222871137783,H21R03,2021_Oct_13_1140,t1_Paradigm,2021.1.4,60.03422338814743,
N,left,Pretarget,0,52,52,52,1190.3807397503406,1192.3937652761815,left,1,2,0.6618746324675158,H21R03,2021_Oct_13_1140,t1_Paradigm,2021.1.4,60.03422338814743,
B,left,Distractor,0,53,53,53,1193.8806532941526,1195.8813811939908,left,1,2,0.6303378654411063,H21R03,2021_Oct_13_1140,t1_Paradigm,2021.1.4,60.03422338814743,
N,right,Target,0,54,54,54,1197.3806540961377,1199.3936661484186,right,1,2,0.6379113604780287,H21R03,2021_Oct_13_1140,t1_Paradigm,2021.1.4,60.03422338814743,
N,left,Lure,0,55,55,55,1200.88038414123,1202.880372913205,None,0,2,,H21R03,2021_Oct_13_1140,t1_Paradigm,2021.1.4,60.03422338814743,
X,left,Distractor,0,56,56,56,1204.3805706875864,1206.3814387780149,left,1,2,0.7381106747779995,H21R03,2021_Oct_13_1140,t1_Paradigm,2021.1.4,60.03422338814743,
W,left,Distractor,0,57,57,57,1207.881292652688,1209.880484552239,left,1,2,0.5834667603485286,H21R03,2021_Oct_13_1140,t1_Paradigm,2021.1.4,60.03422338814743,
S,left,Distractor,0,58,58,58,1211.380580311641,1213.381127599976,left,1,2,0.5224129960406572,H21R03,2021_Oct_13_1140,t1_Paradigm,2021.1.4,60.03422338814743,
L,left,Distractor,0,59,59,59,1214.8806144770933,1216.8809272591025,left,1,2,0.49461293139029294,H21R03,2021_Oct_13_1140,t1_Paradigm,2021.1.4,60.03422338814743,
K,left,Pretarget,0,60,60,60,1218.380550156231,1220.3802723416593,left,1,2,0.6752908952767029,H21R03,2021_Oct_13_1140,t1_Paradigm,2021.1.4,60.03422338814743,
V,left,Pretarget,0,61,61,61,1221.8812060360797,1223.880401785369,left,1,2,0.5511940733995289,H21R03,2021_Oct_13_1140,t1_Paradigm,2021.1.4,60.03422338814743,
K,right,Target,0,62,62,62,1225.3804802214727,1227.3803746775957,left,0,2,0.8912487444467843,H21R03,2021_Oct_13_1140,t1_Paradigm,2021.1.4,60.03422338814743,
V,right,Target,0,63,63,63,1228.8811158906901,1230.880502837943,right,1,2,0.47920448798686266,H21R03,2021_Oct_13_1140,t1_Paradigm,2021.1.4,60.03422338814743,
R,left,Distractor,0,0,0,0,1311.194587620208,1313.18090990372,None,0,3,,H21R03,2021_Oct_13_1140,t1_Paradigm,2021.1.4,60.03422338814743,
P,left,Lure,0,1,1,1,1314.6812895729672,1316.6823982648784,None,0,3,,H21R03,2021_Oct_13_1140,t1_Paradigm,2021.1.4,60.03422338814743,
V,left,Distractor,0,2,2,2,1318.1807501442963,1320.181054906221,None,0,3,,H21R03,2021_Oct_13_1140,t1_Paradigm,2021.1.4,60.03422338814743,
P,left,Pretarget,0,3,3,3,1321.6807339438237,1323.6804128208896,None,0,3,,H21R03,2021_Oct_13_1140,t1_Paradigm,2021.1.4,60.03422338814743,
Z,left,Distractor,0,4,4,4,1325.1805082595674,1327.180845743278,left,1,3,0.7868161262013018,H21R03,2021_Oct_13_1140,t1_Paradigm,2021.1.4,60.03422338814743,
L,left,Pretarget,0,5,5,5,1328.680642515188,1330.6802235477371,left,1,3,0.5034519905457273,H21R03,2021_Oct_13_1140,t1_Paradigm,2021.1.4,60.03422338814743,
P,right,Target,0,6,6,6,1332.1806676981505,1334.1799609712325,right,1,3,0.45965994347352535,H21R03,2021_Oct_13_1140,t1_Paradigm,2021.1.4,60.03422338814743,
S,left,Distractor,0,7,7,7,1335.680617492646,1337.6805542946095,left,1,3,0.5430485884426162,H21R03,2021_Oct_13_1140,t1_Paradigm,2021.1.4,60.03422338814743,
L,right,Target,0,8,8,8,1339.1807626555674,1341.1810924400343,right,1,3,0.7065283539704978,H21R03,2021_Oct_13_1140,t1_Paradigm,2021.1.4,60.03422338814743,
D,left,Distractor,0,9,9,9,1342.6813803599216,1344.6804878886323,left,1,3,0.5511905446182936,H21R03,2021_Oct_13_1140,t1_Paradigm,2021.1.4,60.03422338814743,
G,left,Distractor,0,10,10,10,1346.1812752973055,1348.180212480016,left,1,3,1.3553707236424088,H21R03,2021_Oct_13_1140,t1_Paradigm,2021.1.4,60.03422338814743,
M,left,Pretarget,0,11,11,11,1349.6805472369306,1351.6809957182268,left,1,3,0.7185494486475363,H21R03,2021_Oct_13_1140,t1_Paradigm,2021.1.4,60.03422338814743,
Y,left,Distractor,0,12,12,12,1353.1806295227725,1355.1803510665195,left,1,3,0.46721226547379047,H21R03,2021_Oct_13_1140,t1_Paradigm,2021.1.4,60.03422338814743,
V,left,Distractor,0,13,13,13,1356.6806024149992,1358.6808144650422,left,1,3,0.5189082336146384,H21R03,2021_Oct_13_1140,t1_Paradigm,2021.1.4,60.03422338814743,
M,right,Target,0,14,14,14,1360.181210816023,1362.1802500138292,right,1,3,1.0994162363931537,H21R03,2021_Oct_13_1140,t1_Paradigm,2021.1.4,60.03422338814743,
S,left,Pretarget,0,15,15,15,1363.6807044299785,1365.6816963499878,left,1,3,0.8620570405619219,H21R03,2021_Oct_13_1140,t1_Paradigm,2021.1.4,60.03422338814743,
Q,left,Distractor,0,16,16,16,1367.1806622445583,1369.1813083398156,left,1,3,0.786308296606876,H21R03,2021_Oct_13_1140,t1_Paradigm,2021.1.4,60.03422338814743,
R,left,Pretarget,0,17,17,17,1370.680662084138,1372.682518565678,left,1,3,0.5011476692743599,H21R03,2021_Oct_13_1140,t1_Paradigm,2021.1.4,60.03422338814743,
S,right,Target,0,18,18,18,1374.1806680189911,1376.1805570214055,left,0,3,1.2750120541313663,H21R03,2021_Oct_13_1140,t1_Paradigm,2021.1.4,60.03422338814743,
F,left,Distractor,0,19,19,19,1377.6805735427188,1379.6811323799193,left,1,3,0.8306412158999592,H21R03,2021_Oct_13_1140,t1_Paradigm,2021.1.4,60.03422338814743,
R,right,Target,0,20,20,20,1381.1807568811346,1383.1809535328066,left,0,3,1.1066618717741221,H21R03,2021_Oct_13_1140,t1_Paradigm,2021.1.4,60.03422338814743,
P,left,Distractor,0,21,21,21,1384.680717903655,1386.6803714374546,None,0,3,,H21R03,2021_Oct_13_1140,t1_Paradigm,2021.1.4,60.03422338814743,
L,left,Distractor,0,22,22,22,1388.1807049112394,1390.1808900139295,left,1,3,1.1468577279010788,H21R03,2021_Oct_13_1140,t1_Paradigm,2021.1.4,60.03422338814743,
R,right,Target,0,23,23,23,1391.6803820239147,1393.680255627958,left,0,3,0.927434574929066,H21R03,2021_Oct_13_1140,t1_Paradigm,2021.1.4,60.03422338814743,
H,left,Pretarget,0,24,24,24,1395.180638505146,1397.1810747960117,left,1,3,0.7224921057932079,H21R03,2021_Oct_13_1140,t1_Paradigm,2021.1.4,60.03422338814743,
G,left,Pretarget,0,25,25,25,1398.6807361893589,1400.6823180643842,left,1,3,1.1733229351229966,H21R03,2021_Oct_13_1140,t1_Paradigm,2021.1.4,60.03422338814743,
T,left,Distractor,0,26,26,26,1402.1812486706767,1404.1828921396518,left,1,3,1.112904679728672,H21R03,2021_Oct_13_1140,t1_Paradigm,2021.1.4,60.03422338814743,
H,right,Target,0,27,27,27,1405.6805427457439,1407.6807682695799,left,0,3,1.054788500070572,H21R03,2021_Oct_13_1140,t1_Paradigm,2021.1.4,60.03422338814743,
G,right,Target,0,28,28,28,1409.1812878085766,1411.180357161793,left,0,3,1.4272666348842904,H21R03,2021_Oct_13_1140,t1_Paradigm,2021.1.4,60.03422338814743,
D,left,Distractor,0,29,29,29,1412.6808654726483,1414.682905452908,left,1,3,0.9809950445778668,H21R03,2021_Oct_13_1140,t1_Paradigm,2021.1.4,60.03422338814743,
N,left,Pretarget,0,30,30,30,1416.180516600376,1418.1806545453146,left,1,3,1.2589199813082814,H21R03,2021_Oct_13_1140,t1_Paradigm,2021.1.4,60.03422338814743,
V,left,Distractor,0,31,31,31,1419.6804679988418,1421.6802966905525,left,1,3,1.1354538563173264,H21R03,2021_Oct_13_1140,t1_Paradigm,2021.1.4,60.03422338814743,
R,left,Distractor,0,32,32,32,1423.180664810934,1425.1801159186289,None,0,3,,H21R03,2021_Oct_13_1140,t1_Paradigm,2021.1.4,60.03422338814743,
N,right,Target,0,33,33,33,1426.68122605409,1428.6803460940719,right,1,3,0.567232251400128,H21R03,2021_Oct_13_1140,t1_Paradigm,2021.1.4,60.03422338814743,
Z,left,Distractor,0,34,34,34,1430.1803100038087,1432.1809862545924,left,1,3,0.7792111926246434,H21R03,2021_Oct_13_1140,t1_Paradigm,2021.1.4,60.03422338814743,
N,left,Lure,0,35,35,35,1433.6806553472998,1435.6811282094568,left,1,3,1.0544737931340933,H21R03,2021_Oct_13_1140,t1_Paradigm,2021.1.4,60.03422338814743,
Y,left,Pretarget,0,36,36,36,1437.1806320891483,1439.1810610014945,left,1,3,0.8829178359592333,H21R03,2021_Oct_13_1140,t1_Paradigm,2021.1.4,60.03422338814743,
Y,left,Lure,0,37,37,37,1440.6806091518374,1442.6810059839627,left,1,3,0.7426436077803373,H21R03,2021_Oct_13_1140,t1_Paradigm,2021.1.4,60.03422338814743,
B,left,Distractor,0,38,38,38,1444.1807661843486,1446.1826605205424,left,1,3,0.7450611720560119,H21R03,2021_Oct_13_1140,t1_Paradigm,2021.1.4,60.03422338814743,
Y,right,Target,0,39,39,39,1447.6805353673408,1449.6805251016049,right,1,3,0.7992000479716808,H21R03,2021_Oct_13_1140,t1_Paradigm,2021.1.4,60.03422338814743,
J,left,Distractor,0,40,40,40,1451.1806683397153,1453.1811588461278,left,1,3,1.378860491910018,H21R03,2021_Oct_13_1140,t1_Paradigm,2021.1.4,60.03422338814743,
X,left,Distractor,0,41,41,41,1454.6807284901151,1456.6803977432428,left,1,3,0.615440780413337,H21R03,2021_Oct_13_1140,t1_Paradigm,2021.1.4,60.03422338814743,
W,left,Pretarget,0,42,42,42,1458.1813003198477,1460.1805531717837,left,1,3,0.6992002724437043,H21R03,2021_Oct_13_1140,t1_Paradigm,2021.1.4,60.03422338814743,
S,left,Pretarget,0,43,43,43,1461.6806948059238,1463.6815558386734,left,1,3,0.4940380541374907,H21R03,2021_Oct_13_1140,t1_Paradigm,2021.1.4,60.03422338814743,
R,left,Distractor,0,44,44,44,1465.1806327307131,1467.182627477916,left,1,3,0.6250144762452692,H21R03,2021_Oct_13_1140,t1_Paradigm,2021.1.4,60.03422338814743,
W,right,Target,0,45,45,45,1468.6805321592838,1470.680531517719,right,1,3,0.9190282777417451,H21R03,2021_Oct_13_1140,t1_Paradigm,2021.1.4,60.03422338814743,
S,right,Target,0,46,46,46,1472.1805364901666,1474.1803414424649,right,1,3,0.7634203529451042,H21R03,2021_Oct_13_1140,t1_Paradigm,2021.1.4,60.03422338814743,
D,left,Distractor,0,47,47,47,1475.6811965403613,1477.6803881191881,left,1,3,1.0712177357636392,H21R03,2021_Oct_13_1140,t1_Paradigm,2021.1.4,60.03422338814743,
T,left,Distractor,0,48,48,48,1479.180750465137,1481.1823355481029,left,1,3,0.945417775772512,H21R03,2021_Oct_13_1140,t1_Paradigm,2021.1.4,60.03422338814743,
S,right,Target,0,49,49,49,1482.6806136430241,1484.681036460097,None,0,3,,H21R03,2021_Oct_13_1140,t1_Paradigm,2021.1.4,60.03422338814743,
K,left,Distractor,0,50,50,50,1486.1806551868794,1488.1812124199932,left,1,3,0.5543850914109498,H21R03,2021_Oct_13_1140,t1_Paradigm,2021.1.4,60.03422338814743,
S,left,Lure,0,51,51,51,1489.6807130916277,1491.6812202796573,left,1,3,1.0705225577112287,H21R03,2021_Oct_13_1140,t1_Paradigm,2021.1.4,60.03422338814743,
T,left,Pretarget,0,52,52,52,1493.1807248009136,1495.181004861137,left,1,3,1.1225531224627048,H21R03,2021_Oct_13_1140,t1_Paradigm,2021.1.4,60.03422338814743,
V,left,Distractor,0,53,53,53,1496.6804712068988,1498.68077885604,left,1,3,0.6470359333325177,H21R03,2021_Oct_13_1140,t1_Paradigm,2021.1.4,60.03422338814743,
B,left,Distractor,0,54,54,54,1500.1805265452713,1502.1808624250116,left,1,3,0.6507870717905462,H21R03,2021_Oct_13_1140,t1_Paradigm,2021.1.4,60.03422338814743,
T,right,Target,0,55,55,55,1503.6805626355344,1505.6825041294796,right,1,3,0.8453214388573542,H21R03,2021_Oct_13_1140,t1_Paradigm,2021.1.4,60.03422338814743,
Y,left,Pretarget,0,56,56,56,1507.1807344249683,1509.18062535231,left,1,3,0.707007632125169,H21R03,2021_Oct_13_1140,t1_Paradigm,2021.1.4,60.03422338814743,
T,left,Lure,0,57,57,57,1510.6806755578145,1512.6827004604274,right,0,3,0.901017808704637,H21R03,2021_Oct_13_1140,t1_Paradigm,2021.1.4,60.03422338814743,
P,left,Pretarget,0,58,58,58,1514.1805352069205,1516.1814049013192,left,1,3,0.6825583450263366,H21R03,2021_Oct_13_1140,t1_Paradigm,2021.1.4,60.03422338814743,
Y,right,Target,0,59,59,59,1517.6807069963543,1519.6825256232405,right,1,3,1.0370831136824563,H21R03,2021_Oct_13_1140,t1_Paradigm,2021.1.4,60.03422338814743,
R,left,Distractor,0,60,60,60,1521.1806250314694,1523.1813324000686,left,1,3,0.7702762137632817,H21R03,2021_Oct_13_1140,t1_Paradigm,2021.1.4,60.03422338814743,
P,right,Target,0,61,61,61,1524.6808272971539,1526.6814432371175,left,0,3,1.0303764259442687,H21R03,2021_Oct_13_1140,t1_Paradigm,2021.1.4,60.03422338814743,
L,left,Distractor,0,62,62,62,1528.180688229506,1530.1802230664762,left,1,3,0.6514334878884256,H21R03,2021_Oct_13_1140,t1_Paradigm,2021.1.4,60.03422338814743,
V,left,Distractor,0,63,63,63,1531.68054402899,1533.6811349464115,left,1,3,0.8146925417240709,H21R03,2021_Oct_13_1140,t1_Paradigm,2021.1.4,60.03422338814743,
H,left,Lure,0,0,0,0,1544.2108118634205,1546.1970167333493,None,0,3,,H21R03,2021_Oct_13_1140,t1_Paradigm,2021.1.4,60.03422338814743,
B,left,Distractor,0,1,1,1,1547.6971853148425,1549.6970367834438,None,0,3,,H21R03,2021_Oct_13_1140,t1_Paradigm,2021.1.4,60.03422338814743,
T,left,Distractor,0,2,2,2,1551.1972659965977,1553.197103029117,None,0,3,,H21R03,2021_Oct_13_1140,t1_Paradigm,2021.1.4,60.03422338814743,
R,left,Distractor,0,3,3,3,1554.697349565453,1556.6970659764484,left,1,3,1.2065618777414784,H21R03,2021_Oct_13_1140,t1_Paradigm,2021.1.4,60.03422338814743,
H,left,Pretarget,0,4,4,4,1558.1970988586545,1560.1994962124154,left,1,3,1.448127109440975,H21R03,2021_Oct_13_1140,t1_Paradigm,2021.1.4,60.03422338814743,
K,left,Distractor,0,5,5,5,1561.697309465264,1563.6982035405235,left,1,3,0.8773220855509862,H21R03,2021_Oct_13_1140,t1_Paradigm,2021.1.4,60.03422338814743,
G,left,Distractor,0,6,6,6,1565.1971511493903,1567.1978780869395,left,1,3,0.6257401305483654,H21R03,2021_Oct_13_1140,t1_Paradigm,2021.1.4,60.03422338814743,
H,right,Target,0,7,7,7,1568.6972491544439,1570.6979321420658,right,1,3,0.7097796828020364,H21R03,2021_Oct_13_1140,t1_Paradigm,2021.1.4,60.03422338814743,
Y,left,Pretarget,0,8,8,8,1572.1973224576795,1574.1976955505088,left,1,3,1.4661276335828006,H21R03,2021_Oct_13_1140,t1_Paradigm,2021.1.4,60.03422338814743,
S,left,Distractor,0,9,9,9,1575.6973588687833,1577.69744323974,left,1,3,0.6702709847595543,H21R03,2021_Oct_13_1140,t1_Paradigm,2021.1.4,60.03422338814743,
P,left,Distractor,0,10,10,10,1579.197280111839,1581.1975059565157,left,1,3,0.7701912012416869,H21R03,2021_Oct_13_1140,t1_Paradigm,2021.1.4,60.03422338814743,
Y,right,Target,0,11,11,11,1582.6972084125737,1584.6974730743095,right,1,3,0.5983606373192742,H21R03,2021_Oct_13_1140,t1_Paradigm,2021.1.4,60.03422338814743,
H,left,Lure,0,12,12,12,1586.1973818060942,1588.197720573051,left,1,3,0.6498320440296084,H21R03,2021_Oct_13_1140,t1_Paradigm,2021.1.4,60.03422338814743,
Q,left,Distractor,0,13,13,13,1589.697208091733,1591.6995088841068,left,1,3,0.7321434357436374,H21R03,2021_Oct_13_1140,t1_Paradigm,2021.1.4,60.03422338814743,
V,left,Pretarget,0,14,14,14,1593.1980532448506,1595.197054588003,left,1,3,1.0106416457565501,H21R03,2021_Oct_13_1140,t1_Paradigm,2021.1.4,60.03422338814743,
G,left,Distractor,0,15,15,15,1596.697360151913,1598.6990581572754,left,1,3,1.0127890947042033,H21R03,2021_Oct_13_1140,t1_Paradigm,2021.1.4,60.03422338814743,
Z,left,Pretarget,0,16,16,16,1600.197135109338,1602.197296472732,left,1,3,0.9703803460579365,H21R03,2021_Oct_13_1140,t1_Paradigm,2021.1.4,60.03422338814743,
V,right,Target,0,17,17,17,1603.697361435159,1605.6974442021456,right,1,3,0.5901384806493297,H21R03,2021_Oct_13_1140,t1_Paradigm,2021.1.4,60.03422338814743,
N,left,Distractor,0,18,18,18,1607.1973708987935,1609.1995250846958,left,1,3,0.7842336696339771,H21R03,2021_Oct_13_1140,t1_Paradigm,2021.1.4,60.03422338814743,
Z,right,Target,0,19,19,19,1610.6969559413847,1612.6971211544005,right,1,3,0.6466740686446428,H21R03,2021_Oct_13_1140,t1_Paradigm,2021.1.4,60.03422338814743,
R,left,Distractor,0,20,20,20,1614.1972063273424,1616.1971229187911,left,1,3,0.6666940418072045,H21R03,2021_Oct_13_1140,t1_Paradigm,2021.1.4,60.03422338814743,
P,left,Distractor,0,21,21,21,1617.6972119414713,1619.6972026381409,left,1,3,0.8624869153136387,H21R03,2021_Oct_13_1140,t1_Paradigm,2021.1.4,60.03422338814743,
Z,right,Target,0,22,22,22,1621.197243861272,1623.1972223675111,right,1,3,1.04236768593546,H21R03,2021_Oct_13_1140,t1_Paradigm,2021.1.4,60.03422338814743,
D,left,Pretarget,0,23,23,23,1624.6970441619633,1626.6970656557241,left,1,3,0.5667279505869374,H21R03,2021_Oct_13_1140,t1_Paradigm,2021.1.4,60.03422338814743,
K,left,Distractor,0,24,24,24,1628.1972214051057,1630.1995985483518,left,1,3,0.8399733477272093,H21R03,2021_Oct_13_1140,t1_Paradigm,2021.1.4,60.03422338814743,
W,left,Distractor,0,25,25,25,1631.6971551594324,1633.6975349891,left,1,3,0.7662353911437094,H21R03,2021_Oct_13_1140,t1_Paradigm,2021.1.4,60.03422338814743,
D,right,Target,0,26,26,26,1635.1972701669438,1637.197234237101,right,1,3,0.5465697117615491,H21R03,2021_Oct_13_1140,t1_Paradigm,2021.1.4,60.03422338814743,
G,left,Pretarget,0,27,27,27,1638.6972116206307,1640.6973255053163,left,1,3,0.7102942492347211,H21R03,2021_Oct_13_1140,t1_Paradigm,2021.1.4,60.03422338814743,
V,left,Distractor,0,28,28,28,1642.197088593035,1644.1969192095567,left,1,3,0.7308454705635086,H21R03,2021_Oct_13_1140,t1_Paradigm,2021.1.4,60.03422338814743,
D,right,Target,0,29,29,29,1645.697370417649,1647.6969113498926,right,1,3,0.6067464031511918,H21R03,2021_Oct_13_1140,t1_Paradigm,2021.1.4,60.03422338814743,
G,right,Target,0,30,30,30,1649.1973099464085,1651.1995353503153,right,1,3,0.5602256137644872,H21R03,2021_Oct_13_1140,t1_Paradigm,2021.1.4,60.03422338814743,
B,left,Pretarget,0,31,31,31,1652.6971904477105,1654.697394156945,left,1,3,0.5342868425650522,H21R03,2021_Oct_13_1140,t1_Paradigm,2021.1.4,60.03422338814743,
N,left,Distractor,0,32,32,32,1656.1972826782148,1658.197211781051,left,1,3,0.7944922777824104,H21R03,2021_Oct_13_1140,t1_Paradigm,2021.1.4,60.03422338814743,
F,left,Distractor,0,33,33,33,1659.6979764127173,1661.6969113498926,left,1,3,0.8150393286487088,H21R03,2021_Oct_13_1140,t1_Paradigm,2021.1.4,60.03422338814743,
B,right,Target,0,34,34,34,1663.1974976155907,1665.1988360018004,right,1,3,0.5449750047409907,H21R03,2021_Oct_13_1140,t1_Paradigm,2021.1.4,60.03422338814743,
Q,left,Pretarget,0,35,35,35,1666.6971163423732,1668.6974201418925,left,1,3,0.6304475797805935,H21R03,2021_Oct_13_1140,t1_Paradigm,2021.1.4,60.03422338814743,
S,left,Pretarget,0,36,36,36,1670.1972002321854,1672.1974777259165,left,1,3,0.7780893477611244,H21R03,2021_Oct_13_1140,t1_Paradigm,2021.1.4,60.03422338814743,
W,left,Distractor,0,37,37,37,1673.6971166632138,1675.6974028185941,left,1,3,0.7506582055939361,H21R03,2021_Oct_13_1140,t1_Paradigm,2021.1.4,60.03422338814743,
Q,right,Target,0,38,38,38,1677.197784091928,1679.1970914802514,left,0,3,1.3307055367622524,H21R03,2021_Oct_13_1140,t1_Paradigm,2021.1.4,60.03422338814743,
S,right,Target,0,39,39,39,1680.6974156507058,1682.6979456157424,right,1,3,0.6459022188792005,H21R03,2021_Oct_13_1140,t1_Paradigm,2021.1.4,60.03422338814743,
T,left,Distractor,0,40,40,40,1684.197308984003,1686.1979339064565,left,1,3,0.7139100092463195,H21R03,2021_Oct_13_1140,t1_Paradigm,2021.1.4,60.03422338814743,
G,left,Distractor,0,41,41,41,1687.6974092347082,1689.6971497058403,left,1,3,0.766955912578851,H21R03,2021_Oct_13_1140,t1_Paradigm,2021.1.4,60.03422338814743,
D,left,Distractor,0,42,42,42,1691.1974036206957,1693.1979797811946,left,1,3,0.5618681202176958,H21R03,2021_Oct_13_1140,t1_Paradigm,2021.1.4,60.03422338814743,
S,left,Lure,0,43,43,43,1694.697388061788,1696.6981262272457,left,1,3,0.6617087777704,H21R03,2021_Oct_13_1140,t1_Paradigm,2021.1.4,60.03422338814743,
Z,left,Pretarget,0,44,44,44,1698.1973603123333,1700.1980067285476,left,1,3,1.241737823234871,H21R03,2021_Oct_13_1140,t1_Paradigm,2021.1.4,60.03422338814743,
J,left,Distractor,0,45,45,45,1701.6971833900316,1703.6975365930703,None,0,3,,H21R03,2021_Oct_13_1140,t1_Paradigm,2021.1.4,60.03422338814743,
M,left,Pretarget,0,46,46,46,1705.1974546281854,1707.197868783609,left,1,3,0.9140176704386249,H21R03,2021_Oct_13_1140,t1_Paradigm,2021.1.4,60.03422338814743,
Z,right,Target,0,47,47,47,1708.6971618962707,1710.6988881321158,left,0,3,0.6928506374824792,H21R03,2021_Oct_13_1140,t1_Paradigm,2021.1.4,60.03422338814743,
P,left,Distractor,0,48,48,48,1712.1970908386866,1714.1972300667549,left,1,3,0.7146170570049435,H21R03,2021_Oct_13_1140,t1_Paradigm,2021.1.4,60.03422338814743,
M,right,Target,0,49,49,49,1715.6973245429108,1717.6975404426921,right,1,3,0.8780355494236574,H21R03,2021_Oct_13_1140,t1_Paradigm,2021.1.4,60.03422338814743,
K,left,Distractor,0,50,50,50,1719.1971825880464,1721.1970520216273,left,1,3,0.7225751936202869,H21R03,2021_Oct_13_1140,t1_Paradigm,2021.1.4,60.03422338814743,
Y,left,Distractor,0,51,51,51,1722.6973133148858,1724.697049936396,left,1,3,0.6468007854418829,H21R03,2021_Oct_13_1140,t1_Paradigm,2021.1.4,60.03422338814743,
X,left,Distractor,0,52,52,52,1726.1980269390624,1728.1970776857343,left,1,3,0.8425124960485846,H21R03,2021_Oct_13_1140,t1_Paradigm,2021.1.4,60.03422338814743,
F,left,Pretarget,0,53,53,53,1729.6972266982775,1731.6973068987718,left,1,3,0.6222806010628119,H21R03,2021_Oct_13_1140,t1_Paradigm,2021.1.4,60.03422338814743,
M,left,Lure,0,54,54,54,1733.197118748445,1735.1971906081308,left,1,3,0.7545206624781713,H21R03,2021_Oct_13_1140,t1_Paradigm,2021.1.4,60.03422338814743,
V,left,Distractor,0,55,55,55,1736.6970868286444,1738.697948823683,left,1,3,0.6776763793313876,H21R03,2021_Oct_13_1140,t1_Paradigm,2021.1.4,60.03422338814743,
F,right,Target,0,56,56,56,1740.1973933549598,1742.197990688379,left,0,3,0.6978737560566515,H21R03,2021_Oct_13_1140,t1_Paradigm,2021.1.4,60.03422338814743,
S,left,Distractor,0,57,57,57,1743.6978933250066,1745.6970008537173,left,1,3,0.5746318715391681,H21R03,2021_Oct_13_1140,t1_Paradigm,2021.1.4,60.03422338814743,
D,left,Distractor,0,58,58,58,1747.1972255754517,1749.1976057259599,left,1,3,0.6261408121790737,H21R03,2021_Oct_13_1140,t1_Paradigm,2021.1.4,60.03422338814743,
F,right,Target,0,59,59,59,1750.6972209238447,1752.697497776011,right,1,3,0.6143516574520618,H21R03,2021_Oct_13_1140,t1_Paradigm,2021.1.4,60.03422338814743,
V,left,Pretarget,0,60,60,60,1754.1971511493903,1756.197684643208,left,1,3,0.7141650468111038,H21R03,2021_Oct_13_1140,t1_Paradigm,2021.1.4,60.03422338814743,
J,left,Distractor,0,61,61,61,1757.697201996576,1759.6970059864689,left,1,3,0.558678706176579,H21R03,2021_Oct_13_1140,t1_Paradigm,2021.1.4,60.03422338814743,
V,left,Lure,0,62,62,62,1761.19746425224,1763.1980150693562,right,0,3,0.7216281859437004,H21R03,2021_Oct_13_1140,t1_Paradigm,2021.1.4,60.03422338814743,
V,right,Target,0,63,63,63,1764.697573164478,1766.6973553398857,right,1,3,0.7582923321751878,H21R03,2021_Oct_13_1140,t1_Paradigm,2021.1.4,60.03422338814743,
R,left,Distractor,0,0,0,0,1833.6104507044656,1835.5977341108955,None,0,4,,H21R03,2021_Oct_13_1140,t1_Paradigm,2021.1.4,60.03422338814743,
F,left,Distractor,0,1,1,1,1837.0971966070356,1839.0975507725962,None,0,4,,H21R03,2021_Oct_13_1140,t1_Paradigm,2021.1.4,60.03422338814743,
P,left,Pretarget,0,2,2,2,1840.597308727447,1842.5976738001918,None,0,4,,H21R03,2021_Oct_13_1140,t1_Paradigm,2021.1.4,60.03422338814743,
H,left,Distractor,0,3,3,3,1844.0972841860494,1846.0979546622839,None,0,4,,H21R03,2021_Oct_13_1140,t1_Paradigm,2021.1.4,60.03422338814743,
Z,left,Distractor,0,4,4,4,1847.5973600557772,1849.5977995545836,left,1,4,0.5620144059648737,H21R03,2021_Oct_13_1140,t1_Paradigm,2021.1.4,60.03422338814743,
T,left,Distractor,0,5,5,5,1851.0972453689901,1853.097717910423,left,1,4,0.8700158187421039,H21R03,2021_Oct_13_1140,t1_Paradigm,2021.1.4,60.03422338814743,
P,right,Target,0,6,6,6,1854.5973257299047,1856.5977087675128,right,1,4,0.5379632341209799,H21R03,2021_Oct_13_1140,t1_Paradigm,2021.1.4,60.03422338814743,
G,left,Distractor,0,7,7,7,1858.0973188326461,1860.0971523363842,left,1,4,0.9425735446857288,H21R03,2021_Oct_13_1140,t1_Paradigm,2021.1.4,60.03422338814743,
L,left,Distractor,0,8,8,8,1861.5979070232715,1863.5991061812965,left,1,4,1.0406100115505978,H21R03,2021_Oct_13_1140,t1_Paradigm,2021.1.4,60.03422338814743,
P,left,Lure,0,9,9,9,1865.0971006872132,1867.0970644366462,left,1,4,0.9666843856684864,H21R03,2021_Oct_13_1140,t1_Paradigm,2021.1.4,60.03422338814743,
Q,left,Pretarget,0,10,10,10,1868.5971682161326,1870.5972189027816,left,1,4,1.2104939485434443,H21R03,2021_Oct_13_1140,t1_Paradigm,2021.1.4,60.03422338814743,
D,left,Distractor,0,11,11,11,1872.0972857900197,1874.0975186923752,right,0,4,0.5101920417509973,H21R03,2021_Oct_13_1140,t1_Paradigm,2021.1.4,60.03422338814743,
M,left,Pretarget,0,12,12,12,1875.5971669328865,1877.5970620305743,left,1,4,1.2988223035354167,H21R03,2021_Oct_13_1140,t1_Paradigm,2021.1.4,60.03422338814743,
C,left,Distractor,0,13,13,13,1879.097138541867,1881.097097158432,left,1,4,0.742604469996877,H21R03,2021_Oct_13_1140,t1_Paradigm,2021.1.4,60.03422338814743,
Q,right,Target,0,14,14,14,1882.597353318939,1884.598353900481,right,1,4,0.7773502200143412,H21R03,2021_Oct_13_1140,t1_Paradigm,2021.1.4,60.03422338814743,
R,left,Distractor,0,15,15,15,1886.0973268527305,1888.0992882364662,left,1,4,0.876289744512178,H21R03,2021_Oct_13_1140,t1_Paradigm,2021.1.4,60.03422338814743,
M,right,Target,0,16,16,16,1889.5970803162782,1891.5979541811394,None,0,4,,H21R03,2021_Oct_13_1140,t1_Paradigm,2021.1.4,60.03422338814743,
S,left,Distractor,0,17,17,17,1893.0982000759104,1895.0972665419104,left,1,4,1.3185096050146967,H21R03,2021_Oct_13_1140,t1_Paradigm,2021.1.4,60.03422338814743,
Z,left,Distractor,0,18,18,18,1896.5973969479091,1898.5991389030823,left,1,4,0.7286592045566067,H21R03,2021_Oct_13_1140,t1_Paradigm,2021.1.4,60.03422338814743,
L,left,Pretarget,0,19,19,19,1900.0973428927828,1902.0982334393775,left,1,4,1.1494555828394368,H21R03,2021_Oct_13_1140,t1_Paradigm,2021.1.4,60.03422338814743,
M,right,Target,0,20,20,20,1903.5973353539594,1905.5978938703192,right,1,4,0.8337741687428206,H21R03,2021_Oct_13_1140,t1_Paradigm,2021.1.4,60.03422338814743,
P,left,Distractor,0,21,21,21,1907.0971205770038,1909.0969973889878,left,1,4,0.6309310285141692,H21R03,2021_Oct_13_1140,t1_Paradigm,2021.1.4,60.03422338814743,
F,left,Distractor,0,22,22,22,1910.5978245771257,1912.5970684466884,left,1,4,0.650591061799787,H21R03,2021_Oct_13_1140,t1_Paradigm,2021.1.4,60.03422338814743,
L,right,Target,0,23,23,23,1914.0973130582133,1916.0984374694526,None,0,4,,H21R03,2021_Oct_13_1140,t1_Paradigm,2021.1.4,60.03422338814743,
L,left,Lure,0,24,24,24,1917.5973488276359,1919.5974652788136,None,0,4,,H21R03,2021_Oct_13_1140,t1_Paradigm,2021.1.4,60.03422338814743,
V,left,Pretarget,0,25,25,25,1921.0974574191496,1923.0983001661953,left,1,4,1.1415269600693136,H21R03,2021_Oct_13_1140,t1_Paradigm,2021.1.4,60.03422338814743,
Z,left,Distractor,0,26,26,26,1924.5971826522145,1926.5990057702875,left,1,4,0.5847579885739833,H21R03,2021_Oct_13_1140,t1_Paradigm,2021.1.4,60.03422338814743,
H,left,Distractor,0,27,27,27,1928.0978552136803,1930.0975251083728,left,1,4,0.7182023407658562,H21R03,2021_Oct_13_1140,t1_Paradigm,2021.1.4,60.03422338814743,
X,left,Distractor,0,28,28,28,1931.5973837950733,1933.5975284768501,left,1,4,0.6421581381000578,H21R03,2021_Oct_13_1140,t1_Paradigm,2021.1.4,60.03422338814743,
V,right,Target,0,29,29,29,1935.0973582912702,1937.097542110947,right,1,4,0.8542220919625834,H21R03,2021_Oct_13_1140,t1_Paradigm,2021.1.4,60.03422338814743,
C,left,Distractor,0,30,30,30,1938.5973940606927,1940.59701198549,left,1,4,0.5546231265179813,H21R03,2021_Oct_13_1140,t1_Paradigm,2021.1.4,60.03422338814743,
S,left,Pretarget,0,31,31,31,1942.0971747925505,1944.0972889980767,left,1,4,0.7986325491219759,H21R03,2021_Oct_13_1140,t1_Paradigm,2021.1.4,60.03422338814743,
D,left,Distractor,0,32,32,32,1945.5973796246108,1947.5978938703192,left,1,4,0.9140000262996182,H21R03,2021_Oct_13_1140,t1_Paradigm,2021.1.4,60.03422338814743,
V,left,Distractor,0,33,33,33,1949.0973236446735,1951.0979456799105,right,0,4,0.9979372427333146,H21R03,2021_Oct_13_1140,t1_Paradigm,2021.1.4,60.03422338814743,
R,left,Distractor,0,34,34,34,1952.5973985519959,1954.5977568879025,left,1,4,0.5058888029307127,H21R03,2021_Oct_13_1140,t1_Paradigm,2021.1.4,60.03422338814743,
S,right,Target,0,35,35,35,1956.0974179605255,1958.0975719455164,right,1,4,0.958135973312892,H21R03,2021_Oct_13_1140,t1_Paradigm,2021.1.4,60.03422338814743,
Y,left,Distractor,0,36,36,36,1959.597980166087,1961.5971480056178,left,1,4,0.6425527245737612,H21R03,2021_Oct_13_1140,t1_Paradigm,2021.1.4,60.03422338814743,
N,left,Pretarget,0,37,37,37,1963.097342251218,1965.0995432741474,left,1,4,1.060288009699434,H21R03,2021_Oct_13_1140,t1_Paradigm,2021.1.4,60.03422338814743,
Z,left,Pretarget,0,38,38,38,1966.597405930399,1968.5979144016746,left,1,4,0.9057579799555242,H21R03,2021_Oct_13_1140,t1_Paradigm,2021.1.4,60.03422338814743,
P,left,Pretarget,0,39,39,39,1970.097357970546,1972.0987370985094,left,1,4,0.90894546918571,H21R03,2021_Oct_13_1140,t1_Paradigm,2021.1.4,60.03422338814743,
M,left,Distractor,0,40,40,40,1973.597321238718,1975.598137679859,left,1,4,1.3297928549582139,H21R03,2021_Oct_13_1140,t1_Paradigm,2021.1.4,60.03422338814743,
N,right,Target,0,41,41,41,1977.0979732688284,1979.097159394063,right,1,4,0.6466901086969301,H21R03,2021_Oct_13_1140,t1_Paradigm,2021.1.4,60.03422338814743,
Z,right,Target,0,42,42,42,1980.5973135394743,1982.5990696098888,left,0,4,0.9687025513267145,H21R03,2021_Oct_13_1140,t1_Paradigm,2021.1.4,60.03422338814743,
P,right,Target,0,43,43,43,1984.0973666321952,1986.0989623016212,right,1,4,1.0046371936332434,H21R03,2021_Oct_13_1140,t1_Paradigm,2021.1.4,60.03422338814743,
X,left,Pretarget,0,44,44,44,1987.5970979604172,1989.5977139003808,left,1,4,0.9301540137967095,H21R03,2021_Oct_13_1140,t1_Paradigm,2021.1.4,60.03422338814743,
Z,left,Lure,0,45,45,45,1991.0973826722475,1993.0989231637213,None,0,4,,H21R03,2021_Oct_13_1140,t1_Paradigm,2021.1.4,60.03422338814743,
R,left,Pretarget,0,46,46,46,1994.5970969980117,1996.597391494317,left,1,4,0.746471097227186,H21R03,2021_Oct_13_1140,t1_Paradigm,2021.1.4,60.03422338814743,
K,left,Distractor,0,47,47,47,1998.097246010555,2000.0975283164298,left,1,4,0.654101598658599,H21R03,2021_Oct_13_1140,t1_Paradigm,2021.1.4,60.03422338814743,
X,right,Target,0,48,48,48,2001.597187784966,2003.5974296698114,left,0,4,1.2823439851636067,H21R03,2021_Oct_13_1140,t1_Paradigm,2021.1.4,60.03422338814743,
B,left,Distractor,0,49,49,49,2005.0972986221313,2007.0971962863114,left,1,4,1.0306404459988698,H21R03,2021_Oct_13_1140,t1_Paradigm,2021.1.4,60.03422338814743,
R,right,Target,0,50,50,50,2008.5970864115516,2010.5969346722122,right,1,4,0.6989808439975604,H21R03,2021_Oct_13_1140,t1_Paradigm,2021.1.4,60.03422338814743,
Y,left,Pretarget,0,51,51,51,2012.0972113639582,2014.0979761560448,left,1,4,0.6216951372334734,H21R03,2021_Oct_13_1140,t1_Paradigm,2021.1.4,60.03422338814743,
W,left,Pretarget,0,52,52,52,2015.5974912637612,2017.5979743916541,left,1,4,0.769702298915945,H21R03,2021_Oct_13_1140,t1_Paradigm,2021.1.4,60.03422338814743,
Z,left,Distractor,0,53,53,53,2019.0972402361222,2021.0977949028602,left,1,4,1.0301630925387144,H21R03,2021_Oct_13_1140,t1_Paradigm,2021.1.4,60.03422338814743,
Q,left,Distractor,0,54,54,54,2022.597958672326,2024.5975031334674,left,1,4,0.6021387231303379,H21R03,2021_Oct_13_1140,t1_Paradigm,2021.1.4,60.03422338814743,
Y,right,Target,0,55,55,55,2026.1140444894554,2028.0997521162499,right,1,4,0.524019572767429,H21R03,2021_Oct_13_1140,t1_Paradigm,2021.1.4,60.03422338814743,
W,right,Target,0,56,56,56,2029.5971027724445,2031.5971406270983,right,1,4,0.5626922607189044,H21R03,2021_Oct_13_1140,t1_Paradigm,2021.1.4,60.03422338814743,
H,left,Pretarget,0,57,57,57,2033.0971969278762,2035.0970904215937,left,1,4,0.694588422193192,H21R03,2021_Oct_13_1140,t1_Paradigm,2021.1.4,60.03422338814743,
M,left,Distractor,0,58,58,58,2036.5971406270983,2038.597314181039,left,1,4,0.9864528499310836,H21R03,2021_Oct_13_1140,t1_Paradigm,2021.1.4,60.03422338814743,
R,left,Pretarget,0,59,59,59,2040.0972803364275,2042.099131364259,left,1,4,0.6046368087409064,H21R03,2021_Oct_13_1140,t1_Paradigm,2021.1.4,60.03422338814743,
J,left,Distractor,0,60,60,60,2043.597960597137,2045.5974489179207,left,1,4,0.7542293741134927,H21R03,2021_Oct_13_1140,t1_Paradigm,2021.1.4,60.03422338814743,
H,right,Target,0,61,61,61,2047.0970981208375,2049.0974965570495,left,0,4,0.9984094634419307,H21R03,2021_Oct_13_1140,t1_Paradigm,2021.1.4,60.03422338814743,
Z,left,Distractor,0,62,62,62,2050.5972240356496,2052.597455654759,left,1,4,0.634304582956247,H21R03,2021_Oct_13_1140,t1_Paradigm,2021.1.4,60.03422338814743,
R,right,Target,0,63,63,63,2054.097302471753,2056.097515484318,right,1,4,0.638155811582692,H21R03,2021_Oct_13_1140,t1_Paradigm,2021.1.4,60.03422338814743,
J,left,Pretarget,0,0,0,0,2072.0288214983884,2074.02694769355,None,0,4,,H21R03,2021_Oct_13_1140,t1_Paradigm,2021.1.4,60.03422338814743,
G,left,Pretarget,0,1,1,1,2075.5136310397647,2077.5139531251043,None,0,4,,H21R03,2021_Oct_13_1140,t1_Paradigm,2021.1.4,60.03422338814743,
Z,left,Distractor,0,2,2,2,2079.0138137366157,2081.014080323046,None,0,4,,H21R03,2021_Oct_13_1140,t1_Paradigm,2021.1.4,60.03422338814743,
F,left,Distractor,0,3,3,3,2082.513880944578,2084.5137580774026,None,0,4,,H21R03,2021_Oct_13_1140,t1_Paradigm,2021.1.4,60.03422338814743,
J,right,Target,0,4,4,4,2086.013844854315,2088.014042147668,right,1,4,0.7056185592664406,H21R03,2021_Oct_13_1140,t1_Paradigm,2021.1.4,60.03422338814743,
G,right,Target,0,5,5,5,2089.5139422178036,2091.5141321326373,None,0,4,,H21R03,2021_Oct_13_1140,t1_Paradigm,2021.1.4,60.03422338814743,
H,left,Distractor,0,6,6,6,2093.0144691352034,2095.013801546069,left,1,4,1.0340970881516114,H21R03,2021_Oct_13_1140,t1_Paradigm,2021.1.4,60.03422338814743,
P,left,Distractor,0,7,7,7,2096.514546288061,2098.5136974458583,left,1,4,0.7822507921373472,H21R03,2021_Oct_13_1140,t1_Paradigm,2021.1.4,60.03422338814743,
G,left,Lure,0,8,8,8,2100.014604834374,2102.0136039319914,left,1,4,0.6900837197899818,H21R03,2021_Oct_13_1140,t1_Paradigm,2021.1.4,60.03422338814743,
S,left,Distractor,0,9,9,9,2103.513991621323,2105.5145417968743,left,1,4,0.6293802714208141,H21R03,2021_Oct_13_1140,t1_Paradigm,2021.1.4,60.03422338814743,
R,left,Pretarget,0,10,10,10,2107.013998197741,2109.0142137766816,None,0,4,,H21R03,2021_Oct_13_1140,t1_Paradigm,2021.1.4,60.03422338814743,
T,left,Pretarget,0,11,11,11,2110.514379791799,2112.513857846847,left,1,4,0.8460255992831662,H21R03,2021_Oct_13_1140,t1_Paradigm,2021.1.4,60.03422338814743,
X,left,Distractor,0,12,12,12,2114.014046318014,2116.0142208343605,left,1,4,0.7695473515195772,H21R03,2021_Oct_13_1140,t1_Paradigm,2021.1.4,60.03422338814743,
F,left,Pretarget,0,13,13,13,2117.5137901576236,2119.5141751200426,left,1,4,0.9335445708129555,H21R03,2021_Oct_13_1140,t1_Paradigm,2021.1.4,60.03422338814743,
R,right,Target,0,14,14,14,2121.013990819338,2123.0142824283103,left,0,4,0.7934833554318175,H21R03,2021_Oct_13_1140,t1_Paradigm,2021.1.4,60.03422338814743,
T,right,Target,0,15,15,15,2124.514632262988,2126.5136021676008,right,1,4,1.1501847659237683,H21R03,2021_Oct_13_1140,t1_Paradigm,2021.1.4,60.03422338814743,
C,left,Distractor,0,16,16,16,2128.0136998518137,2130.0138326638844,left,1,4,0.5461440074723214,H21R03,2021_Oct_13_1140,t1_Paradigm,2021.1.4,60.03422338814743,
F,right,Target,0,17,17,17,2131.5137725134846,2133.5139749395894,left,0,4,0.5337058700388297,H21R03,2021_Oct_13_1140,t1_Paradigm,2021.1.4,60.03422338814743,
M,left,Distractor,0,18,18,18,2135.013759521069,2137.013875009725,left,1,4,0.5218031514668837,H21R03,2021_Oct_13_1140,t1_Paradigm,2021.1.4,60.03422338814743,
N,left,Distractor,0,19,19,19,2138.513739470858,2140.513939330587,left,1,4,1.0698517605196685,H21R03,2021_Oct_13_1140,t1_Paradigm,2021.1.4,60.03422338814743,
R,left,Lure,0,20,20,20,2142.014151861891,2144.0137325735996,left,1,4,0.8180702666286379,H21R03,2021_Oct_13_1140,t1_Paradigm,2021.1.4,60.03422338814743,
F,right,Target,0,21,21,21,2145.514049365651,2147.5144920725143,right,1,4,0.5172474414575845,H21R03,2021_Oct_13_1140,t1_Paradigm,2021.1.4,60.03422338814743,
P,left,Distractor,0,22,22,22,2149.0140556213446,2151.0137665786315,left,1,4,0.8419693781761453,H21R03,2021_Oct_13_1140,t1_Paradigm,2021.1.4,60.03422338814743,
L,left,Pretarget,0,23,23,23,2152.514531210414,2154.513751661405,right,0,4,0.9741218605777249,H21R03,2021_Oct_13_1140,t1_Paradigm,2021.1.4,60.03422338814743,
T,left,Distractor,0,24,24,24,2156.0145198218524,2158.0138904082123,left,1,4,1.2660154813202098,H21R03,2021_Oct_13_1140,t1_Paradigm,2021.1.4,60.03422338814743,
F,left,Distractor,0,25,25,25,2159.5142456964822,2161.514594729175,right,0,4,0.9012067611329257,H21R03,2021_Oct_13_1140,t1_Paradigm,2021.1.4,60.03422338814743,
V,left,Distractor,0,26,26,26,2163.0140681326156,2165.01465712511,left,1,4,0.7772289568092674,H21R03,2021_Oct_13_1140,t1_Paradigm,2021.1.4,60.03422338814743,
L,right,Target,0,27,27,27,2166.5141074308194,2168.514895641478,None,0,4,,H21R03,2021_Oct_13_1140,t1_Paradigm,2021.1.4,60.03422338814743,
S,left,Pretarget,0,28,28,28,2170.0146304985974,2172.0141800924903,right,0,4,0.9456570941256359,H21R03,2021_Oct_13_1140,t1_Paradigm,2021.1.4,60.03422338814743,
W,left,Distractor,0,29,29,29,2173.513872282929,2175.516365556512,left,1,4,0.8194506778381765,H21R03,2021_Oct_13_1140,t1_Paradigm,2021.1.4,60.03422338814743,
Q,left,Distractor,0,30,30,30,2177.014668994816,2179.0138634608593,left,1,4,1.1939450536156073,H21R03,2021_Oct_13_1140,t1_Paradigm,2021.1.4,60.03422338814743,
L,right,Target,0,31,31,31,2180.514546288061,2182.5158420075895,right,1,4,1.1800604198360816,H21R03,2021_Oct_13_1140,t1_Paradigm,2021.1.4,60.03422338814743,
S,right,Target,0,32,32,32,2184.0137787691783,2186.0137434809003,right,1,4,1.361896158196032,H21R03,2021_Oct_13_1140,t1_Paradigm,2021.1.4,60.03422338814743,
Z,left,Pretarget,0,33,33,33,2187.5137657766463,2189.513682368095,left,1,4,0.7260395350167528,H21R03,2021_Oct_13_1140,t1_Paradigm,2021.1.4,60.03422338814743,
F,left,Distractor,0,34,34,34,2191.014113044832,2193.0158129750052,left,1,4,0.7759794327430427,H21R03,2021_Oct_13_1140,t1_Paradigm,2021.1.4,60.03422338814743,
V,left,Distractor,0,35,35,35,2194.513922328013,2196.5142177867237,left,1,4,0.9255104040494189,H21R03,2021_Oct_13_1140,t1_Paradigm,2021.1.4,60.03422338814743,
M,left,Distractor,0,36,36,36,2198.0140078217955,2200.013929866953,None,0,4,,H21R03,2021_Oct_13_1140,t1_Paradigm,2021.1.4,60.03422338814743,
Z,right,Target,0,37,37,37,2201.5138456564164,2203.5137795711635,right,1,4,1.221902952878736,H21R03,2021_Oct_13_1140,t1_Paradigm,2021.1.4,60.03422338814743,
H,left,Pretarget,0,38,38,38,2205.0139959520893,2207.01372230798,left,1,4,0.6981987284962088,H21R03,2021_Oct_13_1140,t1_Paradigm,2021.1.4,60.03422338814743,
L,left,Distractor,0,39,39,39,2208.5140391000314,2210.5137712302385,right,0,4,0.8619800480082631,H21R03,2021_Oct_13_1140,t1_Paradigm,2021.1.4,60.03422338814743,
G,left,Distractor,0,40,40,40,2212.013962909463,2214.015525536379,left,1,4,0.7361881081014872,H21R03,2021_Oct_13_1140,t1_Paradigm,2021.1.4,60.03422338814743,
K,left,Distractor,0,41,41,41,2215.513819350628,2217.5139922628878,left,1,4,0.7097848156699911,H21R03,2021_Oct_13_1140,t1_Paradigm,2021.1.4,60.03422338814743,
H,right,Target,0,42,42,42,2219.014643330709,2221.013928262866,right,1,4,0.8418009569868445,H21R03,2021_Oct_13_1140,t1_Paradigm,2021.1.4,60.03422338814743,
B,left,Distractor,0,43,43,43,2222.514623601339,2224.514091390767,left,1,4,0.7657596415374428,H21R03,2021_Oct_13_1140,t1_Paradigm,2021.1.4,60.03422338814743,
Z,left,Distractor,0,44,44,44,2226.0140058969846,2228.0137271200074,left,1,4,0.6899897247785702,H21R03,2021_Oct_13_1140,t1_Paradigm,2021.1.4,60.03422338814743,
T,left,Pretarget,0,45,45,45,2229.513776683947,2231.513772834325,left,1,4,1.3179892640328035,H21R03,2021_Oct_13_1140,t1_Paradigm,2021.1.4,60.03422338814743,
H,right,Target,0,46,46,46,2233.01379448839,2235.0149060675176,right,1,4,0.8088500946760178,H21R03,2021_Oct_13_1140,t1_Paradigm,2021.1.4,60.03422338814743,
F,left,Distractor,0,47,47,47,2236.513981034863,2238.5147336364025,left,1,4,0.6691337414085865,H21R03,2021_Oct_13_1140,t1_Paradigm,2021.1.4,60.03422338814743,
R,left,Distractor,0,48,48,48,2240.0140838519437,2242.0149156915722,left,1,4,0.6568778196815401,H21R03,2021_Oct_13_1140,t1_Paradigm,2021.1.4,60.03422338814743,
T,right,Target,0,49,49,49,2243.5141966138035,2245.514292533626,left,0,4,0.8535827333107591,H21R03,2021_Oct_13_1140,t1_Paradigm,2021.1.4,60.03422338814743,
H,right,Target,0,50,50,50,2247.014563450939,2249.013942698948,right,1,4,1.1300002213101834,H21R03,2021_Oct_13_1140,t1_Paradigm,2021.1.4,60.03422338814743,
Y,left,Pretarget,0,51,51,51,2250.51379304484,2252.5141449646326,left,1,4,1.0855322442948818,H21R03,2021_Oct_13_1140,t1_Paradigm,2021.1.4,60.03422338814743,
H,left,Distractor,0,52,52,52,2254.014060754096,2256.01436070411,left,1,4,0.9612884951056913,H21R03,2021_Oct_13_1140,t1_Paradigm,2021.1.4,60.03422338814743,
S,left,Distractor,0,53,53,53,2257.5137247139355,2259.5138334658695,right,0,4,1.15796902787406,H21R03,2021_Oct_13_1140,t1_Paradigm,2021.1.4,60.03422338814743,
Q,left,Distractor,0,54,54,54,2261.014551581233,2263.013735460816,left,1,4,0.6503918436355889,H21R03,2021_Oct_13_1140,t1_Paradigm,2021.1.4,60.03422338814743,
Y,right,Target,0,55,55,55,2264.5139008343685,2266.515837195562,right,1,4,0.7318255208665505,H21R03,2021_Oct_13_1140,t1_Paradigm,2021.1.4,60.03422338814743,
R,left,Distractor,0,56,56,56,2268.0138458167203,2270.0136668091873,left,1,4,0.9303089613094926,H21R03,2021_Oct_13_1140,t1_Paradigm,2021.1.4,60.03422338814743,
H,left,Pretarget,0,57,57,57,2271.5140160023,2273.51445261389,left,1,4,0.6453526850091293,H21R03,2021_Oct_13_1140,t1_Paradigm,2021.1.4,60.03422338814743,
J,left,Distractor,0,58,58,58,2275.0139468694106,2277.0163227294106,None,0,4,,H21R03,2021_Oct_13_1140,t1_Paradigm,2021.1.4,60.03422338814743,
V,left,Distractor,0,59,59,59,2278.5136406638194,2280.5136807641247,left,1,4,0.8302815968636423,H21R03,2021_Oct_13_1140,t1_Paradigm,2021.1.4,60.03422338814743,
Y,left,Lure,0,60,60,60,2282.014065886964,2284.0147841627477,left,1,4,0.7209512935951352,H21R03,2021_Oct_13_1140,t1_Paradigm,2021.1.4,60.03422338814743,
H,right,Target,0,61,61,61,2285.5140836915234,2287.514632262988,left,0,4,0.8850777961779386,H21R03,2021_Oct_13_1140,t1_Paradigm,2021.1.4,60.03422338814743,
L,left,Distractor,0,62,62,62,2289.014062358183,2291.0157311704243,left,1,4,0.8559852199396119,H21R03,2021_Oct_13_1140,t1_Paradigm,2021.1.4,60.03422338814743,
P,left,Distractor,0,63,63,63,2292.5146194308763,2294.527011052007,left,1,4,0.5446439370280132,H21R03,2021_Oct_13_1140,t1_Paradigm,2021.1.4,60.03422338814743,
