Letter,CorrAnswer,Stimulus,nback_run.thisRepN,nback_run.thisTrialN,nback_run.thisN,nback_run.thisIndex,fixcross.started,nback_trial.started,trial_resp.keys,trial_resp.corr,currentlevel,trial_resp.rt,Participant,date,expName,psychopyVersion,frameRate,
H,left,Distractor,0,0,0,0,244.508514567744,246.51503711519763,None,0,1,,M05D02,2021_Oct_07_1538,t1_Paradigm,2021.1.4,60.003715103474455,
Q,left,Pretarget,0,1,1,1,248.00210799032357,250.0040190081345,left,1,1,0.7996918375138193,M05D02,2021_Oct_07_1538,t1_Paradigm,2021.1.4,60.003715103474455,
Q,right,Target,0,2,2,2,251.50184926344082,253.50205970962998,right,1,1,0.6777957177255303,M05D02,2021_Oct_07_1538,t1_Paradigm,2021.1.4,60.003715103474455,
T,left,Distractor,0,3,3,3,255.00209644145798,257.0027082109591,left,1,1,0.4250855017453432,M05D02,2021_Oct_07_1538,t1_Paradigm,2021.1.4,60.003715103474455,
Q,left,Lure,0,4,4,4,258.5021257948829,260.5023750580149,left,1,1,0.7974882482085377,M05D02,2021_Oct_07_1538,t1_Paradigm,2021.1.4,60.003715103474455,
L,left,Distractor,0,5,5,5,262.00208457175177,264.00301714334637,left,1,1,0.5447350448230281,M05D02,2021_Oct_07_1538,t1_Paradigm,2021.1.4,60.003715103474455,
V,left,Pretarget,0,6,6,6,265.5022451331606,267.5040377750993,left,1,1,0.6437634315807372,M05D02,2021_Oct_07_1538,t1_Paradigm,2021.1.4,60.003715103474455,
V,right,Target,0,7,7,7,269.0020425467519,271.0019892936107,right,1,1,0.6657056505791843,M05D02,2021_Oct_07_1538,t1_Paradigm,2021.1.4,60.003715103474455,
K,left,Distractor,0,8,8,8,272.50189802539535,274.5025473287096,left,1,1,0.4132889686152339,M05D02,2021_Oct_07_1538,t1_Paradigm,2021.1.4,60.003715103474455,
G,left,Pretarget,0,9,9,9,276.00194213562645,278.00244387006387,left,1,1,0.4653111924417317,M05D02,2021_Oct_07_1538,t1_Paradigm,2021.1.4,60.003715103474455,
G,right,Target,0,10,10,10,279.5018794188509,281.5022826670902,right,1,1,0.6300260459538549,M05D02,2021_Oct_07_1538,t1_Paradigm,2021.1.4,60.003715103474455,
G,right,Target,0,11,11,11,283.00277205056045,285.0024297548225,right,1,1,0.4572959530632943,M05D02,2021_Oct_07_1538,t1_Paradigm,2021.1.4,60.003715103474455,
P,left,Pretarget,0,12,12,12,286.50281744403765,288.50309333379846,left,1,1,0.9406724716536701,M05D02,2021_Oct_07_1538,t1_Paradigm,2021.1.4,60.003715103474455,
P,right,Target,0,13,13,13,290.00279258191586,292.00230271718465,right,1,1,0.8333699583308771,M05D02,2021_Oct_07_1538,t1_Paradigm,2021.1.4,60.003715103474455,
G,left,Lure,0,14,14,14,293.50219893769827,295.50154642632697,left,1,1,0.7101556628476828,M05D02,2021_Oct_07_1538,t1_Paradigm,2021.1.4,60.003715103474455,
Y,left,Distractor,0,15,15,15,297.00275986013,299.0028371734079,left,1,1,0.6168933721492067,M05D02,2021_Oct_07_1538,t1_Paradigm,2021.1.4,60.003715103474455,
B,left,Distractor,0,16,16,16,300.5022756094113,302.5019224063726,left,1,1,0.4617085853824392,M05D02,2021_Oct_07_1538,t1_Paradigm,2021.1.4,60.003715103474455,
T,left,Pretarget,0,17,17,17,304.00213718332816,306.0023588575423,left,1,1,0.44969454838428646,M05D02,2021_Oct_07_1538,t1_Paradigm,2021.1.4,60.003715103474455,
T,right,Target,0,18,18,18,307.50193010561634,309.5024526921334,right,1,1,0.5974036847474054,M05D02,2021_Oct_07_1538,t1_Paradigm,2021.1.4,60.003715103474455,
S,left,Distractor,0,19,19,19,311.00200533366296,313.002384200925,left,1,1,0.5854496377287433,M05D02,2021_Oct_07_1538,t1_Paradigm,2021.1.4,60.003715103474455,
T,left,Lure,0,20,20,20,314.50269874732476,316.50185118825175,left,1,1,0.5418359565082937,M05D02,2021_Oct_07_1538,t1_Paradigm,2021.1.4,60.003715103474455,
J,left,Distractor,0,21,21,21,318.00211344391573,320.0019074890297,left,1,1,0.5300050975056365,M05D02,2021_Oct_07_1538,t1_Paradigm,2021.1.4,60.003715103474455,
P,left,Distractor,0,22,22,22,321.50212804041803,323.50190668704454,left,1,1,0.533724476583302,M05D02,2021_Oct_07_1538,t1_Paradigm,2021.1.4,60.003715103474455,
F,left,Distractor,0,23,23,23,325.0020524915308,327.00408284773584,left,1,1,0.4875854415586218,M05D02,2021_Oct_07_1538,t1_Paradigm,2021.1.4,60.003715103474455,
L,left,Distractor,0,24,24,24,328.5019089326961,330.5018986669602,left,1,1,0.47807558544445783,M05D02,2021_Oct_07_1538,t1_Paradigm,2021.1.4,60.003715103474455,
W,left,Pretarget,0,25,25,25,332.0021038198611,334.00393303320743,left,1,1,0.4799779417226091,M05D02,2021_Oct_07_1538,t1_Paradigm,2021.1.4,60.003715103474455,
W,right,Target,0,26,26,26,335.50227496784646,337.5021585166687,right,1,1,0.9977396287722513,M05D02,2021_Oct_07_1538,t1_Paradigm,2021.1.4,60.003715103474455,
V,left,Distractor,0,27,27,27,339.0020585868042,341.00243745406624,left,1,1,0.553326123743318,M05D02,2021_Oct_07_1538,t1_Paradigm,2021.1.4,60.003715103474455,
W,left,Lure,0,28,28,28,342.50212515320163,344.50245974981226,left,1,1,0.5252716632094234,M05D02,2021_Oct_07_1538,t1_Paradigm,2021.1.4,60.003715103474455,
R,left,Pretarget,0,29,29,29,346.00192577473354,348.0030187473167,left,1,1,0.5128251849673688,M05D02,2021_Oct_07_1538,t1_Paradigm,2021.1.4,60.003715103474455,
R,right,Target,0,30,30,30,349.5021174539579,351.5021992585389,right,1,1,0.5655948776984587,M05D02,2021_Oct_07_1538,t1_Paradigm,2021.1.4,60.003715103474455,
G,left,Distractor,0,31,31,31,353.00210157432593,355.00257411575876,left,1,1,0.4891698829596862,M05D02,2021_Oct_07_1538,t1_Paradigm,2021.1.4,60.003715103474455,
R,left,Lure,0,32,32,32,356.50193331355695,358.50264324853197,left,1,1,0.7651167543372139,M05D02,2021_Oct_07_1538,t1_Paradigm,2021.1.4,60.003715103474455,
S,left,Distractor,0,33,33,33,360.0021243512165,362.00242622592486,left,1,1,0.48147769120987505,M05D02,2021_Oct_07_1538,t1_Paradigm,2021.1.4,60.003715103474455,
R,left,Lure,0,34,34,34,363.50232886255253,365.50234811066184,left,1,1,0.4533122330904007,M05D02,2021_Oct_07_1538,t1_Paradigm,2021.1.4,60.003715103474455,
P,left,Pretarget,0,35,35,35,367.00218722841237,369.00250514328945,left,1,1,0.5051528830081224,M05D02,2021_Oct_07_1538,t1_Paradigm,2021.1.4,60.003715103474455,
P,right,Target,0,36,36,36,370.5019560905639,372.502209844999,right,1,1,0.44602296873927116,M05D02,2021_Oct_07_1538,t1_Paradigm,2021.1.4,60.003715103474455,
Y,left,Pretarget,0,37,37,37,374.00220904301386,376.0026507873554,left,1,1,0.41701829247176647,M05D02,2021_Oct_07_1538,t1_Paradigm,2021.1.4,60.003715103474455,
Y,right,Target,0,38,38,38,377.5022871582769,379.5020956394728,right,1,1,0.597796346526593,M05D02,2021_Oct_07_1538,t1_Paradigm,2021.1.4,60.003715103474455,
J,left,Distractor,0,39,39,39,381.00277333380654,383.0019049226539,left,1,1,0.521793527295813,M05D02,2021_Oct_07_1538,t1_Paradigm,2021.1.4,60.003715103474455,
Y,left,Lure,0,40,40,40,384.50211649155244,386.5030173037667,left,1,1,0.49268747749738395,M05D02,2021_Oct_07_1538,t1_Paradigm,2021.1.4,60.003715103474455,
T,left,Distractor,0,41,41,41,388.00221513817087,390.00310215586796,left,1,1,0.5926301502622664,M05D02,2021_Oct_07_1538,t1_Paradigm,2021.1.4,60.003715103474455,
V,left,Distractor,0,42,42,42,391.501898346236,393.50220278732013,left,1,1,0.4535432105185464,M05D02,2021_Oct_07_1538,t1_Paradigm,2021.1.4,60.003715103474455,
N,left,Pretarget,0,43,43,43,395.0020980454283,397.0031069678953,left,1,1,0.5205577977467328,M05D02,2021_Oct_07_1538,t1_Paradigm,2021.1.4,60.003715103474455,
N,right,Target,0,44,44,44,398.50208986504003,400.50223101791926,right,1,1,0.3976331865414977,M05D02,2021_Oct_07_1538,t1_Paradigm,2021.1.4,60.003715103474455,
N,right,Target,0,45,45,45,402.0022125717951,404.0022023061756,right,1,1,0.5614453031448647,M05D02,2021_Oct_07_1538,t1_Paradigm,2021.1.4,60.003715103474455,
X,left,Distractor,0,46,46,46,405.50209178985097,407.50427613104694,left,1,1,0.5635202508419752,M05D02,2021_Oct_07_1538,t1_Paradigm,2021.1.4,60.003715103474455,
Z,left,Distractor,0,47,47,47,409.0022023061756,411.0036131935194,left,1,1,0.600109008490108,M05D02,2021_Oct_07_1538,t1_Paradigm,2021.1.4,60.003715103474455,
H,left,Pretarget,0,48,48,48,412.50204014068004,414.5030150581151,left,1,1,0.47694764542393386,M05D02,2021_Oct_07_1538,t1_Paradigm,2021.1.4,60.003715103474455,
H,right,Target,0,49,49,49,416.0021814539796,418.00214295776095,right,1,1,0.43358675634954125,M05D02,2021_Oct_07_1538,t1_Paradigm,2021.1.4,60.003715103474455,
K,left,Distractor,0,50,50,50,419.50209724344313,421.50257908809,left,1,1,0.5171232909196988,M05D02,2021_Oct_07_1538,t1_Paradigm,2021.1.4,60.003715103474455,
V,left,Pretarget,0,51,51,51,423.0021804915741,425.00244483246934,left,1,1,0.4412382061127573,M05D02,2021_Oct_07_1538,t1_Paradigm,2021.1.4,60.003715103474455,
V,right,Target,0,52,52,52,426.50214760936797,428.5021309276344,right,1,1,0.557582525536418,M05D02,2021_Oct_07_1538,t1_Paradigm,2021.1.4,60.003715103474455,
R,left,Distractor,0,53,53,53,430.0028695743531,432.0031980756903,left,1,1,0.5127481925301254,M05D02,2021_Oct_07_1538,t1_Paradigm,2021.1.4,60.003715103474455,
V,left,Lure,0,54,54,54,433.50222171470523,435.5027449427871,left,1,1,0.4530161328148097,M05D02,2021_Oct_07_1538,t1_Paradigm,2021.1.4,60.003715103474455,
Y,left,Distractor,0,55,55,55,437.00217535870615,439.0040013641119,left,1,1,0.551801351713948,M05D02,2021_Oct_07_1538,t1_Paradigm,2021.1.4,60.003715103474455,
Q,left,Distractor,0,56,56,56,440.50238019088283,442.50280108314473,left,1,1,0.46087000879924744,M05D02,2021_Oct_07_1538,t1_Paradigm,2021.1.4,60.003715103474455,
Z,left,Pretarget,0,57,57,57,444.0021352585172,446.0027431783965,left,1,1,0.5450462227454409,M05D02,2021_Oct_07_1538,t1_Paradigm,2021.1.4,60.003715103474455,
Z,right,Target,0,58,58,58,447.5025851833634,449.50238756928593,right,1,1,0.45344151637982577,M05D02,2021_Oct_07_1538,t1_Paradigm,2021.1.4,60.003715103474455,
B,left,Distractor,0,59,59,59,451.0028573839227,453.0017313687131,left,1,1,0.42602448945399374,M05D02,2021_Oct_07_1538,t1_Paradigm,2021.1.4,60.003715103474455,
S,left,Pretarget,0,60,60,60,454.50229421595577,456.50184798031114,left,1,1,0.5740223476896062,M05D02,2021_Oct_07_1538,t1_Paradigm,2021.1.4,60.003715103474455,
S,right,Target,0,61,61,61,458.00214167451486,460.00220872217324,right,1,1,0.513675952097401,M05D02,2021_Oct_07_1538,t1_Paradigm,2021.1.4,60.003715103474455,
T,left,Distractor,0,62,62,62,461.50211777479853,463.5018784564454,left,1,1,0.614010003162548,M05D02,2021_Oct_07_1538,t1_Paradigm,2021.1.4,60.003715103474455,
D,left,Distractor,0,63,63,63,465.0019225667929,467.0043093340937,left,1,1,0.4393663260852918,M05D02,2021_Oct_07_1538,t1_Paradigm,2021.1.4,60.003715103474455,
R,left,Distractor,0,0,0,0,484.87206766870804,486.8691971319495,left,1,1,0.8147124315146357,M05D02,2021_Oct_07_1538,t1_Paradigm,2021.1.4,60.003715103474455,
V,left,Distractor,0,1,1,1,488.36889477598015,490.3692941744812,left,1,1,0.5790868498152122,M05D02,2021_Oct_07_1538,t1_Paradigm,2021.1.4,60.003715103474455,
N,left,Pretarget,0,2,2,2,491.86899021454155,493.8693353976123,left,1,1,0.6943481414346024,M05D02,2021_Oct_07_1538,t1_Paradigm,2021.1.4,60.003715103474455,
N,right,Target,0,3,3,3,495.36888322711457,497.3691010517068,right,1,1,0.5386526377405971,M05D02,2021_Oct_07_1538,t1_Paradigm,2021.1.4,60.003715103474455,
S,left,Distractor,0,4,4,4,498.8694816833595,500.8684426054824,left,1,1,0.4799256509868428,M05D02,2021_Oct_07_1538,t1_Paradigm,2021.1.4,60.003715103474455,
N,left,Lure,0,5,5,5,502.3688145754859,504.3693294627592,left,1,1,0.7063634616788477,M05D02,2021_Oct_07_1538,t1_Paradigm,2021.1.4,60.003715103474455,
Z,left,Distractor,0,6,6,6,505.868788430118,507.86983649036847,left,1,1,0.5179541682591662,M05D02,2021_Oct_07_1538,t1_Paradigm,2021.1.4,60.003715103474455,
L,left,Pretarget,0,7,7,7,509.3688870767364,511.36838726710994,left,1,1,0.6513905004831031,M05D02,2021_Oct_07_1538,t1_Paradigm,2021.1.4,60.003715103474455,
L,right,Target,0,8,8,8,512.8687967709266,514.8691842998378,right,1,1,0.3506183619610965,M05D02,2021_Oct_07_1538,t1_Paradigm,2021.1.4,60.003715103474455,
H,left,Distractor,0,9,9,9,516.3695078287274,518.3686381343286,left,1,1,0.4031060697743669,M05D02,2021_Oct_07_1538,t1_Paradigm,2021.1.4,60.003715103474455,
L,left,Lure,0,10,10,10,519.8687095127534,521.8690569413593,left,1,1,0.4066381002776325,M05D02,2021_Oct_07_1538,t1_Paradigm,2021.1.4,60.003715103474455,
X,left,Pretarget,0,11,11,11,523.3688713574084,525.3690327208024,left,1,1,0.5226317830383778,M05D02,2021_Oct_07_1538,t1_Paradigm,2021.1.4,60.003715103474455,
X,right,Target,0,12,12,12,526.8687778436579,528.8687435177853,right,1,1,0.5909716035239398,M05D02,2021_Oct_07_1538,t1_Paradigm,2021.1.4,60.003715103474455,
X,right,Target,0,13,13,13,530.3694882597774,532.3689095329028,right,1,1,0.5787891454529017,M05D02,2021_Oct_07_1538,t1_Paradigm,2021.1.4,60.003715103474455,
R,left,Distractor,0,14,14,14,533.8688930115895,535.8685994776897,left,1,1,0.42312604282051325,M05D02,2021_Oct_07_1538,t1_Paradigm,2021.1.4,60.003715103474455,
T,left,Distractor,0,15,15,15,537.3689246105496,539.3683612821624,left,1,1,0.4753680161666125,M05D02,2021_Oct_07_1538,t1_Paradigm,2021.1.4,60.003715103474455,
V,left,Pretarget,0,16,16,16,540.8689206005074,542.8683447608491,left,1,1,0.5753857565578073,M05D02,2021_Oct_07_1538,t1_Paradigm,2021.1.4,60.003715103474455,
V,right,Target,0,17,17,17,544.3688241995405,546.3688793774927,right,1,1,0.5631378546822816,M05D02,2021_Oct_07_1538,t1_Paradigm,2021.1.4,60.003715103474455,
N,left,Distractor,0,18,18,18,547.8692346657626,549.8686254626373,left,1,1,0.4390772833721712,M05D02,2021_Oct_07_1538,t1_Paradigm,2021.1.4,60.003715103474455,
B,left,Distractor,0,19,19,19,551.3688193875132,553.3688963799505,left,1,1,0.5068043720675632,M05D02,2021_Oct_07_1538,t1_Paradigm,2021.1.4,60.003715103474455,
V,left,Lure,0,20,20,20,554.868761482765,556.8691259138286,left,1,1,0.41478935978375375,M05D02,2021_Oct_07_1538,t1_Paradigm,2021.1.4,60.003715103474455,
P,left,Distractor,0,21,21,21,558.3687529814197,560.3690497233765,left,1,1,0.46670539816841483,M05D02,2021_Oct_07_1538,t1_Paradigm,2021.1.4,60.003715103474455,
K,left,Pretarget,0,22,22,22,561.8688240391202,563.8684018636122,left,1,1,0.47134772478602827,M05D02,2021_Oct_07_1538,t1_Paradigm,2021.1.4,60.003715103474455,
K,right,Target,0,23,23,23,565.3689496330917,567.3688857934903,right,1,1,0.6989542174851522,M05D02,2021_Oct_07_1538,t1_Paradigm,2021.1.4,60.003715103474455,
J,left,Pretarget,0,24,24,24,568.8688676682068,570.8692661043024,left,1,1,0.7024599422002211,M05D02,2021_Oct_07_1538,t1_Paradigm,2021.1.4,60.003715103474455,
J,right,Target,0,25,25,25,572.3688222747296,574.368830294814,right,1,1,0.5631006417097524,M05D02,2021_Oct_07_1538,t1_Paradigm,2021.1.4,60.003715103474455,
H,left,Distractor,0,26,26,26,575.8688275679015,577.8693126206053,left,1,1,0.48647899529896677,M05D02,2021_Oct_07_1538,t1_Paradigm,2021.1.4,60.003715103474455,
J,left,Lure,0,27,27,27,579.3686281894334,581.3685380440438,left,1,1,0.7634306186810136,M05D02,2021_Oct_07_1538,t1_Paradigm,2021.1.4,60.003715103474455,
V,left,Distractor,0,28,28,28,582.8689436982386,584.8682786755962,left,1,1,0.703495170455426,M05D02,2021_Oct_07_1538,t1_Paradigm,2021.1.4,60.003715103474455,
Z,left,Pretarget,0,29,29,29,586.3687115979847,588.3688335027546,left,1,1,0.4670669420156628,M05D02,2021_Oct_07_1538,t1_Paradigm,2021.1.4,60.003715103474455,
Z,right,Target,0,30,30,30,589.8688294927124,591.868856760906,right,1,1,0.5671267075231299,M05D02,2021_Oct_07_1538,t1_Paradigm,2021.1.4,60.003715103474455,
T,left,Distractor,0,31,31,31,593.3689169113059,595.3704192274017,left,1,1,0.5372343718772754,M05D02,2021_Oct_07_1538,t1_Paradigm,2021.1.4,60.003715103474455,
Z,left,Lure,0,32,32,32,596.8694986858172,598.8687191368081,left,1,1,0.49493501672986895,M05D02,2021_Oct_07_1538,t1_Paradigm,2021.1.4,60.003715103474455,
F,left,Distractor,0,33,33,33,600.3687061443925,602.3686358886771,left,1,1,0.4832712955540046,M05D02,2021_Oct_07_1538,t1_Paradigm,2021.1.4,60.003715103474455,
Y,left,Pretarget,0,34,34,34,603.8687573123025,605.8689777032705,left,1,1,0.48679017333779484,M05D02,2021_Oct_07_1538,t1_Paradigm,2021.1.4,60.003715103474455,
Y,right,Target,0,35,35,35,607.3693551269826,609.3690741043538,right,1,1,0.6027094300370663,M05D02,2021_Oct_07_1538,t1_Paradigm,2021.1.4,60.003715103474455,
Y,right,Target,0,36,36,36,610.868695397512,612.8684679488651,right,1,1,0.6073305836180225,M05D02,2021_Oct_07_1538,t1_Paradigm,2021.1.4,60.003715103474455,
W,left,Distractor,0,37,37,37,614.3693413324654,616.3685168711236,left,1,1,0.5951763561461121,M05D02,2021_Oct_07_1538,t1_Paradigm,2021.1.4,60.003715103474455,
Q,left,Distractor,0,38,38,38,617.868817302282,619.8689607008127,left,1,1,0.43871958926320076,M05D02,2021_Oct_07_1538,t1_Paradigm,2021.1.4,60.003715103474455,
P,left,Pretarget,0,39,39,39,621.3686387758935,623.3689839589642,left,1,1,0.44280339928809553,M05D02,2021_Oct_07_1538,t1_Paradigm,2021.1.4,60.003715103474455,
P,right,Target,0,40,40,40,624.8687958085211,626.8688699138584,right,1,1,0.6869549372931942,M05D02,2021_Oct_07_1538,t1_Paradigm,2021.1.4,60.003715103474455,
J,left,Distractor,0,41,41,41,628.3688001394039,630.3686243398115,left,1,1,0.5312972882529721,M05D02,2021_Oct_07_1538,t1_Paradigm,2021.1.4,60.003715103474455,
P,left,Lure,0,42,42,42,631.8688577233115,633.8695307660382,left,1,1,0.4862711156019941,M05D02,2021_Oct_07_1538,t1_Paradigm,2021.1.4,60.003715103474455,
L,left,Distractor,0,43,43,43,635.368807517807,637.3697500342969,left,1,1,0.5059693242656067,M05D02,2021_Oct_07_1538,t1_Paradigm,2021.1.4,60.003715103474455,
Z,left,Distractor,0,44,44,44,638.8688654225552,640.8685212020064,left,1,1,0.4794309741118923,M05D02,2021_Oct_07_1538,t1_Paradigm,2021.1.4,60.003715103474455,
F,left,Pretarget,0,45,45,45,642.3686047708616,644.3690968812443,left,1,1,0.4506941675208509,M05D02,2021_Oct_07_1538,t1_Paradigm,2021.1.4,60.003715103474455,
F,right,Target,0,46,46,46,645.868591778446,647.8690271067899,left,0,1,0.47074237128254026,M05D02,2021_Oct_07_1538,t1_Paradigm,2021.1.4,60.003715103474455,
G,left,Pretarget,0,47,47,47,649.369426344987,651.3691565504996,left,1,1,0.5385332993464544,M05D02,2021_Oct_07_1538,t1_Paradigm,2021.1.4,60.003715103474455,
G,right,Target,0,48,48,48,652.8687810515985,654.8687496130588,right,1,1,0.5270482649793848,M05D02,2021_Oct_07_1538,t1_Paradigm,2021.1.4,60.003715103474455,
V,left,Distractor,0,49,49,49,656.3688113674289,658.369141793577,left,1,1,0.43465951830148697,M05D02,2021_Oct_07_1538,t1_Paradigm,2021.1.4,60.003715103474455,
G,left,Lure,0,50,50,50,659.8687476882478,661.869536540471,left,1,1,0.45417615305632353,M05D02,2021_Oct_07_1538,t1_Paradigm,2021.1.4,60.003715103474455,
Q,left,Pretarget,0,51,51,51,663.3687077483628,665.3688790566521,left,1,1,0.5068874597782269,M05D02,2021_Oct_07_1538,t1_Paradigm,2021.1.4,60.003715103474455,
Q,right,Target,0,52,52,52,666.8687435177853,668.8687881092774,right,1,1,0.44712011190131307,M05D02,2021_Oct_07_1538,t1_Paradigm,2021.1.4,60.003715103474455,
Y,left,Distractor,0,53,53,53,670.3687048611464,672.3688886807067,left,1,1,0.5630448221927509,M05D02,2021_Oct_07_1538,t1_Paradigm,2021.1.4,60.003715103474455,
V,left,Distractor,0,54,54,54,673.868727477733,675.8688808210427,left,1,1,0.6150721788872033,M05D02,2021_Oct_07_1538,t1_Paradigm,2021.1.4,60.003715103474455,
B,left,Distractor,0,55,55,55,677.3687003699597,679.3688392771874,left,1,1,0.6029224426019937,M05D02,2021_Oct_07_1538,t1_Paradigm,2021.1.4,60.003715103474455,
J,left,Pretarget,0,56,56,56,680.8694733424345,682.8710074179107,left,1,1,0.46093128190841526,M05D02,2021_Oct_07_1538,t1_Paradigm,2021.1.4,60.003715103474455,
J,right,Target,0,57,57,57,684.3686631568708,686.3688084802125,right,1,1,0.5151516414480284,M05D02,2021_Oct_07_1538,t1_Paradigm,2021.1.4,60.003715103474455,
H,left,Distractor,0,58,58,58,687.8687194576487,689.8698525305372,left,1,1,0.5499763088300824,M05D02,2021_Oct_07_1538,t1_Paradigm,2021.1.4,60.003715103474455,
J,left,Lure,0,59,59,59,691.3686978034675,693.3689656732604,left,1,1,0.5707283521769568,M05D02,2021_Oct_07_1538,t1_Paradigm,2021.1.4,60.003715103474455,
D,left,Pretarget,0,60,60,60,694.8687053424073,696.8703388664871,left,1,1,0.5574410518165678,M05D02,2021_Oct_07_1538,t1_Paradigm,2021.1.4,60.003715103474455,
D,right,Target,0,61,61,61,698.3687003699597,700.3685896932147,right,1,1,0.46723183430731297,M05D02,2021_Oct_07_1538,t1_Paradigm,2021.1.4,60.003715103474455,
R,left,Distractor,0,62,62,62,701.8688484200975,703.8691409915918,left,1,1,0.6945255449973047,M05D02,2021_Oct_07_1538,t1_Paradigm,2021.1.4,60.003715103474455,
F,left,Distractor,0,63,63,63,705.3687003699597,707.3686984451488,left,1,1,0.6510995329590514,M05D02,2021_Oct_07_1538,t1_Paradigm,2021.1.4,60.003715103474455,
F,left,Distractor,0,0,0,0,780.104775234824,782.1023089087103,None,0,2,,M05D02,2021_Oct_07_1538,t1_Paradigm,2021.1.4,60.003715103474455,
N,left,Pretarget,0,1,1,1,783.6025070039323,785.6041020317934,None,0,2,,M05D02,2021_Oct_07_1538,t1_Paradigm,2021.1.4,60.003715103474455,
V,left,Distractor,0,2,2,2,787.1020166579401,789.1021565276897,left,1,2,0.5978255395311862,M05D02,2021_Oct_07_1538,t1_Paradigm,2021.1.4,60.003715103474455,
N,right,Target,0,3,3,3,790.6021027932875,792.6023071442032,right,1,2,1.0175096970051527,M05D02,2021_Oct_07_1538,t1_Paradigm,2021.1.4,60.003715103474455,
N,left,Lure,0,4,4,4,794.1020051090745,796.1019685376668,left,1,2,1.053956018644385,M05D02,2021_Oct_07_1538,t1_Paradigm,2021.1.4,60.003715103474455,
X,left,Distractor,0,5,5,5,797.6022869336884,799.6023507732898,left,1,2,0.7374629754340276,M05D02,2021_Oct_07_1538,t1_Paradigm,2021.1.4,60.003715103474455,
G,left,Pretarget,0,6,6,6,801.1020817807876,803.1023201367352,left,1,2,1.2694897674955428,M05D02,2021_Oct_07_1538,t1_Paradigm,2021.1.4,60.003715103474455,
H,left,Pretarget,0,7,7,7,804.6021175502101,806.6023526981007,left,1,2,0.6174615125637501,M05D02,2021_Oct_07_1538,t1_Paradigm,2021.1.4,60.003715103474455,
G,right,Target,0,8,8,8,808.1021125777625,810.1024462119676,right,1,2,0.5732719916850328,M05D02,2021_Oct_07_1538,t1_Paradigm,2021.1.4,60.003715103474455,
H,right,Target,0,9,9,9,811.6020841868594,813.6044016608503,right,1,2,1.3754301554290578,M05D02,2021_Oct_07_1538,t1_Paradigm,2021.1.4,60.003715103474455,
T,left,Pretarget,0,10,10,10,815.1020070338855,817.1039834953845,left,1,2,0.9158343723975122,M05D02,2021_Oct_07_1538,t1_Paradigm,2021.1.4,60.003715103474455,
K,left,Distractor,0,11,11,11,818.6020697507774,820.6022548534675,left,1,2,1.0655308776767924,M05D02,2021_Oct_07_1538,t1_Paradigm,2021.1.4,60.003715103474455,
T,right,Target,0,12,12,12,822.1019377406919,824.1019431942841,right,1,2,0.6217458239989355,M05D02,2021_Oct_07_1538,t1_Paradigm,2021.1.4,60.003715103474455,
T,left,Lure,0,13,13,13,825.6019131992944,827.6020383121213,left,1,2,1.1856523205060512,M05D02,2021_Oct_07_1538,t1_Paradigm,2021.1.4,60.003715103474455,
J,left,Distractor,0,14,14,14,829.1020570790861,831.1023522169562,left,1,2,0.7254851890029386,M05D02,2021_Oct_07_1538,t1_Paradigm,2021.1.4,60.003715103474455,
Q,left,Pretarget,0,15,15,15,832.6020578810712,834.6018070138525,left,1,2,0.7141964854672551,M05D02,2021_Oct_07_1538,t1_Paradigm,2021.1.4,60.003715103474455,
M,left,Distractor,0,16,16,16,836.1021606981521,838.1032507835189,left,1,2,0.7006265585077927,M05D02,2021_Oct_07_1538,t1_Paradigm,2021.1.4,60.003715103474455,
Q,right,Target,0,17,17,17,839.6022699312307,841.6025387633126,right,1,2,0.46534712228458375,M05D02,2021_Oct_07_1538,t1_Paradigm,2021.1.4,60.003715103474455,
R,left,Distractor,0,18,18,18,843.1021414499264,845.1025726079242,left,1,2,0.6611627727979794,M05D02,2021_Oct_07_1538,t1_Paradigm,2021.1.4,60.003715103474455,
W,left,Distractor,0,19,19,19,846.6019651693059,848.6019680565223,left,1,2,0.5699257054366171,M05D02,2021_Oct_07_1538,t1_Paradigm,2021.1.4,60.003715103474455,
C,left,Pretarget,0,20,20,20,850.1022267832886,852.1043893099995,left,1,2,0.6833205707371235,M05D02,2021_Oct_07_1538,t1_Paradigm,2021.1.4,60.003715103474455,
T,left,Distractor,0,21,21,21,853.6019353346201,855.6018836855656,left,1,2,0.5301122454693541,M05D02,2021_Oct_07_1538,t1_Paradigm,2021.1.4,60.003715103474455,
C,right,Target,0,22,22,22,857.1019993346417,859.1025312244892,right,1,2,0.9172898514661938,M05D02,2021_Oct_07_1538,t1_Paradigm,2021.1.4,60.003715103474455,
F,left,Pretarget,0,23,23,23,860.6021579712396,862.6028711142717,left,1,2,0.7769954128889367,M05D02,2021_Oct_07_1538,t1_Paradigm,2021.1.4,60.003715103474455,
C,right,Target,0,24,24,24,864.1027397458674,866.1021132194437,right,1,2,0.8778446720680222,M05D02,2021_Oct_07_1538,t1_Paradigm,2021.1.4,60.003715103474455,
F,right,Target,0,25,25,25,867.6026561768958,869.6021682369756,right,1,2,0.9615650264313444,M05D02,2021_Oct_07_1538,t1_Paradigm,2021.1.4,60.003715103474455,
H,left,Distractor,0,26,26,26,871.1020160163753,873.1024077156326,left,1,2,0.533298772177659,M05D02,2021_Oct_07_1538,t1_Paradigm,2021.1.4,60.003715103474455,
H,left,Lure,0,27,27,27,874.6020999060711,876.6021820314927,left,1,2,0.9215677469037473,M05D02,2021_Oct_07_1538,t1_Paradigm,2021.1.4,60.003715103474455,
P,left,Distractor,0,28,28,28,878.1019611592637,880.1022623924073,left,1,2,0.5575773926684633,M05D02,2021_Oct_07_1538,t1_Paradigm,2021.1.4,60.003715103474455,
G,left,Pretarget,0,29,29,29,881.6028707934311,883.6019359763013,left,1,2,0.6898235492408276,M05D02,2021_Oct_07_1538,t1_Paradigm,2021.1.4,60.003715103474455,
K,left,Distractor,0,30,30,30,885.102164547774,887.1024362670723,left,1,2,0.6458079031435773,M05D02,2021_Oct_07_1538,t1_Paradigm,2021.1.4,60.003715103474455,
G,right,Target,0,31,31,31,888.6020931692328,890.6026930691442,right,1,2,0.729246913921088,M05D02,2021_Oct_07_1538,t1_Paradigm,2021.1.4,60.003715103474455,
M,left,Pretarget,0,32,32,32,892.1021238059038,894.1027083072113,left,1,2,0.5730548086576164,M05D02,2021_Oct_07_1538,t1_Paradigm,2021.1.4,60.003715103474455,
B,left,Distractor,0,33,33,33,895.6021791442763,897.6018567382125,left,1,2,0.7218973388662562,M05D02,2021_Oct_07_1538,t1_Paradigm,2021.1.4,60.003715103474455,
M,right,Target,0,34,34,34,899.1019759160699,901.1023451592773,right,1,2,0.485378002631478,M05D02,2021_Oct_07_1538,t1_Paradigm,2021.1.4,60.003715103474455,
M,left,Lure,0,35,35,35,902.6021441768389,904.6021072845906,left,1,2,1.0657993889180943,M05D02,2021_Oct_07_1538,t1_Paradigm,2021.1.4,60.003715103474455,
T,left,Distractor,0,36,36,36,906.1021937406622,908.10254213179,left,1,2,0.6532739293761551,M05D02,2021_Oct_07_1538,t1_Paradigm,2021.1.4,60.003715103474455,
F,left,Distractor,0,37,37,37,909.6022384925745,911.6023247883422,left,1,2,0.5935181302484125,M05D02,2021_Oct_07_1538,t1_Paradigm,2021.1.4,60.003715103474455,
X,left,Distractor,0,38,38,38,913.1018142318353,915.1021382419858,left,1,2,0.5497950555291027,M05D02,2021_Oct_07_1538,t1_Paradigm,2021.1.4,60.003715103474455,
C,left,Distractor,0,39,39,39,916.6020710339071,918.6024524675449,left,1,2,0.4892629155656323,M05D02,2021_Oct_07_1538,t1_Paradigm,2021.1.4,60.003715103474455,
R,left,Distractor,0,40,40,40,920.1021841166075,922.1023859011475,left,1,2,0.5893502699909732,M05D02,2021_Oct_07_1538,t1_Paradigm,2021.1.4,60.003715103474455,
B,left,Pretarget,0,41,41,41,923.6020293296315,925.6024348234059,left,1,2,0.5455043280962855,M05D02,2021_Oct_07_1538,t1_Paradigm,2021.1.4,60.003715103474455,
H,left,Distractor,0,42,42,42,927.1020991040859,929.1025620214641,left,1,2,0.5172269099857658,M05D02,2021_Oct_07_1538,t1_Paradigm,2021.1.4,60.003715103474455,
B,right,Target,0,43,43,43,930.602804387454,932.6150917478371,right,1,2,0.428709281841293,M05D02,2021_Oct_07_1538,t1_Paradigm,2021.1.4,60.003715103474455,
W,left,Pretarget,0,44,44,44,934.102172567742,936.1028237959836,left,1,2,0.5090140566462651,M05D02,2021_Oct_07_1538,t1_Paradigm,2021.1.4,60.003715103474455,
L,left,Pretarget,0,45,45,45,937.6027918761829,939.6018695702078,left,1,2,0.5303929472574964,M05D02,2021_Oct_07_1538,t1_Paradigm,2021.1.4,60.003715103474455,
W,right,Target,0,46,46,46,941.1027031743433,943.101973991259,right,1,2,0.7418149762088433,M05D02,2021_Oct_07_1538,t1_Paradigm,2021.1.4,60.003715103474455,
L,right,Target,0,47,47,47,944.6027761568548,946.6018564173719,right,1,2,0.4739981913007796,M05D02,2021_Oct_07_1538,t1_Paradigm,2021.1.4,60.003715103474455,
W,right,Target,0,48,48,48,948.10270477843,950.1019832945894,right,1,2,0.6538831325015053,M05D02,2021_Oct_07_1538,t1_Paradigm,2021.1.4,60.003715103474455,
X,left,Distractor,0,49,49,49,951.6021342319436,953.6026192846475,left,1,2,0.5293471325421706,M05D02,2021_Oct_07_1538,t1_Paradigm,2021.1.4,60.003715103474455,
R,left,Distractor,0,50,50,50,955.1022774700541,957.1032049087808,left,1,2,0.532571193180047,M05D02,2021_Oct_07_1538,t1_Paradigm,2021.1.4,60.003715103474455,
V,left,Pretarget,0,51,51,51,958.6021852394333,960.6025544826407,left,1,2,0.601308808196336,M05D02,2021_Oct_07_1538,t1_Paradigm,2021.1.4,60.003715103474455,
Z,left,Distractor,0,52,52,52,962.1021010288969,964.1017593747238,left,1,2,0.6060172200668603,M05D02,2021_Oct_07_1538,t1_Paradigm,2021.1.4,60.003715103474455,
V,right,Target,0,53,53,53,965.6020947733195,967.6026221718639,right,1,2,0.6736310654086992,M05D02,2021_Oct_07_1538,t1_Paradigm,2021.1.4,60.003715103474455,
V,left,Lure,0,54,54,54,969.1020862719743,971.1022194048855,left,1,2,0.6936558507150039,M05D02,2021_Oct_07_1538,t1_Paradigm,2021.1.4,60.003715103474455,
N,left,Distractor,0,55,55,55,972.6018933096202,974.6022975201486,left,1,2,0.5854278232436627,M05D02,2021_Oct_07_1538,t1_Paradigm,2021.1.4,60.003715103474455,
B,left,Distractor,0,56,56,56,976.1020285276463,978.1025485477876,left,1,2,0.6693284682696685,M05D02,2021_Oct_07_1538,t1_Paradigm,2021.1.4,60.003715103474455,
V,left,Lure,0,57,57,57,979.6020928485086,981.601981850923,left,1,2,0.546214263071306,M05D02,2021_Oct_07_1538,t1_Paradigm,2021.1.4,60.003715103474455,
J,left,Distractor,0,58,58,58,983.1021536404733,985.1033707634779,left,1,2,0.5164463986875489,M05D02,2021_Oct_07_1538,t1_Paradigm,2021.1.4,60.003715103474455,
H,left,Distractor,0,59,59,59,986.602212507627,988.602703013923,left,1,2,0.5851397429360077,M05D02,2021_Oct_07_1538,t1_Paradigm,2021.1.4,60.003715103474455,
X,left,Pretarget,0,60,60,60,990.1022232545074,992.1026614700677,left,1,2,0.5733345480402932,M05D02,2021_Oct_07_1538,t1_Paradigm,2021.1.4,60.003715103474455,
P,left,Distractor,0,61,61,61,993.6021464223741,995.6025676354766,left,1,2,0.6412056767148897,M05D02,2021_Oct_07_1538,t1_Paradigm,2021.1.4,60.003715103474455,
X,right,Target,0,62,62,62,997.1028087182203,999.1018703721929,right,1,2,0.6780587753746659,M05D02,2021_Oct_07_1538,t1_Paradigm,2021.1.4,60.003715103474455,
Q,left,Distractor,0,63,63,63,1000.6020575602306,1002.6022968785837,left,1,2,0.5054374344181269,M05D02,2021_Oct_07_1538,t1_Paradigm,2021.1.4,60.003715103474455,
B,left,Pretarget,0,0,0,0,1007.840767653659,1009.8358994824812,None,0,2,,M05D02,2021_Oct_07_1538,t1_Paradigm,2021.1.4,60.003715103474455,
F,left,Distractor,0,1,1,1,1011.3354681640631,1013.336133507546,None,0,2,,M05D02,2021_Oct_07_1538,t1_Paradigm,2021.1.4,60.003715103474455,
B,right,Target,0,2,2,2,1014.8354433019413,1016.8361311015906,right,1,2,0.8160482512321323,M05D02,2021_Oct_07_1538,t1_Paradigm,2021.1.4,60.003715103474455,
V,left,Distractor,0,3,3,3,1018.3356872719014,1020.3360831416212,left,1,2,0.8837788685923442,M05D02,2021_Oct_07_1538,t1_Paradigm,2021.1.4,60.003715103474455,
G,left,Pretarget,0,4,4,4,1021.8354728156701,1023.8362635928206,left,1,2,0.8554937512381002,M05D02,2021_Oct_07_1538,t1_Paradigm,2021.1.4,60.003715103474455,
B,left,Lure,0,5,5,5,1025.3355044147465,1027.3361896479037,left,1,2,0.9715740506071597,M05D02,2021_Oct_07_1538,t1_Paradigm,2021.1.4,60.003715103474455,
G,right,Target,0,6,6,6,1028.8354898182442,1030.835238630185,right,1,2,0.7686532761435956,M05D02,2021_Oct_07_1538,t1_Paradigm,2021.1.4,60.003715103474455,
Y,left,Pretarget,0,7,7,7,1032.3353536378127,1034.3359856178286,left,1,2,0.5480094713857397,M05D02,2021_Oct_07_1538,t1_Paradigm,2021.1.4,60.003715103474455,
P,left,Distractor,0,8,8,8,1035.8356059485814,1037.8360258784378,left,1,2,0.6639755652286112,M05D02,2021_Oct_07_1538,t1_Paradigm,2021.1.4,60.003715103474455,
Y,right,Target,0,9,9,9,1039.3356818183092,1041.3362682444276,right,1,2,0.6196028662379831,M05D02,2021_Oct_07_1538,t1_Paradigm,2021.1.4,60.003715103474455,
X,left,Distractor,0,10,10,10,1042.836127572693,1044.8352370262146,left,1,2,0.6885746668558568,M05D02,2021_Oct_07_1538,t1_Paradigm,2021.1.4,60.003715103474455,
Y,right,Target,0,11,11,11,1046.335401116521,1048.3350694071269,right,1,2,0.9171570392791182,M05D02,2021_Oct_07_1538,t1_Paradigm,2021.1.4,60.003715103474455,
N,left,Distractor,0,12,12,12,1049.835545317037,1051.8373588110553,left,1,2,0.7106233921367675,M05D02,2021_Oct_07_1538,t1_Paradigm,2021.1.4,60.003715103474455,
Y,right,Target,0,13,13,13,1053.3355451566167,1055.3364767658059,right,1,2,0.5553102844860405,M05D02,2021_Oct_07_1538,t1_Paradigm,2021.1.4,60.003715103474455,
Y,left,Lure,0,14,14,14,1056.8355158031918,1058.835554620251,left,1,2,0.8644598479149863,M05D02,2021_Oct_07_1538,t1_Paradigm,2021.1.4,60.003715103474455,
K,left,Distractor,0,15,15,15,1060.3354652768467,1062.3348259184277,left,1,2,0.46901164413429797,M05D02,2021_Oct_07_1538,t1_Paradigm,2021.1.4,60.003715103474455,
T,left,Pretarget,0,16,16,16,1063.8361708810553,1065.8357207956724,left,1,2,0.5841160635463893,M05D02,2021_Oct_07_1538,t1_Paradigm,2021.1.4,60.003715103474455,
J,left,Distractor,0,17,17,17,1067.3352721540723,1069.3355740287807,left,1,2,0.6521738991141319,M05D02,2021_Oct_07_1538,t1_Paradigm,2021.1.4,60.003715103474455,
T,right,Target,0,18,18,18,1070.8354641540209,1072.8348231915152,right,1,2,0.7370786545798182,M05D02,2021_Oct_07_1538,t1_Paradigm,2021.1.4,60.003715103474455,
S,left,Pretarget,0,19,19,19,1074.3354335174663,1076.33569561271,left,1,2,0.6280527925118804,M05D02,2021_Oct_07_1538,t1_Paradigm,2021.1.4,60.003715103474455,
R,left,Distractor,0,20,20,20,1077.8354837229708,1079.8372048260644,left,1,2,0.6628055999753997,M05D02,2021_Oct_07_1538,t1_Paradigm,2021.1.4,60.003715103474455,
S,right,Target,0,21,21,21,1081.3361941392068,1083.3352984598605,right,1,2,0.5885030317585915,M05D02,2021_Oct_07_1538,t1_Paradigm,2021.1.4,60.003715103474455,
Q,left,Distractor,0,22,22,22,1084.8355764347361,1086.8359870613785,left,1,2,0.6077954258071259,M05D02,2021_Oct_07_1538,t1_Paradigm,2021.1.4,60.003715103474455,
D,left,Distractor,0,23,23,23,1088.3354774673935,1090.3361001441954,left,1,2,0.5798388097900897,M05D02,2021_Oct_07_1538,t1_Paradigm,2021.1.4,60.003715103474455,
F,left,Distractor,0,24,24,24,1091.8355437129503,1093.8359626805177,left,1,2,0.6480637830682099,M05D02,2021_Oct_07_1538,t1_Paradigm,2021.1.4,60.003715103474455,
Z,left,Distractor,0,25,25,25,1095.3354219686007,1097.3378764251247,left,1,2,0.6339629287831485,M05D02,2021_Oct_07_1538,t1_Paradigm,2021.1.4,60.003715103474455,
P,left,Distractor,0,26,26,26,1098.83540961775,1100.834842760465,left,1,2,0.640930428635329,M05D02,2021_Oct_07_1538,t1_Paradigm,2021.1.4,60.003715103474455,
H,left,Distractor,0,27,27,27,1102.33557370794,1104.3358463897603,left,1,2,0.5801214363891631,M05D02,2021_Oct_07_1538,t1_Paradigm,2021.1.4,60.003715103474455,
Z,left,Pretarget,0,28,28,28,1105.8353746503126,1107.8359456779435,left,1,2,0.5517885196022689,M05D02,2021_Oct_07_1538,t1_Paradigm,2021.1.4,60.003715103474455,
J,left,Pretarget,0,29,29,29,1109.3354434623616,1111.3357809460722,left,1,2,0.5559733823174611,M05D02,2021_Oct_07_1538,t1_Paradigm,2021.1.4,60.003715103474455,
Z,right,Target,0,30,30,30,1112.8353698382853,1114.8350968357408,right,1,2,0.7847912235883996,M05D02,2021_Oct_07_1538,t1_Paradigm,2021.1.4,60.003715103474455,
J,right,Target,0,31,31,31,1116.335489016259,1118.3363776379265,right,1,2,0.4996007619192824,M05D02,2021_Oct_07_1538,t1_Paradigm,2021.1.4,60.003715103474455,
V,left,Pretarget,0,32,32,32,1119.8355004047044,1121.836264555226,left,1,2,0.6797506854636595,M05D02,2021_Oct_07_1538,t1_Paradigm,2021.1.4,60.003715103474455,
Z,left,Lure,0,33,33,33,1123.335548685398,1125.3363439537352,left,1,2,0.6355547485873103,M05D02,2021_Oct_07_1538,t1_Paradigm,2021.1.4,60.003715103474455,
V,right,Target,0,34,34,34,1126.8357002644334,1128.8365343497135,right,1,2,1.2634654256980866,M05D02,2021_Oct_07_1538,t1_Paradigm,2021.1.4,60.003715103474455,
X,left,Distractor,0,35,35,35,1130.3355336077511,1132.3351884246804,left,1,2,0.6765619129873812,M05D02,2021_Oct_07_1538,t1_Paradigm,2021.1.4,60.003715103474455,
S,left,Distractor,0,36,36,36,1133.8355398633284,1135.8375195328845,left,1,2,0.486256358679384,M05D02,2021_Oct_07_1538,t1_Paradigm,2021.1.4,60.003715103474455,
Q,left,Distractor,0,37,37,37,1137.3356818183092,1139.33548035461,left,1,2,0.6043285180348903,M05D02,2021_Oct_07_1538,t1_Paradigm,2021.1.4,60.003715103474455,
P,left,Distractor,0,38,38,38,1140.8355594322784,1142.8363810064038,left,1,2,0.7195157043170184,M05D02,2021_Oct_07_1538,t1_Paradigm,2021.1.4,60.003715103474455,
S,left,Lure,0,39,39,39,1144.335568254348,1146.3365409261314,left,1,2,0.5954384513897821,M05D02,2021_Oct_07_1538,t1_Paradigm,2021.1.4,60.003715103474455,
K,left,Pretarget,0,40,40,40,1147.836194941192,1149.835166449775,left,1,2,0.5206960635259748,M05D02,2021_Oct_07_1538,t1_Paradigm,2021.1.4,60.003715103474455,
L,left,Distractor,0,41,41,41,1151.3355313620996,1153.3352118432522,left,1,2,0.8285900076152757,M05D02,2021_Oct_07_1538,t1_Paradigm,2021.1.4,60.003715103474455,
K,right,Target,0,42,42,42,1154.8355482042534,1156.8360518633854,right,1,2,1.1517692073248327,M05D02,2021_Oct_07_1538,t1_Paradigm,2021.1.4,60.003715103474455,
B,left,Distractor,0,43,43,43,1158.3354489159537,1160.3358852068195,left,1,2,0.8360053471988067,M05D02,2021_Oct_07_1538,t1_Paradigm,2021.1.4,60.003715103474455,
N,left,Distractor,0,44,44,44,1161.835352835711,1163.8525067633018,left,1,2,0.807338475366123,M05D02,2021_Oct_07_1538,t1_Paradigm,2021.1.4,60.003715103474455,
S,left,Pretarget,0,45,45,45,1165.3361007857602,1167.335313858348,left,1,2,0.7647459071595222,M05D02,2021_Oct_07_1538,t1_Paradigm,2021.1.4,60.003715103474455,
Z,left,Distractor,0,46,46,46,1168.8354914222145,1170.8348979384173,left,1,2,0.737036308622919,M05D02,2021_Oct_07_1538,t1_Paradigm,2021.1.4,60.003715103474455,
S,right,Target,0,47,47,47,1172.335686309496,1174.3373294576304,right,1,2,0.7385761585319415,M05D02,2021_Oct_07_1538,t1_Paradigm,2021.1.4,60.003715103474455,
C,left,Distractor,0,48,48,48,1175.835331021226,1177.8356181390118,left,1,2,0.5521372314542532,M05D02,2021_Oct_07_1538,t1_Paradigm,2021.1.4,60.003715103474455,
T,left,Pretarget,0,49,49,49,1179.3353892468149,1181.3354979986325,left,1,2,0.7806066815974191,M05D02,2021_Oct_07_1538,t1_Paradigm,2021.1.4,60.003715103474455,
S,left,Lure,0,50,50,50,1182.836012084037,1184.8351927555632,left,1,2,0.8488486574497074,M05D02,2021_Oct_07_1538,t1_Paradigm,2021.1.4,60.003715103474455,
T,right,Target,0,51,51,51,1186.335470088874,1188.3356683446327,right,1,2,0.5162802231498063,M05D02,2021_Oct_07_1538,t1_Paradigm,2021.1.4,60.003715103474455,
N,left,Pretarget,0,52,52,52,1189.835377537529,1191.8357102092123,left,1,2,0.8240641321754083,M05D02,2021_Oct_07_1538,t1_Paradigm,2021.1.4,60.003715103474455,
B,left,Distractor,0,53,53,53,1193.3355547806714,1195.3356439636555,left,1,2,0.6521520845126361,M05D02,2021_Oct_07_1538,t1_Paradigm,2021.1.4,60.003715103474455,
N,right,Target,0,54,54,54,1196.8352819385473,1198.835295732948,right,1,2,0.6725092206615955,M05D02,2021_Oct_07_1538,t1_Paradigm,2021.1.4,60.003715103474455,
N,left,Lure,0,55,55,55,1200.3354787505232,1202.335521738045,left,1,2,1.3324118829332292,M05D02,2021_Oct_07_1538,t1_Paradigm,2021.1.4,60.003715103474455,
X,left,Distractor,0,56,56,56,1203.8354291867,1205.8361994323786,left,1,2,0.7915845280513167,M05D02,2021_Oct_07_1538,t1_Paradigm,2021.1.4,60.003715103474455,
W,left,Distractor,0,57,57,57,1207.335412344546,1209.335424855817,left,1,2,0.7166252778843045,M05D02,2021_Oct_07_1538,t1_Paradigm,2021.1.4,60.003715103474455,
S,left,Distractor,0,58,58,58,1210.8352982994402,1212.8353685550392,left,1,2,0.7364604690810665,M05D02,2021_Oct_07_1538,t1_Paradigm,2021.1.4,60.003715103474455,
L,left,Distractor,0,59,59,59,1214.3361594924936,1216.3352054272546,left,1,2,0.7086106800707057,M05D02,2021_Oct_07_1538,t1_Paradigm,2021.1.4,60.003715103474455,
K,left,Pretarget,0,60,60,60,1217.8353685550392,1219.835703472374,left,1,2,0.6483345400774851,M05D02,2021_Oct_07_1538,t1_Paradigm,2021.1.4,60.003715103474455,
V,left,Pretarget,0,61,61,61,1221.3353488257853,1223.3355942392955,left,1,2,0.6682396660326049,M05D02,2021_Oct_07_1538,t1_Paradigm,2021.1.4,60.003715103474455,
K,right,Target,0,62,62,62,1224.8353605349548,1226.8357592920074,right,1,2,0.6400896064005792,M05D02,2021_Oct_07_1538,t1_Paradigm,2021.1.4,60.003715103474455,
V,right,Target,0,63,63,63,1228.3352872317191,1230.3356340187602,right,1,2,0.6602273139869794,M05D02,2021_Oct_07_1538,t1_Paradigm,2021.1.4,60.003715103474455,
R,left,Distractor,0,0,0,0,1274.4880210908595,1276.4873859027866,None,0,3,,M05D02,2021_Oct_07_1538,t1_Paradigm,2021.1.4,60.003715103474455,
P,left,Lure,0,1,1,1,1277.985545300995,1279.9865381832933,None,0,3,,M05D02,2021_Oct_07_1538,t1_Paradigm,2021.1.4,60.003715103474455,
V,left,Distractor,0,2,2,2,1281.4854139324743,1283.4863262935542,None,0,3,,M05D02,2021_Oct_07_1538,t1_Paradigm,2021.1.4,60.003715103474455,
P,left,Pretarget,0,3,3,3,1284.9855626242934,1286.9853136818856,left,1,3,1.0826469506137073,M05D02,2021_Oct_07_1538,t1_Paradigm,2021.1.4,60.003715103474455,
Z,left,Distractor,0,4,4,4,1288.4854498623172,1290.4860446293605,left,1,3,1.1661719364346936,M05D02,2021_Oct_07_1538,t1_Paradigm,2021.1.4,60.003715103474455,
L,left,Pretarget,0,5,5,5,1291.98547376215,1293.9860880980268,None,0,3,,M05D02,2021_Oct_07_1538,t1_Paradigm,2021.1.4,60.003715103474455,
P,right,Target,0,6,6,6,1295.4854703936726,1297.4850838271668,right,1,3,0.9348303454462439,M05D02,2021_Oct_07_1538,t1_Paradigm,2021.1.4,60.003715103474455,
S,left,Distractor,0,7,7,7,1298.9854461731156,1300.9855507545872,left,1,3,0.9382446417585015,M05D02,2021_Oct_07_1538,t1_Paradigm,2021.1.4,60.003715103474455,
L,right,Target,0,8,8,8,1302.485362604144,1304.4857748348732,right,1,3,0.7821542307501659,M05D02,2021_Oct_07_1538,t1_Paradigm,2021.1.4,60.003715103474455,
D,left,Distractor,0,9,9,9,1305.9853772006463,1307.985825361102,left,1,3,1.1539426412200555,M05D02,2021_Oct_07_1538,t1_Paradigm,2021.1.4,60.003715103474455,
G,left,Distractor,0,10,10,10,1309.4861803286476,1311.4851527996361,left,1,3,1.110750173102133,M05D02,2021_Oct_07_1538,t1_Paradigm,2021.1.4,60.003715103474455,
M,left,Pretarget,0,11,11,11,1312.985341591644,1314.9853172106668,None,0,3,,M05D02,2021_Oct_07_1538,t1_Paradigm,2021.1.4,60.003715103474455,
Y,left,Distractor,0,12,12,12,1316.4855483485153,1318.4860641983105,left,1,3,1.133833805914037,M05D02,2021_Oct_07_1538,t1_Paradigm,2021.1.4,60.003715103474455,
V,left,Distractor,0,13,13,13,1319.985209741979,1321.985947907553,left,1,3,0.9939419738948345,M05D02,2021_Oct_07_1538,t1_Paradigm,2021.1.4,60.003715103474455,
M,right,Target,0,14,14,14,1323.4854893209413,1325.4853289199527,right,1,3,0.6784421338234097,M05D02,2021_Oct_07_1538,t1_Paradigm,2021.1.4,60.003715103474455,
S,left,Pretarget,0,15,15,15,1326.9854182633571,1328.9855157871498,left,1,3,1.4023739993572235,M05D02,2021_Oct_07_1538,t1_Paradigm,2021.1.4,60.003715103474455,
Q,left,Distractor,0,16,16,16,1330.4854633359937,1332.4854306142079,left,1,3,1.1986124027753249,M05D02,2021_Oct_07_1538,t1_Paradigm,2021.1.4,60.003715103474455,
R,left,Pretarget,0,17,17,17,1333.9855436969083,1335.9866732410155,left,1,3,1.1531900396803394,M05D02,2021_Oct_07_1538,t1_Paradigm,2021.1.4,60.003715103474455,
S,right,Target,0,18,18,18,1337.4861145642353,1339.485336940037,right,1,3,0.7265335702104494,M05D02,2021_Oct_07_1538,t1_Paradigm,2021.1.4,60.003715103474455,
F,left,Distractor,0,19,19,19,1340.986275767209,1342.9851885690587,left,1,3,1.3386428212979808,M05D02,2021_Oct_07_1538,t1_Paradigm,2021.1.4,60.003715103474455,
R,right,Target,0,20,20,20,1344.4855563685996,1346.4858354664175,right,1,3,1.1822316080797464,M05D02,2021_Oct_07_1538,t1_Paradigm,2021.1.4,60.003715103474455,
P,left,Distractor,0,21,21,21,1347.986091626808,1349.985182153061,left,1,3,0.9149117458146065,M05D02,2021_Oct_07_1538,t1_Paradigm,2021.1.4,60.003715103474455,
L,left,Distractor,0,22,22,22,1351.4855233259732,1353.486132208258,None,0,3,,M05D02,2021_Oct_07_1538,t1_Paradigm,2021.1.4,60.003715103474455,
R,right,Target,0,23,23,23,1354.9855427345028,1356.9859594564186,left,0,3,1.4018344102660194,M05D02,2021_Oct_07_1538,t1_Paradigm,2021.1.4,60.003715103474455,
H,left,Pretarget,0,24,24,24,1358.4853703033878,1360.485706183128,left,1,3,1.0541144949384034,M05D02,2021_Oct_07_1538,t1_Paradigm,2021.1.4,60.003715103474455,
G,left,Pretarget,0,25,25,25,1361.98553696007,1364.0016909476835,left,1,3,1.0901075232541189,M05D02,2021_Oct_07_1538,t1_Paradigm,2021.1.4,60.003715103474455,
T,left,Distractor,0,26,26,26,1365.4853632458253,1367.4857655315427,left,1,3,1.4462940465891734,M05D02,2021_Oct_07_1538,t1_Paradigm,2021.1.4,60.003715103474455,
H,right,Target,0,27,27,27,1368.985525732045,1370.9858369099675,right,1,3,0.9059841452399269,M05D02,2021_Oct_07_1538,t1_Paradigm,2021.1.4,60.003715103474455,
G,right,Target,0,28,28,28,1372.4854562784312,1374.4856529299868,right,1,3,0.9741613192018121,M05D02,2021_Oct_07_1538,t1_Paradigm,2021.1.4,60.003715103474455,
D,left,Distractor,0,29,29,29,1375.9852816016646,1377.9856957570883,left,1,3,1.2501046616816893,M05D02,2021_Oct_07_1538,t1_Paradigm,2021.1.4,60.003715103474455,
N,left,Pretarget,0,30,30,30,1379.4853577921167,1381.4851909751305,left,1,3,1.2071329053724185,M05D02,2021_Oct_07_1538,t1_Paradigm,2021.1.4,60.003715103474455,
V,left,Distractor,0,31,31,31,1382.985259466339,1384.9862545942888,None,0,3,,M05D02,2021_Oct_07_1538,t1_Paradigm,2021.1.4,60.003715103474455,
R,left,Distractor,0,32,32,32,1386.4855916568777,1388.4865437973058,None,0,3,,M05D02,2021_Oct_07_1538,t1_Paradigm,2021.1.4,60.003715103474455,
N,right,Target,0,33,33,33,1389.9855299025076,1391.9875182335963,left,0,3,1.2163928567897528,M05D02,2021_Oct_07_1538,t1_Paradigm,2021.1.4,60.003715103474455,
Z,left,Distractor,0,34,34,34,1393.485521080438,1395.4849558271235,None,0,3,,M05D02,2021_Oct_07_1538,t1_Paradigm,2021.1.4,60.003715103474455,
N,left,Lure,0,35,35,35,1396.9853698222432,1398.9851927395212,left,1,3,1.1148509858176112,M05D02,2021_Oct_07_1538,t1_Paradigm,2021.1.4,60.003715103474455,
Y,left,Pretarget,0,36,36,36,1400.4854777720757,1402.4851893710438,left,1,3,1.1346656456589699,M05D02,2021_Oct_07_1538,t1_Paradigm,2021.1.4,60.003715103474455,
Y,left,Lure,0,37,37,37,1403.985427245847,1405.985401260783,left,1,3,1.3146657546749339,M05D02,2021_Oct_07_1538,t1_Paradigm,2021.1.4,60.003715103474455,
B,left,Distractor,0,38,38,38,1407.4854549951851,1409.4856622333173,None,0,3,,M05D02,2021_Oct_07_1538,t1_Paradigm,2021.1.4,60.003715103474455,
Y,right,Target,0,39,39,39,1410.9854894813616,1412.9854432858992,right,1,3,0.9223906041588634,M05D02,2021_Oct_07_1538,t1_Paradigm,2021.1.4,60.003715103474455,
J,left,Distractor,0,40,40,40,1414.4861052609049,1416.4852054112125,left,1,3,1.118713121744804,M05D02,2021_Oct_07_1538,t1_Paradigm,2021.1.4,60.003715103474455,
X,left,Distractor,0,41,41,41,1417.9854689500062,1419.9859828749904,left,1,3,1.1698675760999322,M05D02,2021_Oct_07_1538,t1_Paradigm,2021.1.4,60.003715103474455,
W,left,Pretarget,0,42,42,42,1421.485543536488,1423.485940047889,left,1,3,1.4300601793220267,M05D02,2021_Oct_07_1538,t1_Paradigm,2021.1.4,60.003715103474455,
S,left,Pretarget,0,43,43,43,1424.9855331104482,1426.9861102333525,left,1,3,0.9537406642921269,M05D02,2021_Oct_07_1538,t1_Paradigm,2021.1.4,60.003715103474455,
R,left,Distractor,0,44,44,44,1428.48545563675,1430.4852147144265,left,1,3,1.3106846011942253,M05D02,2021_Oct_07_1538,t1_Paradigm,2021.1.4,60.003715103474455,
W,right,Target,0,45,45,45,1431.9861243487103,1433.9854997470975,right,1,3,0.898598640342243,M05D02,2021_Oct_07_1538,t1_Paradigm,2021.1.4,60.003715103474455,
S,right,Target,0,46,46,46,1435.486020569224,1437.4852275465382,right,1,3,0.934728330350481,M05D02,2021_Oct_07_1538,t1_Paradigm,2021.1.4,60.003715103474455,
D,left,Distractor,0,47,47,47,1438.985538884881,1440.9863748950884,left,1,3,1.1619524270063266,M05D02,2021_Oct_07_1538,t1_Paradigm,2021.1.4,60.003715103474455,
T,left,Distractor,0,48,48,48,1442.4855858824449,1444.4852047695313,left,1,3,1.2785909218946472,M05D02,2021_Oct_07_1538,t1_Paradigm,2021.1.4,60.003715103474455,
S,right,Target,0,49,49,49,1445.9854173009517,1447.9853162482614,right,1,3,1.170599967124872,M05D02,2021_Oct_07_1538,t1_Paradigm,2021.1.4,60.003715103474455,
K,left,Distractor,0,50,50,50,1449.4854527495336,1451.4870679879095,left,1,3,1.0608879094943404,M05D02,2021_Oct_07_1538,t1_Paradigm,2021.1.4,60.003715103474455,
S,left,Lure,0,51,51,51,1452.9855154663092,1454.9854153761407,left,1,3,1.418500077095814,M05D02,2021_Oct_07_1538,t1_Paradigm,2021.1.4,60.003715103474455,
T,left,Pretarget,0,52,52,52,1456.485446333536,1458.4853943636408,left,1,3,1.2466348666930571,M05D02,2021_Oct_07_1538,t1_Paradigm,2021.1.4,60.003715103474455,
V,left,Distractor,0,53,53,53,1459.9854237169493,1461.9856033661636,left,1,3,1.1863244008272886,M05D02,2021_Oct_07_1538,t1_Paradigm,2021.1.4,60.003715103474455,
B,left,Distractor,0,54,54,54,1463.4852512858342,1465.485484508914,left,1,3,1.0944271228509024,M05D02,2021_Oct_07_1538,t1_Paradigm,2021.1.4,60.003715103474455,
T,right,Target,0,55,55,55,1466.9854865941452,1468.9858032257762,right,1,3,1.0821830708300695,M05D02,2021_Oct_07_1538,t1_Paradigm,2021.1.4,60.003715103474455,
Y,left,Pretarget,0,56,56,56,1470.4854906041874,1472.4862015015678,left,1,3,1.3900349899195135,M05D02,2021_Oct_07_1538,t1_Paradigm,2021.1.4,60.003715103474455,
T,left,Lure,0,57,57,57,1473.9854631755734,1475.984946042765,left,1,3,1.3311565844342113,M05D02,2021_Oct_07_1538,t1_Paradigm,2021.1.4,60.003715103474455,
P,left,Pretarget,0,58,58,58,1477.4855367996497,1479.4856362483697,left,1,3,1.142239461420104,M05D02,2021_Oct_07_1538,t1_Paradigm,2021.1.4,60.003715103474455,
Y,right,Target,0,59,59,59,1480.9861759977648,1482.985314644291,right,1,3,0.6505121444351971,M05D02,2021_Oct_07_1538,t1_Paradigm,2021.1.4,60.003715103474455,
R,left,Distractor,0,60,60,60,1484.4854139324743,1486.4864905441646,left,1,3,0.9413785570068285,M05D02,2021_Oct_07_1538,t1_Paradigm,2021.1.4,60.003715103474455,
P,right,Target,0,61,61,61,1487.9855719275074,1489.9870771308197,right,1,3,0.9929433171637356,M05D02,2021_Oct_07_1538,t1_Paradigm,2021.1.4,60.003715103474455,
L,left,Distractor,0,62,62,62,1491.4855563685996,1493.4863179527456,left,1,3,1.0296915135113522,M05D02,2021_Oct_07_1538,t1_Paradigm,2021.1.4,60.003715103474455,
V,left,Distractor,0,63,63,63,1494.985603045323,1496.987063015462,left,1,3,1.3208700665272772,M05D02,2021_Oct_07_1538,t1_Paradigm,2021.1.4,60.003715103474455,
H,left,Lure,0,0,0,0,1522.242739688023,1524.2358478974784,None,0,3,,M05D02,2021_Oct_07_1538,t1_Paradigm,2021.1.4,60.003715103474455,
B,left,Distractor,0,1,1,1,1525.7354598874226,1527.736012308509,None,0,3,,M05D02,2021_Oct_07_1538,t1_Paradigm,2021.1.4,60.003715103474455,
T,left,Distractor,0,2,2,2,1529.23551586736,1531.2361154464306,None,0,3,,M05D02,2021_Oct_07_1538,t1_Paradigm,2021.1.4,60.003715103474455,
R,left,Distractor,0,3,3,3,1532.7355115365935,1534.7371235669125,left,1,3,0.7867048078915104,M05D02,2021_Oct_07_1538,t1_Paradigm,2021.1.4,60.003715103474455,
H,left,Pretarget,0,4,4,4,1536.2355928599136,1538.236103897565,left,1,3,1.0318113734247163,M05D02,2021_Oct_07_1538,t1_Paradigm,2021.1.4,60.003715103474455,
K,left,Distractor,0,5,5,5,1539.7354746443452,1541.7358843085822,None,0,3,,M05D02,2021_Oct_07_1538,t1_Paradigm,2021.1.4,60.003715103474455,
G,left,Distractor,0,6,6,6,1543.2354751254898,1545.2359005090548,left,1,3,1.2321856212802231,M05D02,2021_Oct_07_1538,t1_Paradigm,2021.1.4,60.003715103474455,
H,right,Target,0,7,7,7,1546.735384178115,1548.7353241881356,right,1,3,0.5967601558659226,M05D02,2021_Oct_07_1538,t1_Paradigm,2021.1.4,60.003715103474455,
Y,left,Pretarget,0,8,8,8,1550.2354407997336,1552.235519075417,left,1,3,0.792351886513643,M05D02,2021_Oct_07_1538,t1_Paradigm,2021.1.4,60.003715103474455,
S,left,Distractor,0,9,9,9,1553.7361515366938,1555.736022574245,left,1,3,0.8918752708705142,M05D02,2021_Oct_07_1538,t1_Paradigm,2021.1.4,60.003715103474455,
P,left,Distractor,0,10,10,10,1557.2355331906583,1559.2359540829202,left,1,3,1.1039793249219656,M05D02,2021_Oct_07_1538,t1_Paradigm,2021.1.4,60.003715103474455,
Y,right,Target,0,11,11,11,1560.7355465039145,1562.73622660432,right,1,3,0.8196992994053289,M05D02,2021_Oct_07_1538,t1_Paradigm,2021.1.4,60.003715103474455,
H,left,Lure,0,12,12,12,1564.23613469454,1566.235263396171,left,1,3,1.1926624870393425,M05D02,2021_Oct_07_1538,t1_Paradigm,2021.1.4,60.003715103474455,
Q,left,Distractor,0,13,13,13,1567.7354868347757,1569.7361935616937,None,0,3,,M05D02,2021_Oct_07_1538,t1_Paradigm,2021.1.4,60.003715103474455,
V,left,Pretarget,0,14,14,14,1571.235555325984,1573.2362517872825,left,1,3,1.2478192677954212,M05D02,2021_Oct_07_1538,t1_Paradigm,2021.1.4,60.003715103474455,
G,left,Distractor,0,15,15,15,1574.73554746632,1576.735341511434,left,1,3,1.1404747292399406,M05D02,2021_Oct_07_1538,t1_Paradigm,2021.1.4,60.003715103474455,
Z,left,Pretarget,0,16,16,16,1578.2353564287769,1580.2357070654398,left,1,3,1.064401654410176,M05D02,2021_Oct_07_1538,t1_Paradigm,2021.1.4,60.003715103474455,
V,right,Target,0,17,17,17,1581.7361447997391,1583.735192659311,right,1,3,0.8448694286635146,M05D02,2021_Oct_07_1538,t1_Paradigm,2021.1.4,60.003715103474455,
N,left,Distractor,0,18,18,18,1585.23556559172,1587.2351870452985,left,1,3,0.9448833194328472,M05D02,2021_Oct_07_1538,t1_Paradigm,2021.1.4,60.003715103474455,
Z,right,Target,0,19,19,19,1588.7361213812837,1590.735235325992,right,1,3,0.7887204071739689,M05D02,2021_Oct_07_1538,t1_Paradigm,2021.1.4,60.003715103474455,
R,left,Distractor,0,20,20,20,1592.2353872257518,1594.2357850202825,left,1,3,0.9681539798621088,M05D02,2021_Oct_07_1538,t1_Paradigm,2021.1.4,60.003715103474455,
P,left,Distractor,0,21,21,21,1595.7354691906366,1597.748593202792,left,1,3,0.9592526851920411,M05D02,2021_Oct_07_1538,t1_Paradigm,2021.1.4,60.003715103474455,
Z,right,Target,0,22,22,22,1599.235307987663,1601.2355578924762,right,1,3,0.6722551453858614,M05D02,2021_Oct_07_1538,t1_Paradigm,2021.1.4,60.003715103474455,
D,left,Pretarget,0,23,23,23,1602.7354672658257,1604.7356552558485,left,1,3,0.9165680466685444,M05D02,2021_Oct_07_1538,t1_Paradigm,2021.1.4,60.003715103474455,
K,left,Distractor,0,24,24,24,1606.2355463436106,1608.234818443656,left,1,3,1.0812120030168444,M05D02,2021_Oct_07_1538,t1_Paradigm,2021.1.4,60.003715103474455,
W,left,Distractor,0,25,25,25,1609.7353569099214,1611.7349417920923,left,1,3,1.2929821021389216,M05D02,2021_Oct_07_1538,t1_Paradigm,2021.1.4,60.003715103474455,
D,right,Target,0,26,26,26,1613.235427967622,1615.2351889701094,right,1,3,0.6406773157650605,M05D02,2021_Oct_07_1538,t1_Paradigm,2021.1.4,60.003715103474455,
G,left,Pretarget,0,27,27,27,1616.7353652508464,1618.7353379826527,left,1,3,1.1085276565281674,M05D02,2021_Oct_07_1538,t1_Paradigm,2021.1.4,60.003715103474455,
V,left,Distractor,0,28,28,28,1620.2352316367906,1622.2355181130115,left,1,3,1.2243272539926693,M05D02,2021_Oct_07_1538,t1_Paradigm,2021.1.4,60.003715103474455,
D,right,Target,0,29,29,29,1623.735352097894,1625.735506082885,right,1,3,0.7805364258820191,M05D02,2021_Oct_07_1538,t1_Paradigm,2021.1.4,60.003715103474455,
G,right,Target,0,30,30,30,1627.2353705440182,1629.2354314964032,right,1,3,1.008483289508149,M05D02,2021_Oct_07_1538,t1_Paradigm,2021.1.4,60.003715103474455,
B,left,Pretarget,0,31,31,31,1630.736164368689,1632.735226664343,left,1,3,1.156678120372817,M05D02,2021_Oct_07_1538,t1_Paradigm,2021.1.4,60.003715103474455,
N,left,Distractor,0,32,32,32,1634.235538965091,1636.2365363386925,left,1,3,1.2873616501456127,M05D02,2021_Oct_07_1538,t1_Paradigm,2021.1.4,60.003715103474455,
F,left,Distractor,0,33,33,33,1637.7355602984317,1639.7363882885547,left,1,3,1.2436703348066658,M05D02,2021_Oct_07_1538,t1_Paradigm,2021.1.4,60.003715103474455,
B,right,Target,0,34,34,34,1641.235533511499,1643.2365097121801,right,1,3,0.9593999332282692,M05D02,2021_Oct_07_1538,t1_Paradigm,2021.1.4,60.003715103474455,
Q,left,Pretarget,0,35,35,35,1644.7354993460467,1646.7364957572427,left,1,3,1.0914577790535986,M05D02,2021_Oct_07_1538,t1_Paradigm,2021.1.4,60.003715103474455,
S,left,Pretarget,0,36,36,36,1648.2361462434055,1650.2351694011595,left,1,3,1.1448902487754822,M05D02,2021_Oct_07_1538,t1_Paradigm,2021.1.4,60.003715103474455,
W,left,Distractor,0,37,37,37,1651.7354316568235,1653.7362532308325,None,0,3,,M05D02,2021_Oct_07_1538,t1_Paradigm,2021.1.4,60.003715103474455,
Q,right,Target,0,38,38,38,1655.2352983636083,1657.2358421230456,right,1,3,1.3122016740962863,M05D02,2021_Oct_07_1538,t1_Paradigm,2021.1.4,60.003715103474455,
S,right,Target,0,39,39,39,1658.735488438746,1660.7360597872175,right,1,3,0.6439674616558477,M05D02,2021_Oct_07_1538,t1_Paradigm,2021.1.4,60.003715103474455,
T,left,Distractor,0,40,40,40,1662.2354565189453,1664.2520057347137,left,1,3,0.8718289919197559,M05D02,2021_Oct_07_1538,t1_Paradigm,2021.1.4,60.003715103474455,
G,left,Distractor,0,41,41,41,1665.735462774639,1667.7359699626686,left,1,3,1.0839805247960612,M05D02,2021_Oct_07_1538,t1_Paradigm,2021.1.4,60.003715103474455,
D,left,Distractor,0,42,42,42,1669.2355341530638,1671.236061230884,left,1,3,1.264022979652509,M05D02,2021_Oct_07_1538,t1_Paradigm,2021.1.4,60.003715103474455,
S,left,Lure,0,43,43,43,1672.7355019124225,1674.7358316970058,left,1,3,1.0280166059965268,M05D02,2021_Oct_07_1538,t1_Paradigm,2021.1.4,60.003715103474455,
Z,left,Pretarget,0,44,44,44,1676.235462293378,1678.2359691606835,left,1,3,1.1120279277674854,M05D02,2021_Oct_07_1538,t1_Paradigm,2021.1.4,60.003715103474455,
J,left,Distractor,0,45,45,45,1679.735461491393,1681.7354675866663,left,1,3,0.9084475843701512,M05D02,2021_Oct_07_1538,t1_Paradigm,2021.1.4,60.003715103474455,
M,left,Pretarget,0,46,46,46,1683.2355017521186,1685.236368880025,left,1,3,0.6714983733836561,M05D02,2021_Oct_07_1538,t1_Paradigm,2021.1.4,60.003715103474455,
Z,right,Target,0,47,47,47,1686.7356141931377,1688.7353334913496,None,0,3,,M05D02,2021_Oct_07_1538,t1_Paradigm,2021.1.4,60.003715103474455,
P,left,Distractor,0,48,48,48,1690.2353195365286,1692.2356637570774,left,1,3,0.6644343120278791,M05D02,2021_Oct_07_1538,t1_Paradigm,2021.1.4,60.003715103474455,
M,right,Target,0,49,49,49,1693.735484589124,1695.7358557571424,right,1,3,0.7482781751314178,M05D02,2021_Oct_07_1538,t1_Paradigm,2021.1.4,60.003715103474455,
K,left,Distractor,0,50,50,50,1697.2352653209819,1699.2350709149614,left,1,3,0.8490315146045759,M05D02,2021_Oct_07_1538,t1_Paradigm,2021.1.4,60.003715103474455,
Y,left,Distractor,0,51,51,51,1700.7353739124956,1702.7356327996822,left,1,3,0.6125150655861944,M05D02,2021_Oct_07_1538,t1_Paradigm,2021.1.4,60.003715103474455,
X,left,Distractor,0,52,52,52,1704.2353439175058,1706.2362293311162,left,1,3,1.1597549329744652,M05D02,2021_Oct_07_1538,t1_Paradigm,2021.1.4,60.003715103474455,
F,left,Pretarget,0,53,53,53,1707.735427486361,1709.7352141530719,left,1,3,1.3086811924586073,M05D02,2021_Oct_07_1538,t1_Paradigm,2021.1.4,60.003715103474455,
M,left,Lure,0,54,54,54,1711.2353538622847,1713.2362389551708,left,1,3,1.3439309223322198,M05D02,2021_Oct_07_1538,t1_Paradigm,2021.1.4,60.003715103474455,
V,left,Distractor,0,55,55,55,1714.7361018123338,1716.7353392657824,None,0,3,,M05D02,2021_Oct_07_1538,t1_Paradigm,2021.1.4,60.003715103474455,
F,right,Target,0,56,56,56,1718.2353230653098,1720.2359463836765,right,1,3,1.0481774113141,M05D02,2021_Oct_07_1538,t1_Paradigm,2021.1.4,60.003715103474455,
S,left,Distractor,0,57,57,57,1721.7354746443452,1723.7361650103703,left,1,3,0.6678277562605217,M05D02,2021_Oct_07_1538,t1_Paradigm,2021.1.4,60.003715103474455,
D,left,Distractor,0,58,58,58,1725.2354722382734,1727.2365969702369,left,1,3,1.1673502423800528,M05D02,2021_Oct_07_1538,t1_Paradigm,2021.1.4,60.003715103474455,
F,right,Target,0,59,59,59,1728.7355285390513,1730.7360787146026,None,0,3,,M05D02,2021_Oct_07_1538,t1_Paradigm,2021.1.4,60.003715103474455,
V,left,Pretarget,0,60,60,60,1732.236150413868,1734.2352463935968,left,1,3,0.904634210281074,M05D02,2021_Oct_07_1538,t1_Paradigm,2021.1.4,60.003715103474455,
J,left,Distractor,0,61,61,61,1735.7360899426276,1737.748606355628,left,1,3,0.9752026426140219,M05D02,2021_Oct_07_1538,t1_Paradigm,2021.1.4,60.003715103474455,
V,left,Lure,0,62,62,62,1739.23526147136,1741.235243827221,left,1,3,1.312905193073675,M05D02,2021_Oct_07_1538,t1_Paradigm,2021.1.4,60.003715103474455,
V,right,Target,0,63,63,63,1742.7352205690695,1744.7354403184727,None,0,3,,M05D02,2021_Oct_07_1538,t1_Paradigm,2021.1.4,60.003715103474455,
R,left,Distractor,0,0,0,0,1789.8560413604137,1791.8525612996891,None,0,4,,M05D02,2021_Oct_07_1538,t1_Paradigm,2021.1.4,60.003715103474455,
F,left,Distractor,0,1,1,1,1793.3520468935603,1795.3524956956971,None,0,4,,M05D02,2021_Oct_07_1538,t1_Paradigm,2021.1.4,60.003715103474455,
P,left,Pretarget,0,2,2,2,1796.852094532689,1798.8527464024955,None,0,4,,M05D02,2021_Oct_07_1538,t1_Paradigm,2021.1.4,60.003715103474455,
H,left,Distractor,0,3,3,3,1800.3521931793075,1802.352659625467,None,0,4,,M05D02,2021_Oct_07_1538,t1_Paradigm,2021.1.4,60.003715103474455,
Z,left,Distractor,0,4,4,4,1803.8522109838668,1805.851502652862,left,1,4,0.8884074005763978,M05D02,2021_Oct_07_1538,t1_Paradigm,2021.1.4,60.003715103474455,
T,left,Distractor,0,5,5,5,1807.3522319963668,1809.3525457407814,left,1,4,0.9553344089072198,M05D02,2021_Oct_07_1538,t1_Paradigm,2021.1.4,60.003715103474455,
P,right,Target,0,6,6,6,1810.852018502541,1812.8518767080968,right,1,4,0.8802413842640817,M05D02,2021_Oct_07_1538,t1_Paradigm,2021.1.4,60.003715103474455,
G,left,Distractor,0,7,7,7,1814.3520930890227,1816.352140247007,left,1,4,1.316009594593197,M05D02,2021_Oct_07_1538,t1_Paradigm,2021.1.4,60.003715103474455,
L,left,Distractor,0,8,8,8,1817.8520492996322,1819.8525365978712,left,1,4,1.0475595464231446,M05D02,2021_Oct_07_1538,t1_Paradigm,2021.1.4,60.003715103474455,
P,left,Lure,0,9,9,9,1821.3520574800204,1823.3524860716425,left,1,4,1.4034971273504198,M05D02,2021_Oct_07_1538,t1_Paradigm,2021.1.4,60.003715103474455,
Q,left,Pretarget,0,10,10,10,1824.852019785787,1826.852334492607,left,1,4,1.359594403533265,M05D02,2021_Oct_07_1538,t1_Paradigm,2021.1.4,60.003715103474455,
D,left,Distractor,0,11,11,11,1828.3521845176583,1830.3539607985877,None,0,4,,M05D02,2021_Oct_07_1538,t1_Paradigm,2021.1.4,60.003715103474455,
M,left,Pretarget,0,12,12,12,1831.8529767383588,1833.8517262518872,None,0,4,,M05D02,2021_Oct_07_1538,t1_Paradigm,2021.1.4,60.003715103474455,
C,left,Distractor,0,13,13,13,1835.352238733205,1837.352598673082,None,0,4,,M05D02,2021_Oct_07_1538,t1_Paradigm,2021.1.4,60.003715103474455,
Q,right,Target,0,14,14,14,1838.8521384826163,1840.851747745648,left,0,4,1.3283563032746315,M05D02,2021_Oct_07_1538,t1_Paradigm,2021.1.4,60.003715103474455,
R,left,Distractor,0,15,15,15,1842.3522679262096,1844.3540557560045,left,1,4,1.0259217685088515,M05D02,2021_Oct_07_1538,t1_Paradigm,2021.1.4,60.003715103474455,
M,right,Target,0,16,16,16,1845.851998292026,1847.8544206684455,left,0,4,0.7255089284153655,M05D02,2021_Oct_07_1538,t1_Paradigm,2021.1.4,60.003715103474455,
S,left,Distractor,0,17,17,17,1849.351920818328,1851.3518563371617,left,1,4,0.796196699142456,M05D02,2021_Oct_07_1538,t1_Paradigm,2021.1.4,60.003715103474455,
Z,left,Distractor,0,18,18,18,1852.8518917857436,1854.852095174254,left,1,4,0.7357935216277838,M05D02,2021_Oct_07_1538,t1_Paradigm,2021.1.4,60.003715103474455,
L,left,Pretarget,0,19,19,19,1856.351909590303,1858.3523054600228,left,1,4,1.171565581462346,M05D02,2021_Oct_07_1538,t1_Paradigm,2021.1.4,60.003715103474455,
M,right,Target,0,20,20,20,1859.8520335803041,1861.8521455401788,right,1,4,1.303734103916213,M05D02,2021_Oct_07_1538,t1_Paradigm,2021.1.4,60.003715103474455,
P,left,Distractor,0,21,21,21,1863.3521216404624,1865.3520590841072,left,1,4,1.32384358078707,M05D02,2021_Oct_07_1538,t1_Paradigm,2021.1.4,60.003715103474455,
F,left,Distractor,0,22,22,22,1866.8519347732654,1868.8523030540673,left,1,4,1.2477955284994096,M05D02,2021_Oct_07_1538,t1_Paradigm,2021.1.4,60.003715103474455,
L,right,Target,0,23,23,23,1870.3520340614486,1872.3521681567654,right,1,4,1.1556938997237012,M05D02,2021_Oct_07_1538,t1_Paradigm,2021.1.4,60.003715103474455,
L,left,Lure,0,24,24,24,1873.8521060815547,1875.852037429926,left,1,4,1.271813016035594,M05D02,2021_Oct_07_1538,t1_Paradigm,2021.1.4,60.003715103474455,
V,left,Pretarget,0,25,25,25,1877.3519638058497,1879.3520561968908,left,1,4,1.3402699292637408,M05D02,2021_Oct_07_1538,t1_Paradigm,2021.1.4,60.003715103474455,
Z,left,Distractor,0,26,26,26,1880.8520111241378,1882.8520274850307,left,1,4,1.3439912331523374,M05D02,2021_Oct_07_1538,t1_Paradigm,2021.1.4,60.003715103474455,
H,left,Distractor,0,27,27,27,1884.3527000466129,1886.3525399663486,left,1,4,0.9475745279341936,M05D02,2021_Oct_07_1538,t1_Paradigm,2021.1.4,60.003715103474455,
X,left,Distractor,0,28,28,28,1887.8521644675639,1889.8523226229008,left,1,4,0.9676262604771182,M05D02,2021_Oct_07_1538,t1_Paradigm,2021.1.4,60.003715103474455,
V,right,Target,0,29,29,29,1891.35217778082,1893.3524187031435,right,1,4,0.8114380048355088,M05D02,2021_Oct_07_1538,t1_Paradigm,2021.1.4,60.003715103474455,
C,left,Distractor,0,30,30,30,1894.85217922437,1896.852443886106,left,1,4,1.007538206758909,M05D02,2021_Oct_07_1538,t1_Paradigm,2021.1.4,60.003715103474455,
S,left,Pretarget,0,31,31,31,1898.3526480766013,1900.3521691191709,left,1,4,1.0438331097830087,M05D02,2021_Oct_07_1538,t1_Paradigm,2021.1.4,60.003715103474455,
D,left,Distractor,0,32,32,32,1901.8527778410353,1903.8520245978143,left,1,4,1.4160084075992927,M05D02,2021_Oct_07_1538,t1_Paradigm,2021.1.4,60.003715103474455,
V,left,Distractor,0,33,33,33,1905.3521193948109,1907.3527754350798,None,0,4,,M05D02,2021_Oct_07_1538,t1_Paradigm,2021.1.4,60.003715103474455,
R,left,Distractor,0,34,34,34,1908.8521394450217,1910.8527136805933,left,1,4,1.135145565494895,M05D02,2021_Oct_07_1538,t1_Paradigm,2021.1.4,60.003715103474455,
S,right,Target,0,35,35,35,1912.3521283773007,1914.3526397357928,right,1,4,0.7713454470504075,M05D02,2021_Oct_07_1538,t1_Paradigm,2021.1.4,60.003715103474455,
Y,left,Distractor,0,36,36,36,1915.8526180816116,1917.851973269484,left,1,4,1.0801469401922077,M05D02,2021_Oct_07_1538,t1_Paradigm,2021.1.4,60.003715103474455,
N,left,Pretarget,0,37,37,37,1919.3520253997995,1921.3521806680365,None,0,4,,M05D02,2021_Oct_07_1538,t1_Paradigm,2021.1.4,60.003715103474455,
Z,left,Pretarget,0,38,38,38,1922.8520528284134,1924.8526001167484,None,0,4,,M05D02,2021_Oct_07_1538,t1_Paradigm,2021.1.4,60.003715103474455,
P,left,Pretarget,0,39,39,39,1926.3521229237085,1928.3526888184715,left,1,4,0.9953313677106053,M05D02,2021_Oct_07_1538,t1_Paradigm,2021.1.4,60.003715103474455,
M,left,Distractor,0,40,40,40,1929.8521991141606,1931.8521064023953,left,1,4,0.8557985132792965,M05D02,2021_Oct_07_1538,t1_Paradigm,2021.1.4,60.003715103474455,
N,right,Target,0,41,41,41,1933.352099825861,1935.3523978510639,right,1,4,0.9075178999919444,M05D02,2021_Oct_07_1538,t1_Paradigm,2021.1.4,60.003715103474455,
Z,right,Target,0,42,42,42,1936.852223815862,1938.8519126379397,right,1,4,0.7200706918956712,M05D02,2021_Oct_07_1538,t1_Paradigm,2021.1.4,60.003715103474455,
P,right,Target,0,43,43,43,1940.3521989537403,1942.35291851277,right,1,4,0.8191019659861922,M05D02,2021_Oct_07_1538,t1_Paradigm,2021.1.4,60.003715103474455,
X,left,Pretarget,0,44,44,44,1943.8522520464612,1945.8527704626322,left,1,4,0.807169412728399,M05D02,2021_Oct_07_1538,t1_Paradigm,2021.1.4,60.003715103474455,
Z,left,Lure,0,45,45,45,1947.351957389852,1949.3522284675855,None,0,4,,M05D02,2021_Oct_07_1538,t1_Paradigm,2021.1.4,60.003715103474455,
R,left,Pretarget,0,46,46,46,1950.8521525978576,1952.8528782521607,left,1,4,1.0870037632994354,M05D02,2021_Oct_07_1538,t1_Paradigm,2021.1.4,60.003715103474455,
K,left,Distractor,0,47,47,47,1954.3522028033622,1956.3525742921047,left,1,4,0.6436357523780316,M05D02,2021_Oct_07_1538,t1_Paradigm,2021.1.4,60.003715103474455,
X,right,Target,0,48,48,48,1957.85214618186,1959.853703354951,right,1,4,0.88618103438057,M05D02,2021_Oct_07_1538,t1_Paradigm,2021.1.4,60.003715103474455,
B,left,Distractor,0,49,49,49,1961.3522105026059,1963.3525191141525,left,1,4,0.8594261428806931,M05D02,2021_Oct_07_1538,t1_Paradigm,2021.1.4,60.003715103474455,
R,right,Target,0,50,50,50,1964.8527993347961,1966.852162542753,right,1,4,1.03974865807686,M05D02,2021_Oct_07_1538,t1_Paradigm,2021.1.4,60.003715103474455,
Y,left,Pretarget,0,51,51,51,1968.3520837858086,1970.3525078861276,left,1,4,0.8035000787349418,M05D02,2021_Oct_07_1538,t1_Paradigm,2021.1.4,60.003715103474455,
W,left,Pretarget,0,52,52,52,1971.852240176755,1973.8527685378212,left,1,4,0.7591668384848163,M05D02,2021_Oct_07_1538,t1_Paradigm,2021.1.4,60.003715103474455,
Z,left,Distractor,0,53,53,53,1975.3522111441707,1977.3525402871892,left,1,4,0.9393562208861113,M05D02,2021_Oct_07_1538,t1_Paradigm,2021.1.4,60.003715103474455,
Q,left,Distractor,0,54,54,54,1978.8521189136663,1980.8514750639442,left,1,4,0.8167158402502537,M05D02,2021_Oct_07_1538,t1_Paradigm,2021.1.4,60.003715103474455,
Y,right,Target,0,55,55,55,1982.3523125177016,1984.352567876107,right,1,4,0.6913765519857407,M05D02,2021_Oct_07_1538,t1_Paradigm,2021.1.4,60.003715103474455,
W,right,Target,0,56,56,56,1985.8520262017846,1987.85253306909,right,1,4,1.3834274298278615,M05D02,2021_Oct_07_1538,t1_Paradigm,2021.1.4,60.003715103474455,
H,left,Pretarget,0,57,57,57,1989.3520969386445,1991.3524992244784,left,1,4,0.8435210976749659,M05D02,2021_Oct_07_1538,t1_Paradigm,2021.1.4,60.003715103474455,
M,left,Distractor,0,58,58,58,1992.852091324632,1994.8523944825865,left,1,4,0.7036279825260863,M05D02,2021_Oct_07_1538,t1_Paradigm,2021.1.4,60.003715103474455,
R,left,Pretarget,0,59,59,59,1996.3520459311549,1998.3520035853144,left,1,4,0.5163822382455692,M05D02,2021_Oct_07_1538,t1_Paradigm,2021.1.4,60.003715103474455,
J,left,Distractor,0,60,60,60,1999.8527095102472,2001.8521872444544,left,1,4,0.6639223120873794,M05D02,2021_Oct_07_1538,t1_Paradigm,2021.1.4,60.003715103474455,
H,right,Target,0,61,61,61,2003.352162061492,2005.3520943722688,right,1,4,0.811776130227372,M05D02,2021_Oct_07_1538,t1_Paradigm,2021.1.4,60.003715103474455,
Z,left,Distractor,0,62,62,62,2006.8520935702836,2008.8521898109466,left,1,4,1.2479315486270934,M05D02,2021_Oct_07_1538,t1_Paradigm,2021.1.4,60.003715103474455,
R,right,Target,0,63,63,63,2010.3519763171207,2012.3523035352118,None,0,4,,M05D02,2021_Oct_07_1538,t1_Paradigm,2021.1.4,60.003715103474455,
J,left,Pretarget,0,0,0,0,2038.374920721748,2040.3693939439254,None,0,4,,M05D02,2021_Oct_07_1538,t1_Paradigm,2021.1.4,60.003715103474455,
G,left,Pretarget,0,1,1,1,2041.8687537835212,2043.8692208712455,None,0,4,,M05D02,2021_Oct_07_1538,t1_Paradigm,2021.1.4,60.003715103474455,
Z,left,Distractor,0,2,2,2,2045.3688983047614,2047.3692588863196,None,0,4,,M05D02,2021_Oct_07_1538,t1_Paradigm,2021.1.4,60.003715103474455,
F,left,Distractor,0,3,3,3,2048.868800299824,2050.8692969013937,None,0,4,,M05D02,2021_Oct_07_1538,t1_Paradigm,2021.1.4,60.003715103474455,
J,right,Target,0,4,4,4,2052.368842806085,2054.3694529714994,right,1,4,1.0105630493490025,M05D02,2021_Oct_07_1538,t1_Paradigm,2021.1.4,60.003715103474455,
G,right,Target,0,5,5,5,2055.86885259056,2057.86909800407,right,1,4,0.8073060744209215,M05D02,2021_Oct_07_1538,t1_Paradigm,2021.1.4,60.003715103474455,
H,left,Distractor,0,6,6,6,2059.368771587964,2061.369348390028,left,1,4,1.0827707801945508,M05D02,2021_Oct_07_1538,t1_Paradigm,2021.1.4,60.003715103474455,
P,left,Distractor,0,7,7,7,2062.869008821086,2064.8704835481476,left,1,4,0.8296653361758217,M05D02,2021_Oct_07_1538,t1_Paradigm,2021.1.4,60.003715103474455,
G,left,Lure,0,8,8,8,2066.3687757584266,2068.3688636581646,left,1,4,0.9472636707359925,M05D02,2021_Oct_07_1538,t1_Paradigm,2021.1.4,60.003715103474455,
S,left,Distractor,0,9,9,9,2069.8687608410837,2071.8690222947625,left,1,4,1.0151213257340714,M05D02,2021_Oct_07_1538,t1_Paradigm,2021.1.4,60.003715103474455,
R,left,Pretarget,0,10,10,10,2073.368625302217,2075.3689252521144,left,1,4,1.0991624820744619,M05D02,2021_Oct_07_1538,t1_Paradigm,2021.1.4,60.003715103474455,
T,left,Pretarget,0,11,11,11,2076.868550395011,2078.868966154405,left,1,4,1.199393235030584,M05D02,2021_Oct_07_1538,t1_Paradigm,2021.1.4,60.003715103474455,
X,left,Distractor,0,12,12,12,2080.3686955579324,2082.368485432584,left,1,4,0.93167269078549,M05D02,2021_Oct_07_1538,t1_Paradigm,2021.1.4,60.003715103474455,
F,left,Pretarget,0,13,13,13,2083.8687541042455,2085.868522485136,left,1,4,0.9353776337811723,M05D02,2021_Oct_07_1538,t1_Paradigm,2021.1.4,60.003715103474455,
R,right,Target,0,14,14,14,2087.368882906274,2089.369608560577,right,1,4,0.8903322130208835,M05D02,2021_Oct_07_1538,t1_Paradigm,2021.1.4,60.003715103474455,
T,right,Target,0,15,15,15,2090.86874255538,2092.869193603052,right,1,4,0.9587689156178385,M05D02,2021_Oct_07_1538,t1_Paradigm,2021.1.4,60.003715103474455,
C,left,Distractor,0,16,16,16,2094.368891567923,2096.3692932120757,left,1,4,1.3628720381530002,M05D02,2021_Oct_07_1538,t1_Paradigm,2021.1.4,60.003715103474455,
F,right,Target,0,17,17,17,2097.868768861168,2099.8684458135394,right,1,4,0.9674985812744126,M05D02,2021_Oct_07_1538,t1_Paradigm,2021.1.4,60.003715103474455,
M,left,Distractor,0,18,18,18,2101.3686920290347,2103.3689550868003,left,1,4,1.1631904020905495,M05D02,2021_Oct_07_1538,t1_Paradigm,2021.1.4,60.003715103474455,
N,left,Distractor,0,19,19,19,2104.8688044701703,2106.8688728010748,right,0,4,1.0710640714969486,M05D02,2021_Oct_07_1538,t1_Paradigm,2021.1.4,60.003715103474455,
R,left,Lure,0,20,20,20,2108.36879244016,2110.368947066716,right,0,4,1.0270654279738665,M05D02,2021_Oct_07_1538,t1_Paradigm,2021.1.4,60.003715103474455,
F,right,Target,0,21,21,21,2111.868765011546,2113.8688490616623,left,0,4,0.9352069670567289,M05D02,2021_Oct_07_1538,t1_Paradigm,2021.1.4,60.003715103474455,
P,left,Distractor,0,22,22,22,2115.369439497823,2117.368887397577,left,1,4,0.7153494480298832,M05D02,2021_Oct_07_1538,t1_Paradigm,2021.1.4,60.003715103474455,
L,left,Pretarget,0,23,23,23,2118.86868096143,2120.8686427859357,left,1,4,1.4234231055015698,M05D02,2021_Oct_07_1538,t1_Paradigm,2021.1.4,60.003715103474455,
T,left,Distractor,0,24,24,24,2122.368872319814,2124.3686368510826,left,1,4,1.171296428423375,M05D02,2021_Oct_07_1538,t1_Paradigm,2021.1.4,60.003715103474455,
F,left,Distractor,0,25,25,25,2125.868700851104,2127.8692904852796,right,0,4,1.0628916391870007,M05D02,2021_Oct_07_1538,t1_Paradigm,2021.1.4,60.003715103474455,
V,left,Distractor,0,26,26,26,2129.3688011018094,2131.368688179413,left,1,4,1.0193417976843193,M05D02,2021_Oct_07_1538,t1_Paradigm,2021.1.4,60.003715103474455,
L,right,Target,0,27,27,27,2132.8688975027762,2134.8705246108584,right,1,4,0.7494632180314511,M05D02,2021_Oct_07_1538,t1_Paradigm,2021.1.4,60.003715103474455,
S,left,Pretarget,0,28,28,28,2136.368852750864,2138.3690195679665,left,1,4,0.8829836002551019,M05D02,2021_Oct_07_1538,t1_Paradigm,2021.1.4,60.003715103474455,
W,left,Distractor,0,29,29,29,2139.868804791011,2141.8688471368514,left,1,4,1.3191845725523308,M05D02,2021_Oct_07_1538,t1_Paradigm,2021.1.4,60.003715103474455,
Q,left,Distractor,0,30,30,30,2143.3687908360735,2145.369017963996,left,1,4,1.0830322338733822,M05D02,2021_Oct_07_1538,t1_Paradigm,2021.1.4,60.003715103474455,
L,right,Target,0,31,31,31,2146.868577663088,2148.8685141443275,right,1,4,1.0554974725237116,M05D02,2021_Oct_07_1538,t1_Paradigm,2021.1.4,60.003715103474455,
S,right,Target,0,32,32,32,2150.3688963799505,2152.3685579338344,left,0,4,0.9156053197802976,M05D02,2021_Oct_07_1538,t1_Paradigm,2021.1.4,60.003715103474455,
Z,left,Pretarget,0,33,33,33,2153.8688073573867,2155.869198094355,left,1,4,0.8707257536007091,M05D02,2021_Oct_07_1538,t1_Paradigm,2021.1.4,60.003715103474455,
F,left,Distractor,0,34,34,34,2157.368909853627,2159.3685213624267,left,1,4,0.6998181373346597,M05D02,2021_Oct_07_1538,t1_Paradigm,2021.1.4,60.003715103474455,
V,left,Distractor,0,35,35,35,2160.8688923699083,2162.8699426759267,left,1,4,0.9259986648103222,M05D02,2021_Oct_07_1538,t1_Paradigm,2021.1.4,60.003715103474455,
M,left,Distractor,0,36,36,36,2164.368627868709,2166.368553121807,left,1,4,1.0913971475092694,M05D02,2021_Oct_07_1538,t1_Paradigm,2021.1.4,60.003715103474455,
Z,right,Target,0,37,37,37,2167.868602364906,2169.869303958956,right,1,4,1.1269108975538984,M05D02,2021_Oct_07_1538,t1_Paradigm,2021.1.4,60.003715103474455,
H,left,Pretarget,0,38,38,38,2171.368713843636,2173.369424420176,left,1,4,1.0665317800594494,M05D02,2021_Oct_07_1538,t1_Paradigm,2021.1.4,60.003715103474455,
L,left,Distractor,0,39,39,39,2174.8687303649494,2176.869276690879,left,1,4,1.3269261677050963,M05D02,2021_Oct_07_1538,t1_Paradigm,2021.1.4,60.003715103474455,
G,left,Distractor,0,40,40,40,2178.3686917083105,2180.3692088412354,left,1,4,1.1868575739208609,M05D02,2021_Oct_07_1538,t1_Paradigm,2021.1.4,60.003715103474455,
K,left,Distractor,0,41,41,41,2181.8693754978012,2183.8700440493412,left,1,4,1.0939282757462934,M05D02,2021_Oct_07_1538,t1_Paradigm,2021.1.4,60.003715103474455,
H,right,Target,0,42,42,42,2185.3689416131238,2187.3706851722673,right,1,4,0.5692780060926452,M05D02,2021_Oct_07_1538,t1_Paradigm,2021.1.4,60.003715103474455,
B,left,Distractor,0,43,43,43,2188.8688878787216,2190.8698627961567,left,1,4,1.3741164710372686,M05D02,2021_Oct_07_1538,t1_Paradigm,2021.1.4,60.003715103474455,
Z,left,Distractor,0,44,44,44,2192.3688694325974,2194.369734314969,left,1,4,1.426499918103218,M05D02,2021_Oct_07_1538,t1_Paradigm,2021.1.4,60.003715103474455,
T,left,Pretarget,0,45,45,45,2195.868806394981,2197.8685324300313,None,0,4,,M05D02,2021_Oct_07_1538,t1_Paradigm,2021.1.4,60.003715103474455,
H,right,Target,0,46,46,46,2199.3693631469505,2201.369318876299,right,1,4,0.9706385917961597,M05D02,2021_Oct_07_1538,t1_Paradigm,2021.1.4,60.003715103474455,
F,left,Distractor,0,47,47,47,2202.8688124902546,2204.869044750929,left,1,4,1.0549088008701801,M05D02,2021_Oct_07_1538,t1_Paradigm,2021.1.4,60.003715103474455,
R,left,Distractor,0,48,48,48,2206.3687651719665,2208.3692495831056,left,1,4,1.0587404605466872,M05D02,2021_Oct_07_1538,t1_Paradigm,2021.1.4,60.003715103474455,
T,right,Target,0,49,49,49,2209.868683206965,2211.8689709664322,right,1,4,0.7430507056415081,M05D02,2021_Oct_07_1538,t1_Paradigm,2021.1.4,60.003715103474455,
H,right,Target,0,50,50,50,2213.3689085704973,2215.3686798386043,right,1,4,0.7794129771646112,M05D02,2021_Oct_07_1538,t1_Paradigm,2021.1.4,60.003715103474455,
Y,left,Pretarget,0,51,51,51,2216.86873357289,2218.8694268261315,left,1,4,0.686619057552889,M05D02,2021_Oct_07_1538,t1_Paradigm,2021.1.4,60.003715103474455,
H,left,Distractor,0,52,52,52,2220.368932630634,2222.3693381244084,left,1,4,1.1866926816292107,M05D02,2021_Oct_07_1538,t1_Paradigm,2021.1.4,60.003715103474455,
S,left,Distractor,0,53,53,53,2223.868693472701,2225.8692975429585,left,1,4,0.9347693930612877,M05D02,2021_Oct_07_1538,t1_Paradigm,2021.1.4,60.003715103474455,
Q,left,Distractor,0,54,54,54,2227.3687475278275,2229.369211728452,left,1,4,1.0187223288230598,M05D02,2021_Oct_07_1538,t1_Paradigm,2021.1.4,60.003715103474455,
Y,right,Target,0,55,55,55,2230.8686235378264,2232.8710289116716,right,1,4,0.6049284178297967,M05D02,2021_Oct_07_1538,t1_Paradigm,2021.1.4,60.003715103474455,
R,left,Distractor,0,56,56,56,2234.3688598085428,2236.368980430183,left,1,4,1.2350391554646194,M05D02,2021_Oct_07_1538,t1_Paradigm,2021.1.4,60.003715103474455,
H,left,Pretarget,0,57,57,57,2237.868624500232,2239.8684333022684,left,1,4,1.0954815993318334,M05D02,2021_Oct_07_1538,t1_Paradigm,2021.1.4,60.003715103474455,
J,left,Distractor,0,58,58,58,2241.36888418952,2243.368563708267,left,1,4,1.2595144276274368,M05D02,2021_Oct_07_1538,t1_Paradigm,2021.1.4,60.003715103474455,
V,left,Distractor,0,59,59,59,2244.868715287186,2246.8694569815416,left,1,4,1.006799078779295,M05D02,2021_Oct_07_1538,t1_Paradigm,2021.1.4,60.003715103474455,
Y,left,Lure,0,60,60,60,2248.369443989126,2250.3685810315656,left,1,4,0.9315549563616514,M05D02,2021_Oct_07_1538,t1_Paradigm,2021.1.4,60.003715103474455,
H,right,Target,0,61,61,61,2251.8687361393822,2253.8693084502593,left,0,4,0.9990404810523614,M05D02,2021_Oct_07_1538,t1_Paradigm,2021.1.4,60.003715103474455,
L,left,Distractor,0,62,62,62,2255.3687488110736,2257.3691809313605,left,1,4,0.7629850247176364,M05D02,2021_Oct_07_1538,t1_Paradigm,2021.1.4,60.003715103474455,
P,left,Distractor,0,63,63,63,2258.868786505307,2260.8692183048697,right,0,4,0.7829241557046771,M05D02,2021_Oct_07_1538,t1_Paradigm,2021.1.4,60.003715103474455,
