Letter,CorrAnswer,Stimulus,nback_run.thisRepN,nback_run.thisTrialN,nback_run.thisN,nback_run.thisIndex,fixcross.started,nback_trial.started,trial_resp.keys,trial_resp.corr,currentlevel,trial_resp.rt,Participant,date,expName,psychopyVersion,frameRate,
H,left,Distractor,0,0,0,0,207.50543229811592,209.50088493188377,None,0,1,,M28I03,2021_Oct_20_0837,t1_Paradigm,2021.1.4,59.93234227527247,
Q,left,Pretarget,0,1,1,1,210.99095114215743,212.98957490222529,left,1,1,0.6079175821505487,M28I03,2021_Oct_20_0837,t1_Paradigm,2021.1.4,59.93234227527247,
Q,right,Target,0,2,2,2,214.48774232168216,216.48770671267994,left,0,1,0.9658076555933803,M28I03,2021_Oct_20_0837,t1_Paradigm,2021.1.4,59.93234227527247,
T,left,Distractor,0,3,3,3,217.9877854695078,219.9886089678621,None,0,1,,M28I03,2021_Oct_20_0837,t1_Paradigm,2021.1.4,59.93234227527247,
Q,left,Lure,0,4,4,4,221.48779364995426,223.48768361494876,None,0,1,,M28I03,2021_Oct_20_0837,t1_Paradigm,2021.1.4,59.93234227527247,
L,left,Distractor,0,5,5,5,224.98784674267517,226.98976802494144,right,0,1,0.8798686894006096,M28I03,2021_Oct_20_0837,t1_Paradigm,2021.1.4,59.93234227527247,
V,left,Pretarget,0,6,6,6,228.48767655726988,230.4877343015978,left,1,1,1.445831163902767,M28I03,2021_Oct_20_0837,t1_Paradigm,2021.1.4,59.93234227527247,
V,right,Target,0,7,7,7,231.98792598070577,233.98782428650884,right,1,1,1.0336440940736793,M28I03,2021_Oct_20_0837,t1_Paradigm,2021.1.4,59.93234227527247,
K,left,Distractor,0,8,8,8,235.48795501329005,237.4896587919211,left,1,1,0.7480319608584978,M28I03,2021_Oct_20_0837,t1_Paradigm,2021.1.4,59.93234227527247,
G,left,Pretarget,0,9,9,9,238.98771970515372,240.9888162058778,left,1,1,0.5605264871846884,M28I03,2021_Oct_20_0837,t1_Paradigm,2021.1.4,59.93234227527247,
G,right,Target,0,10,10,10,242.48775836173445,244.48774200084154,None,0,1,,M28I03,2021_Oct_20_0837,t1_Paradigm,2021.1.4,59.93234227527247,
G,right,Target,0,11,11,11,245.98757149465382,247.98767575528473,right,1,1,0.8736778552411124,M28I03,2021_Oct_20_0837,t1_Paradigm,2021.1.4,59.93234227527247,
P,left,Pretarget,0,12,12,12,249.4877545121126,251.48818085779203,left,1,1,1.0051979523850605,M28I03,2021_Oct_20_0837,t1_Paradigm,2021.1.4,59.93234227527247,
P,right,Target,0,13,13,13,252.98766581044765,254.9878736900282,right,1,1,0.753504519641865,M28I03,2021_Oct_20_0837,t1_Paradigm,2021.1.4,59.93234227527247,
G,left,Lure,0,14,14,14,256.48781867249636,258.48802109848475,left,1,1,0.5173735054559074,M28I03,2021_Oct_20_0837,t1_Paradigm,2021.1.4,59.93234227527247,
Y,left,Distractor,0,15,15,15,259.98796511854744,261.98983154370217,right,0,1,0.7916205914807506,M28I03,2021_Oct_20_0837,t1_Paradigm,2021.1.4,59.93234227527247,
B,left,Distractor,0,16,16,16,263.4875668430468,265.48910155909834,left,1,1,1.260246972553432,M28I03,2021_Oct_20_0837,t1_Paradigm,2021.1.4,59.93234227527247,
T,left,Pretarget,0,17,17,17,266.9878865220817,268.9881771685905,left,1,1,0.6572078241151758,M28I03,2021_Oct_20_0837,t1_Paradigm,2021.1.4,59.93234227527247,
T,right,Target,0,18,18,18,270.4878016699804,272.4879437852069,left,0,1,1.3015258298255503,M28I03,2021_Oct_20_0837,t1_Paradigm,2021.1.4,59.93234227527247,
S,left,Distractor,0,19,19,19,273.9877902815351,275.9895954335807,left,1,1,0.9039625123259611,M28I03,2021_Oct_20_0837,t1_Paradigm,2021.1.4,59.93234227527247,
T,left,Lure,0,20,20,20,277.48776830662973,279.48846572980983,left,1,1,1.0369817165774293,M28I03,2021_Oct_20_0837,t1_Paradigm,2021.1.4,59.93234227527247,
J,left,Distractor,0,21,21,21,280.9876462414977,282.9882698802976,right,0,1,0.8494098368682899,M28I03,2021_Oct_20_0837,t1_Paradigm,2021.1.4,59.93234227527247,
P,left,Distractor,0,22,22,22,284.4878064820077,286.4877121662721,left,1,1,0.7097327110823244,M28I03,2021_Oct_20_0837,t1_Paradigm,2021.1.4,59.93234227527247,
F,left,Distractor,0,23,23,23,287.98764207109343,289.9894064812688,left,1,1,0.5519966867868789,M28I03,2021_Oct_20_0837,t1_Paradigm,2021.1.4,59.93234227527247,
L,left,Distractor,0,24,24,24,291.487884116068,293.4880409881589,left,1,1,0.8134963904740289,M28I03,2021_Oct_20_0837,t1_Paradigm,2021.1.4,59.93234227527247,
W,left,Pretarget,0,25,25,25,294.9876767176902,296.9876712640398,left,1,1,0.7377194645232521,M28I03,2021_Oct_20_0837,t1_Paradigm,2021.1.4,59.93234227527247,
W,right,Target,0,26,26,26,298.48786133917747,300.4878590935259,right,1,1,0.9015667641651817,M28I03,2021_Oct_20_0837,t1_Paradigm,2021.1.4,59.93234227527247,
V,left,Distractor,0,27,27,27,301.98774793569464,303.9880251084687,left,1,1,0.9534019271959551,M28I03,2021_Oct_20_0837,t1_Paradigm,2021.1.4,59.93234227527247,
W,left,Lure,0,28,28,28,305.4877503417083,307.48786422639387,None,0,1,,M28I03,2021_Oct_20_0837,t1_Paradigm,2021.1.4,59.93234227527247,
R,left,Pretarget,0,29,29,29,308.98767768009566,310.9883019605186,left,1,1,1.0091232837876305,M28I03,2021_Oct_20_0837,t1_Paradigm,2021.1.4,59.93234227527247,
R,right,Target,0,30,30,30,312.48855972476304,314.48786807601573,right,1,1,0.645616932422854,M28I03,2021_Oct_20_0837,t1_Paradigm,2021.1.4,59.93234227527247,
G,left,Distractor,0,31,31,31,315.9878900509211,317.98835874244105,left,1,1,0.6172150613856502,M28I03,2021_Oct_20_0837,t1_Paradigm,2021.1.4,59.93234227527247,
R,left,Lure,0,32,32,32,319.4878337502014,321.48842017597053,left,1,1,0.6369283351232298,M28I03,2021_Oct_20_0837,t1_Paradigm,2021.1.4,59.93234227527247,
S,left,Distractor,0,33,33,33,322.987937850412,324.9882820707862,left,1,1,0.6090939625282772,M28I03,2021_Oct_20_0837,t1_Paradigm,2021.1.4,59.93234227527247,
R,left,Lure,0,34,34,34,326.4879774693982,328.4883553740219,left,1,1,0.7250362425693311,M28I03,2021_Oct_20_0837,t1_Paradigm,2021.1.4,59.93234227527247,
P,left,Pretarget,0,35,35,35,329.9880748327705,331.98759362997953,left,1,1,0.6821004436933435,M28I03,2021_Oct_20_0837,t1_Paradigm,2021.1.4,59.93234227527247,
P,right,Target,0,36,36,36,333.48803136410424,335.4879482764518,right,1,1,0.8298200718709268,M28I03,2021_Oct_20_0837,t1_Paradigm,2021.1.4,59.93234227527247,
Y,left,Pretarget,0,37,37,37,336.9880478854175,338.98882101790514,left,1,1,0.7046589090605266,M28I03,2021_Oct_20_0837,t1_Paradigm,2021.1.4,59.93234227527247,
Y,right,Target,0,38,38,38,340.48775675776415,342.48771152470727,right,1,1,0.7096910068648867,M28I03,2021_Oct_20_0837,t1_Paradigm,2021.1.4,59.93234227527247,
J,left,Distractor,0,39,39,39,343.98767928412417,345.987979233847,left,1,1,0.6495913465623744,M28I03,2021_Oct_20_0837,t1_Paradigm,2021.1.4,59.93234227527247,
Y,left,Lure,0,40,40,40,347.48767463245895,349.487842732633,left,1,1,1.0535713426652364,M28I03,2021_Oct_20_0837,t1_Paradigm,2021.1.4,59.93234227527247,
T,left,Distractor,0,41,41,41,350.98790512862615,352.9879583817092,left,1,1,0.7374711639713496,M28I03,2021_Oct_20_0837,t1_Paradigm,2021.1.4,59.93234227527247,
V,left,Distractor,0,42,42,42,354.48784337425604,356.48834093793994,left,1,1,0.6772890575812198,M28I03,2021_Oct_20_0837,t1_Paradigm,2021.1.4,59.93234227527247,
N,left,Pretarget,0,43,43,43,357.9878027928062,359.9876298806048,left,1,1,0.6658043513307348,M28I03,2021_Oct_20_0837,t1_Paradigm,2021.1.4,59.93234227527247,
N,right,Target,0,44,44,44,361.4875004370697,363.48799350950867,left,0,1,0.669442565063946,M28I03,2021_Oct_20_0837,t1_Paradigm,2021.1.4,59.93234227527247,
N,right,Target,0,45,45,45,364.98802542930935,366.98785540432436,right,1,1,0.7214759836206213,M28I03,2021_Oct_20_0837,t1_Paradigm,2021.1.4,59.93234227527247,
X,left,Distractor,0,46,46,46,368.4879027226125,370.4885603663861,left,1,1,0.6290138326585293,M28I03,2021_Oct_20_0837,t1_Paradigm,2021.1.4,59.93234227527247,
Z,left,Distractor,0,47,47,47,371.98770398582565,373.98752369522117,left,1,1,0.5857861040858552,M28I03,2021_Oct_20_0837,t1_Paradigm,2021.1.4,59.93234227527247,
H,left,Pretarget,0,48,48,48,375.48763806105126,377.4874847177998,left,1,1,0.6058144051930867,M28I03,2021_Oct_20_0837,t1_Paradigm,2021.1.4,59.93234227527247,
H,right,Target,0,49,49,49,378.98860993026756,380.9879715346033,right,1,1,0.6253653531894088,M28I03,2021_Oct_20_0837,t1_Paradigm,2021.1.4,59.93234227527247,
K,left,Distractor,0,50,50,50,382.4879620709107,384.48880193015793,left,1,1,0.644678586977534,M28I03,2021_Oct_20_0837,t1_Paradigm,2021.1.4,59.93234227527247,
V,left,Pretarget,0,51,51,51,385.98758047714364,387.9878364769975,left,1,1,0.6655608626897447,M28I03,2021_Oct_20_0837,t1_Paradigm,2021.1.4,59.93234227527247,
V,right,Target,0,52,52,52,389.4876913141925,391.48773783043725,right,1,1,1.0059909746050835,M28I03,2021_Oct_20_0837,t1_Paradigm,2021.1.4,59.93234227527247,
R,left,Distractor,0,53,53,53,392.9875872139819,394.987865028379,left,1,1,0.5613839905126952,M28I03,2021_Oct_20_0837,t1_Paradigm,2021.1.4,59.93234227527247,
V,left,Lure,0,54,54,54,396.4878064820077,398.4882815895835,left,1,1,0.8531491032335907,M28I03,2021_Oct_20_0837,t1_Paradigm,2021.1.4,59.93234227527247,
Y,left,Distractor,0,55,55,55,399.98773029161384,401.9882137399982,left,1,1,0.6494075271184556,M28I03,2021_Oct_20_0837,t1_Paradigm,2021.1.4,59.93234227527247,
Q,left,Distractor,0,56,56,56,403.48765698837815,405.48787160479696,left,1,1,0.5893883880926296,M28I03,2021_Oct_20_0837,t1_Paradigm,2021.1.4,59.93234227527247,
Z,left,Pretarget,0,57,57,57,406.98766581044765,408.98798308346886,left,1,1,0.7533948053605855,M28I03,2021_Oct_20_0837,t1_Paradigm,2021.1.4,59.93234227527247,
Z,right,Target,0,58,58,58,410.4876252289978,412.487716657517,right,1,1,0.7895911990199238,M28I03,2021_Oct_20_0837,t1_Paradigm,2021.1.4,59.93234227527247,
B,left,Distractor,0,59,59,59,413.98767896328354,415.9883138301666,left,1,1,0.6010777658666484,M28I03,2021_Oct_20_0837,t1_Paradigm,2021.1.4,59.93234227527247,
S,left,Pretarget,0,60,60,60,417.4878116148757,419.48830436653225,left,1,1,0.7010954420547932,M28I03,2021_Oct_20_0837,t1_Paradigm,2021.1.4,59.93234227527247,
S,right,Target,0,61,61,61,420.9877944519394,422.9878688780009,right,1,1,0.9136568235117011,M28I03,2021_Oct_20_0837,t1_Paradigm,2021.1.4,59.93234227527247,
T,left,Distractor,0,62,62,62,424.4877946123597,426.48814268235583,left,1,1,0.5334575478336774,M28I03,2021_Oct_20_0837,t1_Paradigm,2021.1.4,59.93234227527247,
D,left,Distractor,0,63,63,63,427.9877280459623,429.9900535385823,left,1,1,0.5673175415140577,M28I03,2021_Oct_20_0837,t1_Paradigm,2021.1.4,59.93234227527247,
R,left,Distractor,0,0,0,0,439.29937774065183,441.2880450944649,None,0,1,,M28I03,2021_Oct_20_0837,t1_Paradigm,2021.1.4,59.93234227527247,
V,left,Distractor,0,1,1,1,442.7877674404299,444.787877796276,left,1,1,0.6976153836003505,M28I03,2021_Oct_20_0837,t1_Paradigm,2021.1.4,59.93234227527247,
N,left,Pretarget,0,2,2,2,446.2875372651033,448.2879469291074,left,1,1,0.6213043226161972,M28I03,2021_Oct_20_0837,t1_Paradigm,2021.1.4,59.93234227527247,
N,right,Target,0,3,3,3,449.78776391164865,451.78769654326607,right,1,1,0.8499131749849766,M28I03,2021_Oct_20_0837,t1_Paradigm,2021.1.4,59.93234227527247,
S,left,Distractor,0,4,4,4,453.28775188158033,455.2880492648692,left,1,1,0.5653831063536927,M28I03,2021_Oct_20_0837,t1_Paradigm,2021.1.4,59.93234227527247,
N,left,Lure,0,5,5,5,456.7877231697785,458.7878864579252,left,1,1,0.7776612197631039,M28I03,2021_Oct_20_0837,t1_Paradigm,2021.1.4,59.93234227527247,
Z,left,Distractor,0,6,6,6,460.28767168108607,462.3045580488979,left,1,1,0.540744241036009,M28I03,2021_Oct_20_0837,t1_Paradigm,2021.1.4,59.93234227527247,
L,left,Pretarget,0,7,7,7,463.78789768600836,465.78886779077584,left,1,1,0.5286496904445812,M28I03,2021_Oct_20_0837,t1_Paradigm,2021.1.4,59.93234227527247,
L,right,Target,0,8,8,8,467.2876835507341,469.2875064681284,left,0,1,0.5979852360324003,M28I03,2021_Oct_20_0837,t1_Paradigm,2021.1.4,59.93234227527247,
H,left,Distractor,0,9,9,9,470.78759484906914,472.7875505784177,left,1,1,0.6339872237294912,M28I03,2021_Oct_20_0837,t1_Paradigm,2021.1.4,59.93234227527247,
L,left,Lure,0,10,10,10,474.28760078386404,476.2875196210225,left,1,1,0.6056985957548022,M28I03,2021_Oct_20_0837,t1_Paradigm,2021.1.4,59.93234227527247,
X,left,Pretarget,0,11,11,11,477.78763174125925,479.78841546020703,left,1,1,0.608967887412291,M28I03,2021_Oct_20_0837,t1_Paradigm,2021.1.4,59.93234227527247,
X,right,Target,0,12,12,12,481.2878365732613,483.2878923927783,left,0,1,0.7414000241551548,M28I03,2021_Oct_20_0837,t1_Paradigm,2021.1.4,59.93234227527247,
X,right,Target,0,13,13,13,484.7876865983708,486.78777995170094,right,1,1,0.633669309085235,M28I03,2021_Oct_20_0837,t1_Paradigm,2021.1.4,59.93234227527247,
R,left,Distractor,0,14,14,14,488.28773135022493,490.2880585681414,left,1,1,0.49316579778678715,M28I03,2021_Oct_20_0837,t1_Paradigm,2021.1.4,59.93234227527247,
T,left,Distractor,0,15,15,15,491.78781267348677,493.78817967080977,left,1,1,0.5930987822357565,M28I03,2021_Oct_20_0837,t1_Paradigm,2021.1.4,59.93234227527247,
V,left,Pretarget,0,16,16,16,495.28746027266607,497.28791484888643,left,1,1,0.5014517887611873,M28I03,2021_Oct_20_0837,t1_Paradigm,2021.1.4,59.93234227527247,
V,right,Target,0,17,17,17,498.7875592400669,500.78761249314994,right,1,1,0.6017399009433575,M28I03,2021_Oct_20_0837,t1_Paradigm,2021.1.4,59.93234227527247,
N,left,Distractor,0,18,18,18,502.28782438277267,504.28807685384527,left,1,1,1.4051720957504585,M28I03,2021_Oct_20_0837,t1_Paradigm,2021.1.4,59.93234227527247,
B,left,Distractor,0,19,19,19,505.78774755075574,507.78832018200774,left,1,1,0.6569855083944276,M28I03,2021_Oct_20_0837,t1_Paradigm,2021.1.4,59.93234227527247,
V,left,Lure,0,20,20,20,509.2877339166589,511.28828216699185,left,1,1,0.9010541227762587,M28I03,2021_Oct_20_0837,t1_Paradigm,2021.1.4,59.93234227527247,
P,left,Distractor,0,21,21,21,512.7878540569218,514.7878174855141,left,1,1,0.6816612659604289,M28I03,2021_Oct_20_0837,t1_Paradigm,2021.1.4,59.93234227527247,
K,left,Pretarget,0,22,22,22,516.2876325432444,518.2880697961664,left,1,1,0.5732809271430597,M28I03,2021_Oct_20_0837,t1_Paradigm,2021.1.4,59.93234227527247,
K,right,Target,0,23,23,23,519.7876362325042,521.7875419167685,right,1,1,0.689708259596955,M28I03,2021_Oct_20_0837,t1_Paradigm,2021.1.4,59.93234227527247,
J,left,Pretarget,0,24,24,24,523.2875873101875,525.2880502272747,left,1,1,0.8851718647638336,M28I03,2021_Oct_20_0837,t1_Paradigm,2021.1.4,59.93234227527247,
J,right,Target,0,25,25,25,526.7875646936591,528.7874867388164,right,1,1,0.746335239848122,M28I03,2021_Oct_20_0837,t1_Paradigm,2021.1.4,59.93234227527247,
H,left,Distractor,0,26,26,26,530.2876505081658,532.2882754301536,left,1,1,0.7329635771457106,M28I03,2021_Oct_20_0837,t1_Paradigm,2021.1.4,59.93234227527247,
J,left,Lure,0,27,27,27,533.7877982374048,535.7882319615455,left,1,1,0.7050060166511685,M28I03,2021_Oct_20_0837,t1_Paradigm,2021.1.4,59.93234227527247,
V,left,Distractor,0,28,28,28,537.2877374454984,539.2881663575536,left,1,1,0.8852010577684268,M28I03,2021_Oct_20_0837,t1_Paradigm,2021.1.4,59.93234227527247,
Z,left,Pretarget,0,29,29,29,540.7878142775153,542.7882133550011,left,1,1,0.5691172399092466,M28I03,2021_Oct_20_0837,t1_Paradigm,2021.1.4,59.93234227527247,
Z,right,Target,0,30,30,30,544.2876428089221,546.2879299265915,right,1,1,0.81361027515959,M28I03,2021_Oct_20_0837,t1_Paradigm,2021.1.4,59.93234227527247,
T,left,Distractor,0,31,31,31,547.7880667485879,549.7880186283146,left,1,1,0.7051856656908058,M28I03,2021_Oct_20_0837,t1_Paradigm,2021.1.4,59.93234227527247,
Z,left,Lure,0,32,32,32,551.2876065582968,553.2876639818423,left,1,1,0.8215478753554635,M28I03,2021_Oct_20_0837,t1_Paradigm,2021.1.4,59.93234227527247,
F,left,Distractor,0,33,33,33,554.787642006937,556.7879695456359,left,1,1,0.6013427482102998,M28I03,2021_Oct_20_0837,t1_Paradigm,2021.1.4,59.93234227527247,
Y,left,Pretarget,0,34,34,34,558.2877428990905,560.288240141992,left,1,1,0.588971987250261,M28I03,2021_Oct_20_0837,t1_Paradigm,2021.1.4,59.93234227527247,
Y,right,Target,0,35,35,35,561.7875512199826,563.7878569441382,right,1,1,0.689404781034682,M28I03,2021_Oct_20_0837,t1_Paradigm,2021.1.4,59.93234227527247,
Y,right,Target,0,36,36,36,565.2878757110448,567.2878962424002,right,1,1,0.9655166882439516,M28I03,2021_Oct_20_0837,t1_Paradigm,2021.1.4,59.93234227527247,
W,left,Distractor,0,37,37,37,568.7878312800312,570.7887272795779,left,1,1,0.7925849218736403,M28I03,2021_Oct_20_0837,t1_Paradigm,2021.1.4,59.93234227527247,
Q,left,Distractor,0,38,38,38,572.2875799317844,574.2876498665428,left,1,1,1.2137570099439472,M28I03,2021_Oct_20_0837,t1_Paradigm,2021.1.4,59.93234227527247,
P,left,Pretarget,0,39,39,39,575.7875255558756,577.7877565331873,left,1,1,0.7375654797069728,M28I03,2021_Oct_20_0837,t1_Paradigm,2021.1.4,59.93234227527247,
P,right,Target,0,40,40,40,579.2878269492066,581.2877682424732,right,1,1,0.7734725099871866,M28I03,2021_Oct_20_0837,t1_Paradigm,2021.1.4,59.93234227527247,
J,left,Distractor,0,41,41,41,582.7876798615325,584.7881113400217,left,1,1,0.6813472009962425,M28I03,2021_Oct_20_0837,t1_Paradigm,2021.1.4,59.93234227527247,
P,left,Lure,0,42,42,42,586.2876890043844,588.2881990793394,left,1,1,1.005007396102883,M28I03,2021_Oct_20_0837,t1_Paradigm,2021.1.4,59.93234227527247,
L,left,Distractor,0,43,43,43,589.7878113902989,591.7882800818188,left,1,1,0.560912090993952,M28I03,2021_Oct_20_0837,t1_Paradigm,2021.1.4,59.93234227527247,
Z,left,Distractor,0,44,44,44,593.2876306184335,595.2881596207153,left,1,1,0.7250827588723041,M28I03,2021_Oct_20_0837,t1_Paradigm,2021.1.4,59.93234227527247,
F,left,Pretarget,0,45,45,45,596.7876137763378,598.7881854452426,left,1,1,0.6972246469231322,M28I03,2021_Oct_20_0837,t1_Paradigm,2021.1.4,59.93234227527247,
F,right,Target,0,46,46,46,600.2876649442478,602.2877082524938,right,1,1,0.7174903414561413,M28I03,2021_Oct_20_0837,t1_Paradigm,2021.1.4,59.93234227527247,
G,left,Pretarget,0,47,47,47,603.7876724830712,605.788089204696,left,1,1,0.6251924409880303,M28I03,2021_Oct_20_0837,t1_Paradigm,2021.1.4,59.93234227527247,
G,right,Target,0,48,48,48,607.2876678314642,609.2877534855506,right,1,1,0.7894340060884133,M28I03,2021_Oct_20_0837,t1_Paradigm,2021.1.4,59.93234227527247,
V,left,Distractor,0,49,49,49,610.7877302274574,612.7882550592767,left,1,1,0.5690197161748074,M28I03,2021_Oct_20_0837,t1_Paradigm,2021.1.4,59.93234227527247,
G,left,Lure,0,50,50,50,614.2875985382707,616.2883286832948,left,1,1,0.700978028587997,M28I03,2021_Oct_20_0837,t1_Paradigm,2021.1.4,59.93234227527247,
Q,left,Pretarget,0,51,51,51,617.7876740870997,619.7881260969443,left,1,1,1.345416655880399,M28I03,2021_Oct_20_0837,t1_Paradigm,2021.1.4,59.93234227527247,
Q,right,Target,0,52,52,52,621.2876822675462,623.2876752099255,right,1,1,0.6935267639928497,M28I03,2021_Oct_20_0837,t1_Paradigm,2021.1.4,59.93234227527247,
Y,left,Distractor,0,53,53,53,624.7877193201566,626.7882515304373,left,1,1,0.7609330072300509,M28I03,2021_Oct_20_0837,t1_Paradigm,2021.1.4,59.93234227527247,
V,left,Distractor,0,54,54,54,628.2876732851146,630.2873826386058,left,1,1,1.214093531074468,M28I03,2021_Oct_20_0837,t1_Paradigm,2021.1.4,59.93234227527247,
B,left,Distractor,0,55,55,55,631.7877677612705,633.7880946583464,left,1,1,0.7050923123024404,M28I03,2021_Oct_20_0837,t1_Paradigm,2021.1.4,59.93234227527247,
J,left,Pretarget,0,56,56,56,635.2877441823366,637.2882500868291,left,1,1,0.6452778449165635,M28I03,2021_Oct_20_0837,t1_Paradigm,2021.1.4,59.93234227527247,
J,right,Target,0,57,57,57,638.7877106585074,640.7876577262068,right,1,1,0.9536146188038401,M28I03,2021_Oct_20_0837,t1_Paradigm,2021.1.4,59.93234227527247,
H,left,Distractor,0,58,58,58,642.287730067037,644.2874490445829,left,1,1,0.79798369621858,M28I03,2021_Oct_20_0837,t1_Paradigm,2021.1.4,59.93234227527247,
J,left,Lure,0,59,59,59,645.7876314204768,647.7879836608772,left,1,1,0.8013100905809551,M28I03,2021_Oct_20_0837,t1_Paradigm,2021.1.4,59.93234227527247,
D,left,Pretarget,0,60,60,60,649.2877441823366,651.2881461470388,left,1,1,0.5651912668836303,M28I03,2021_Oct_20_0837,t1_Paradigm,2021.1.4,59.93234227527247,
D,right,Target,0,61,61,61,652.787741776323,654.7877157913754,right,1,1,1.1614393609343097,M28I03,2021_Oct_20_0837,t1_Paradigm,2021.1.4,59.93234227527247,
R,left,Distractor,0,62,62,62,656.2877971146372,658.287997294974,left,1,1,0.5892719369730912,M28I03,2021_Oct_20_0837,t1_Paradigm,2021.1.4,59.93234227527247,
F,left,Distractor,0,63,63,63,659.7878065782716,661.7879316909821,left,1,1,0.7693973640562035,M28I03,2021_Oct_20_0837,t1_Paradigm,2021.1.4,59.93234227527247,
F,left,Distractor,0,0,0,0,798.2990736204665,800.2874580270727,None,0,2,,M28I03,2021_Oct_20_0837,t1_Paradigm,2021.1.4,59.93234227527247,
N,left,Pretarget,0,1,1,1,801.787454337813,803.7874476009747,None,0,2,,M28I03,2021_Oct_20_0837,t1_Paradigm,2021.1.4,59.93234227527247,
V,left,Distractor,0,2,2,2,805.2875934054609,807.2873261775239,left,1,2,0.741796214482747,M28I03,2021_Oct_20_0837,t1_Paradigm,2021.1.4,59.93234227527247,
N,right,Target,0,3,3,3,808.787396593485,810.787501495739,right,1,2,1.1936956662102602,M28I03,2021_Oct_20_0837,t1_Paradigm,2021.1.4,59.93234227527247,
N,left,Lure,0,4,4,4,812.2873989994987,814.2873819970409,left,1,2,1.1657047423068434,M28I03,2021_Oct_20_0837,t1_Paradigm,2021.1.4,59.93234227527247,
X,left,Distractor,0,5,5,5,815.7873074106174,817.7873080521822,None,0,2,,M28I03,2021_Oct_20_0837,t1_Paradigm,2021.1.4,59.93234227527247,
G,left,Pretarget,0,6,6,6,819.2873441423872,821.2876270896522,left,1,2,0.8695792908547446,M28I03,2021_Oct_20_0837,t1_Paradigm,2021.1.4,59.93234227527247,
H,left,Pretarget,0,7,7,7,822.7874710195465,824.7876525933971,left,1,2,0.8574430360458791,M28I03,2021_Oct_20_0837,t1_Paradigm,2021.1.4,59.93234227527247,
G,right,Target,0,8,8,8,826.2874201724189,828.2876995908446,right,1,2,0.8613693298539147,M28I03,2021_Oct_20_0837,t1_Paradigm,2021.1.4,59.93234227527247,
H,right,Target,0,9,9,9,829.7875435207388,831.7880516708829,right,1,2,1.1530709238140844,M28I03,2021_Oct_20_0837,t1_Paradigm,2021.1.4,59.93234227527247,
T,left,Pretarget,0,10,10,10,833.2876229191897,835.288125936524,left,1,2,0.5651255025295541,M28I03,2021_Oct_20_0837,t1_Paradigm,2021.1.4,59.93234227527247,
K,left,Distractor,0,11,11,11,836.787554107199,838.7880487836665,left,1,2,1.0491490891436115,M28I03,2021_Oct_20_0837,t1_Paradigm,2021.1.4,59.93234227527247,
T,right,Target,0,12,12,12,840.2873733353917,842.2874795207754,right,1,2,0.989573298196774,M28I03,2021_Oct_20_0837,t1_Paradigm,2021.1.4,59.93234227527247,
T,left,Lure,0,13,13,13,843.7872766136425,845.7872948993463,left,1,2,1.2179418700397946,M28I03,2021_Oct_20_0837,t1_Paradigm,2021.1.4,59.93234227527247,
J,left,Distractor,0,14,14,14,847.2875189793995,849.2881625079317,left,1,2,0.9009633358800784,M28I03,2021_Oct_20_0837,t1_Paradigm,2021.1.4,59.93234227527247,
Q,left,Pretarget,0,15,15,15,850.7875865082024,852.7880924126948,left,1,2,1.0010916886967607,M28I03,2021_Oct_20_0837,t1_Paradigm,2021.1.4,59.93234227527247,
M,left,Distractor,0,16,16,16,854.2877275006031,856.2893934246385,left,1,2,0.7479222466354258,M28I03,2021_Oct_20_0837,t1_Paradigm,2021.1.4,59.93234227527247,
Q,right,Target,0,17,17,17,857.7874341272982,859.7873571348609,right,1,2,0.6737884677713737,M28I03,2021_Oct_20_0837,t1_Paradigm,2021.1.4,59.93234227527247,
R,left,Distractor,0,18,18,18,861.287295380549,863.2878628789913,left,1,2,1.221226881025359,M28I03,2021_Oct_20_0837,t1_Paradigm,2021.1.4,59.93234227527247,
W,left,Distractor,0,19,19,19,864.7874902676558,866.7881674803793,left,1,2,0.6811367549817078,M28I03,2021_Oct_20_0837,t1_Paradigm,2021.1.4,59.93234227527247,
C,left,Pretarget,0,20,20,20,868.2876148991636,870.2894322416396,left,1,2,1.099730558518786,M28I03,2021_Oct_20_0837,t1_Paradigm,2021.1.4,59.93234227527247,
T,left,Distractor,0,21,21,21,871.7872852752917,873.7873394907801,left,1,2,1.4257332487613894,M28I03,2021_Oct_20_0837,t1_Paradigm,2021.1.4,59.93234227527247,
C,right,Target,0,22,22,22,875.2873444632278,877.2872607339523,right,1,2,0.6300121680251323,M28I03,2021_Oct_20_0837,t1_Paradigm,2021.1.4,59.93234227527247,
F,left,Pretarget,0,23,23,23,878.7872490246664,880.7874783980078,left,1,2,1.09781376743922,M28I03,2021_Oct_20_0837,t1_Paradigm,2021.1.4,59.93234227527247,
C,right,Target,0,24,24,24,882.2874676511274,884.2876575657865,left,0,2,1.4374614436528645,M28I03,2021_Oct_20_0837,t1_Paradigm,2021.1.4,59.93234227527247,
F,right,Target,0,25,25,25,885.7874158415943,887.787722207373,right,1,2,0.7373736401787028,M28I03,2021_Oct_20_0837,t1_Paradigm,2021.1.4,59.93234227527247,
H,left,Distractor,0,26,26,26,889.2873441423872,891.2876720018685,None,0,2,,M28I03,2021_Oct_20_0837,t1_Paradigm,2021.1.4,59.93234227527247,
H,left,Lure,0,27,27,27,892.7876150595839,894.7873330747243,left,1,2,1.1139231531997211,M28I03,2021_Oct_20_0837,t1_Paradigm,2021.1.4,59.93234227527247,
P,left,Distractor,0,28,28,28,896.2876431297045,898.2881695655524,None,0,2,,M28I03,2021_Oct_20_0837,t1_Paradigm,2021.1.4,59.93234227527247,
G,left,Pretarget,0,29,29,29,899.7875290846569,901.7881094152108,left,1,2,1.0409808324184269,M28I03,2021_Oct_20_0837,t1_Paradigm,2021.1.4,59.93234227527247,
K,left,Distractor,0,30,30,30,903.2874808040215,905.2881175956572,left,1,2,0.6775338293518871,M28I03,2021_Oct_20_0837,t1_Paradigm,2021.1.4,59.93234227527247,
G,right,Target,0,31,31,31,906.7875059869257,908.7881925029214,right,1,2,0.792966996843461,M28I03,2021_Oct_20_0837,t1_Paradigm,2021.1.4,59.93234227527247,
M,left,Pretarget,0,32,32,32,910.2875372651033,912.2878025682294,left,1,2,0.8774713371531107,M28I03,2021_Oct_20_0837,t1_Paradigm,2021.1.4,59.93234227527247,
B,left,Distractor,0,33,33,33,913.7875441623619,915.7874389393255,left,1,2,0.801682541554328,M28I03,2021_Oct_20_0837,t1_Paradigm,2021.1.4,59.93234227527247,
M,right,Target,0,34,34,34,917.287306608574,919.2872584883007,right,1,2,0.9499857082264498,M28I03,2021_Oct_20_0837,t1_Paradigm,2021.1.4,59.93234227527247,
M,left,Lure,0,35,35,35,920.7873067689943,922.7873042025603,left,1,2,1.3857440148713067,M28I03,2021_Oct_20_0837,t1_Paradigm,2021.1.4,59.93234227527247,
T,left,Distractor,0,36,36,36,924.2872584883007,926.2875337363221,None,0,2,,M28I03,2021_Oct_20_0837,t1_Paradigm,2021.1.4,59.93234227527247,
F,left,Distractor,0,37,37,37,927.7872525534476,929.7879903977155,left,1,2,1.3292783979559317,M28I03,2021_Oct_20_0837,t1_Paradigm,2021.1.4,59.93234227527247,
X,left,Distractor,0,38,38,38,931.2874487238005,933.2880640217336,left,1,2,0.7250246937037446,M28I03,2021_Oct_20_0837,t1_Paradigm,2021.1.4,59.93234227527247,
C,left,Distractor,0,39,39,39,934.7875534656341,936.7878822875209,left,1,2,1.2571826732018963,M28I03,2021_Oct_20_0837,t1_Paradigm,2021.1.4,59.93234227527247,
R,left,Distractor,0,40,40,40,938.2873714105808,940.287744503119,left,1,2,0.8612541619804688,M28I03,2021_Oct_20_0837,t1_Paradigm,2021.1.4,59.93234227527247,
B,left,Pretarget,0,41,41,41,941.7873042025603,943.7870729044662,left,1,2,0.9618528103455901,M28I03,2021_Oct_20_0837,t1_Paradigm,2021.1.4,59.93234227527247,
H,left,Distractor,0,42,42,42,945.2870528543135,947.2872594507062,left,1,2,1.1577578388969414,M28I03,2021_Oct_20_0837,t1_Paradigm,2021.1.4,59.93234227527247,
B,right,Target,0,43,43,43,948.7873420572141,950.7873520020512,right,1,2,0.9697730872430839,M28I03,2021_Oct_20_0837,t1_Paradigm,2021.1.4,59.93234227527247,
W,left,Pretarget,0,44,44,44,952.2872854356538,954.2877403327147,left,1,2,1.037265626131557,M28I03,2021_Oct_20_0837,t1_Paradigm,2021.1.4,59.93234227527247,
L,left,Pretarget,0,45,45,45,955.7873507188633,957.7873529644567,left,1,2,0.817773962393403,M28I03,2021_Oct_20_0837,t1_Paradigm,2021.1.4,59.93234227527247,
W,right,Target,0,46,46,46,959.28734991682,961.2872732452233,right,1,2,0.933749605785124,M28I03,2021_Oct_20_0837,t1_Paradigm,2021.1.4,59.93234227527247,
L,right,Target,0,47,47,47,962.7881142272381,964.7879814152839,left,0,2,0.8410625727265142,M28I03,2021_Oct_20_0837,t1_Paradigm,2021.1.4,59.93234227527247,
W,right,Target,0,48,48,48,966.2874737463426,968.2881445430103,None,0,2,,M28I03,2021_Oct_20_0837,t1_Paradigm,2021.1.4,59.93234227527247,
X,left,Distractor,0,49,49,49,969.7873783077812,971.7872150196345,left,1,2,1.0099073235178366,M28I03,2021_Oct_20_0837,t1_Paradigm,2021.1.4,59.93234227527247,
R,left,Distractor,0,50,50,50,973.2872276913258,975.2871702677803,left,1,2,1.301947363477666,M28I03,2021_Oct_20_0837,t1_Paradigm,2021.1.4,59.93234227527247,
V,left,Pretarget,0,51,51,51,976.7873933854862,978.7875569944154,left,1,2,0.8894824792514555,M28I03,2021_Oct_20_0837,t1_Paradigm,2021.1.4,59.93234227527247,
Z,left,Distractor,0,52,52,52,980.2876290144632,982.2872783780331,left,1,2,1.2779738411772996,M28I03,2021_Oct_20_0837,t1_Paradigm,2021.1.4,59.93234227527247,
V,right,Target,0,53,53,53,983.7875762425247,985.7872150196345,right,1,2,1.3781089308322407,M28I03,2021_Oct_20_0837,t1_Paradigm,2021.1.4,59.93234227527247,
V,left,Lure,0,54,54,54,987.2874670095043,989.2873274607118,left,1,2,1.141681816545315,M28I03,2021_Oct_20_0837,t1_Paradigm,2021.1.4,59.93234227527247,
N,left,Distractor,0,55,55,55,990.787384082214,992.7876817863435,left,1,2,0.7933426558738574,M28I03,2021_Oct_20_0837,t1_Paradigm,2021.1.4,59.93234227527247,
B,left,Distractor,0,56,56,56,994.2872742076288,996.2879581571324,left,1,2,1.0691411396837793,M28I03,2021_Oct_20_0837,t1_Paradigm,2021.1.4,59.93234227527247,
V,left,Lure,0,57,57,57,997.7874241824611,999.7880237611244,left,1,2,0.8011108726495877,M28I03,2021_Oct_20_0837,t1_Paradigm,2021.1.4,59.93234227527247,
J,left,Distractor,0,58,58,58,1001.2874387789634,1003.2879004128044,left,1,2,0.9012196565163322,M28I03,2021_Oct_20_0837,t1_Paradigm,2021.1.4,59.93234227527247,
H,left,Distractor,0,59,59,59,1004.7875030997093,1006.7880093250424,left,1,2,0.5850155380321667,M28I03,2021_Oct_20_0837,t1_Paradigm,2021.1.4,59.93234227527247,
X,left,Pretarget,0,60,60,60,1008.2874105483643,1010.2880402824376,left,1,2,0.8930703271762468,M28I03,2021_Oct_20_0837,t1_Paradigm,2021.1.4,59.93234227527247,
P,left,Distractor,0,61,61,61,1011.7874331648927,1013.7889483120525,left,1,2,0.704026608611457,M28I03,2021_Oct_20_0837,t1_Paradigm,2021.1.4,59.93234227527247,
X,right,Target,0,62,62,62,1015.2873101374134,1017.2875225082389,right,1,2,0.6296663436223753,M28I03,2021_Oct_20_0837,t1_Paradigm,2021.1.4,59.93234227527247,
Q,left,Distractor,0,63,63,63,1018.7874658866785,1020.7876259668265,left,1,2,1.2573886280297302,M28I03,2021_Oct_20_0837,t1_Paradigm,2021.1.4,59.93234227527247,
B,left,Pretarget,0,0,0,0,1027.0154116416816,1029.0040761082782,None,0,2,,M28I03,2021_Oct_20_0837,t1_Paradigm,2021.1.4,59.93234227527247,
F,left,Distractor,0,1,1,1,1030.5038635770907,1032.5042511057109,None,0,2,,M28I03,2021_Oct_20_0837,t1_Paradigm,2021.1.4,59.93234227527247,
B,right,Target,0,2,2,2,1034.0039336722693,1036.0038980632671,right,1,2,0.8570994572364725,M28I03,2021_Oct_20_0837,t1_Paradigm,2021.1.4,59.93234227527247,
V,left,Distractor,0,3,3,3,1037.5039376823115,1039.5039286998217,left,1,2,0.989091774681583,M28I03,2021_Oct_20_0837,t1_Paradigm,2021.1.4,59.93234227527247,
G,left,Pretarget,0,4,4,4,1041.0039734516758,1043.0042384340195,left,1,2,0.9129645330831409,M28I03,2021_Oct_20_0837,t1_Paradigm,2021.1.4,59.93234227527247,
B,left,Lure,0,5,5,5,1044.5039646296646,1046.5045786444098,left,1,2,1.0289773895638064,M28I03,2021_Oct_20_0837,t1_Paradigm,2021.1.4,59.93234227527247,
G,right,Target,0,6,6,6,1048.0040610305732,1050.0044161582482,right,1,2,0.85652393870987,M28I03,2021_Oct_20_0837,t1_Paradigm,2021.1.4,59.93234227527247,
Y,left,Pretarget,0,7,7,7,1051.5041295217816,1053.5045792859746,left,1,2,0.7326706850435585,M28I03,2021_Oct_20_0837,t1_Paradigm,2021.1.4,59.93234227527247,
P,left,Distractor,0,8,8,8,1055.0041069052531,1057.0046535516158,left,1,2,1.2484773942269385,M28I03,2021_Oct_20_0837,t1_Paradigm,2021.1.4,59.93234227527247,
Y,right,Target,0,9,9,9,1058.504217742302,1060.5043094916618,right,1,2,0.6767786618438549,M28I03,2021_Oct_20_0837,t1_Paradigm,2021.1.4,59.93234227527247,
X,left,Distractor,0,10,10,10,1062.0041210205527,1064.0036699731718,left,1,2,0.7295537742320448,M28I03,2021_Oct_20_0837,t1_Paradigm,2021.1.4,59.93234227527247,
Y,right,Target,0,11,11,11,1065.5040903839981,1067.5044631556957,right,1,2,0.8766176834469661,M28I03,2021_Oct_20_0837,t1_Paradigm,2021.1.4,59.93234227527247,
N,left,Distractor,0,12,12,12,1069.0041171709308,1071.0045986945042,left,1,2,1.0883863634662703,M28I03,2021_Oct_20_0837,t1_Paradigm,2021.1.4,59.93234227527247,
Y,right,Target,0,13,13,13,1072.5041256721597,1074.5045632459223,right,1,2,0.5966045049135573,M28I03,2021_Oct_20_0837,t1_Paradigm,2021.1.4,59.93234227527247,
Y,left,Lure,0,14,14,14,1076.0040623138193,1078.0039400883252,left,1,2,0.8890339982463047,M28I03,2021_Oct_20_0837,t1_Paradigm,2021.1.4,59.93234227527247,
K,left,Distractor,0,15,15,15,1079.504234103195,1081.505005631654,left,1,2,1.2601908321958035,M28I03,2021_Oct_20_0837,t1_Paradigm,2021.1.4,59.93234227527247,
T,left,Pretarget,0,16,16,16,1083.0039266146487,1085.0038207499892,left,1,2,1.4092353720334359,M28I03,2021_Oct_20_0837,t1_Paradigm,2021.1.4,59.93234227527247,
J,left,Distractor,0,17,17,17,1086.5039129805518,1088.5039007900632,left,1,2,0.8690233412198722,M28I03,2021_Oct_20_0837,t1_Paradigm,2021.1.4,59.93234227527247,
T,right,Target,0,18,18,18,1090.0038351860712,1092.0039259730256,right,1,2,0.777150824025739,M28I03,2021_Oct_20_0837,t1_Paradigm,2021.1.4,59.93234227527247,
S,left,Pretarget,0,19,19,19,1093.503765411675,1095.5041667348123,left,1,2,0.7810812882962637,M28I03,2021_Oct_20_0837,t1_Paradigm,2021.1.4,59.93234227527247,
R,left,Distractor,0,20,20,20,1097.003942654701,1099.0047382432967,None,0,2,,M28I03,2021_Oct_20_0837,t1_Paradigm,2021.1.4,59.93234227527247,
S,right,Target,0,21,21,21,1100.5037853014073,1102.5037724693539,None,0,2,,M28I03,2021_Oct_20_0837,t1_Paradigm,2021.1.4,59.93234227527247,
Q,left,Distractor,0,22,22,22,1104.00391442416,1106.0040934315766,left,1,2,1.368878178356681,M28I03,2021_Oct_20_0837,t1_Paradigm,2021.1.4,59.93234227527247,
D,left,Distractor,0,23,23,23,1107.5038995068753,1109.5042786946287,left,1,2,0.89277230220614,M28I03,2021_Oct_20_0837,t1_Paradigm,2021.1.4,59.93234227527247,
F,left,Distractor,0,24,24,24,1111.0039753764868,1113.0040882987669,left,1,2,0.7368484875187278,M28I03,2021_Oct_20_0837,t1_Paradigm,2021.1.4,59.93234227527247,
Z,left,Distractor,0,25,25,25,1114.503837592085,1116.5038732011453,left,1,2,0.7733589461422525,M28I03,2021_Oct_20_0837,t1_Paradigm,2021.1.4,59.93234227527247,
P,left,Distractor,0,26,26,26,1118.0038114467752,1120.0040966396336,left,1,2,0.6810745193506591,M28I03,2021_Oct_20_0837,t1_Paradigm,2021.1.4,59.93234227527247,
H,left,Distractor,0,27,27,27,1121.5038250808138,1123.5037480883766,left,1,2,0.6852426978293806,M28I03,2021_Oct_20_0837,t1_Paradigm,2021.1.4,59.93234227527247,
Z,left,Pretarget,0,28,28,28,1125.0039766597329,1127.0039981534355,left,1,2,1.1370167160057463,M28I03,2021_Oct_20_0837,t1_Paradigm,2021.1.4,59.93234227527247,
J,left,Pretarget,0,29,29,29,1128.504005050694,1130.5045975716785,left,1,2,0.996482407732401,M28I03,2021_Oct_20_0837,t1_Paradigm,2021.1.4,59.93234227527247,
Z,right,Target,0,30,30,30,1132.0040369704366,1134.0046128098038,right,1,2,0.9204584643593989,M28I03,2021_Oct_20_0837,t1_Paradigm,2021.1.4,59.93234227527247,
J,right,Target,0,31,31,31,1135.504121180973,1137.5048490803456,right,1,2,1.0361187595990486,M28I03,2021_Oct_20_0837,t1_Paradigm,2021.1.4,59.93234227527247,
V,left,Pretarget,0,32,32,32,1139.003984038136,1141.0040751458728,left,1,2,0.9291910115280189,M28I03,2021_Oct_20_0837,t1_Paradigm,2021.1.4,59.93234227527247,
Z,left,Lure,0,33,33,33,1142.5037281987024,1144.503805511922,right,0,2,1.3653272226802073,M28I03,2021_Oct_20_0837,t1_Paradigm,2021.1.4,59.93234227527247,
V,right,Target,0,34,34,34,1146.0038570006145,1148.004701030266,right,1,2,0.6965025219833478,M28I03,2021_Oct_20_0837,t1_Paradigm,2021.1.4,59.93234227527247,
X,left,Distractor,0,35,35,35,1149.5040769103216,1151.5046960578766,left,1,2,0.95631159999175,M28I03,2021_Oct_20_0837,t1_Paradigm,2021.1.4,59.93234227527247,
S,left,Distractor,0,36,36,36,1153.0041094716871,1155.0044459928176,None,0,2,,M28I03,2021_Oct_20_0837,t1_Paradigm,2021.1.4,59.93234227527247,
Q,left,Distractor,0,37,37,37,1156.5040579829947,1158.504482403805,None,0,2,,M28I03,2021_Oct_20_0837,t1_Paradigm,2021.1.4,59.93234227527247,
P,left,Distractor,0,38,38,38,1160.0040453113033,1162.004567576747,left,1,2,1.1444137650541961,M28I03,2021_Oct_20_0837,t1_Paradigm,2021.1.4,59.93234227527247,
S,left,Lure,0,39,39,39,1163.5036614718847,1165.504193361383,left,1,2,1.004744980193209,M28I03,2021_Oct_20_0837,t1_Paradigm,2021.1.4,59.93234227527247,
K,left,Pretarget,0,40,40,40,1167.0039096121327,1169.0040652010357,None,0,2,,M28I03,2021_Oct_20_0837,t1_Paradigm,2021.1.4,59.93234227527247,
L,left,Distractor,0,41,41,41,1170.5038497825735,1172.5041818125173,left,1,2,1.1567331978003494,M28I03,2021_Oct_20_0837,t1_Paradigm,2021.1.4,59.93234227527247,
K,right,Target,0,42,42,42,1174.0038419229095,1176.0040972811985,right,1,2,1.4009240376763046,M28I03,2021_Oct_20_0837,t1_Paradigm,2021.1.4,59.93234227527247,
B,left,Distractor,0,43,43,43,1177.5040303940186,1179.5206232281635,left,1,2,1.068376348062884,M28I03,2021_Oct_20_0837,t1_Paradigm,2021.1.4,59.93234227527247,
N,left,Distractor,0,44,44,44,1181.00387753197,1183.0042185442871,left,1,2,0.752777261834126,M28I03,2021_Oct_20_0837,t1_Paradigm,2021.1.4,59.93234227527247,
S,left,Pretarget,0,45,45,45,1184.5040239779628,1186.5042607297655,left,1,2,1.0288509936071932,M28I03,2021_Oct_20_0837,t1_Paradigm,2021.1.4,59.93234227527247,
Z,left,Distractor,0,46,46,46,1188.0039211609983,1190.0042576821288,left,1,2,1.1288109254674055,M28I03,2021_Oct_20_0837,t1_Paradigm,2021.1.4,59.93234227527247,
S,right,Target,0,47,47,47,1191.5040021634777,1193.504189511761,left,0,2,1.0534308314090595,M28I03,2021_Oct_20_0837,t1_Paradigm,2021.1.4,59.93234227527247,
C,left,Distractor,0,48,48,48,1195.0038258828572,1197.0035307451617,left,1,2,0.7213511917507276,M28I03,2021_Oct_20_0837,t1_Paradigm,2021.1.4,59.93234227527247,
T,left,Pretarget,0,49,49,49,1198.5038690306828,1200.5039476271486,left,1,2,0.6449018651037477,M28I03,2021_Oct_20_0837,t1_Paradigm,2021.1.4,59.93234227527247,
S,left,Lure,0,50,50,50,1202.003773912962,1204.0038169003674,None,0,2,,M28I03,2021_Oct_20_0837,t1_Paradigm,2021.1.4,59.93234227527247,
T,right,Target,0,51,51,51,1205.5037699029199,1207.503695156076,right,1,2,0.9092198131256737,M28I03,2021_Oct_20_0837,t1_Paradigm,2021.1.4,59.93234227527247,
N,left,Pretarget,0,52,52,52,1209.003774554527,1211.0039115369436,left,1,2,0.7370441766106524,M28I03,2021_Oct_20_0837,t1_Paradigm,2021.1.4,59.93234227527247,
B,left,Distractor,0,53,53,53,1212.5035370007972,1214.5045786444098,left,1,2,0.6125849282834679,M28I03,2021_Oct_20_0837,t1_Paradigm,2021.1.4,59.93234227527247,
N,right,Target,0,54,54,54,1216.0040186847327,1218.0043263337575,right,1,2,0.6807896473328583,M28I03,2021_Oct_20_0837,t1_Paradigm,2021.1.4,59.93234227527247,
N,left,Lure,0,55,55,55,1219.5036656423472,1221.5037047801306,left,1,2,1.1495481987367384,M28I03,2021_Oct_20_0837,t1_Paradigm,2021.1.4,59.93234227527247,
X,left,Distractor,0,56,56,56,1223.0037161686341,1225.0036228152458,left,1,2,1.137273678323254,M28I03,2021_Oct_20_0837,t1_Paradigm,2021.1.4,59.93234227527247,
W,left,Distractor,0,57,57,57,1226.5036685295636,1228.5042020230321,left,1,2,0.7407189618679695,M28I03,2021_Oct_20_0837,t1_Paradigm,2021.1.4,59.93234227527247,
S,left,Distractor,0,58,58,58,1230.0040039278683,1232.006297661108,left,1,2,0.790699569392018,M28I03,2021_Oct_20_0837,t1_Paradigm,2021.1.4,59.93234227527247,
L,left,Distractor,0,59,59,59,1233.5038844291703,1235.5041808501119,right,0,2,0.6528221420012414,M28I03,2021_Oct_20_0837,t1_Paradigm,2021.1.4,59.93234227527247,
K,left,Pretarget,0,60,60,60,1237.0038521885872,1239.0041431558784,left,1,2,0.6407542179804295,M28I03,2021_Oct_20_0837,t1_Paradigm,2021.1.4,59.93234227527247,
V,left,Pretarget,0,61,61,61,1240.5038202687865,1242.5037846597843,left,1,2,0.6294600680703297,M28I03,2021_Oct_20_0837,t1_Paradigm,2021.1.4,59.93234227527247,
K,right,Target,0,62,62,62,1244.0037768001785,1246.0040376120596,left,0,2,1.2409889166010544,M28I03,2021_Oct_20_0837,t1_Paradigm,2021.1.4,59.93234227527247,
V,right,Target,0,63,63,63,1247.5040390556678,1249.5048955965904,right,1,2,0.5399823366315104,M28I03,2021_Oct_20_0837,t1_Paradigm,2021.1.4,59.93234227527247,
R,left,Distractor,0,0,0,0,1339.2955143239233,1341.2874708591262,None,0,3,,M28I03,2021_Oct_20_0837,t1_Paradigm,2021.1.4,59.93234227527247,
P,left,Lure,0,1,1,1,1342.7869586989982,1344.7869423381053,None,0,3,,M28I03,2021_Oct_20_0837,t1_Paradigm,2021.1.4,59.93234227527247,
V,left,Distractor,0,2,2,2,1346.287055099965,1348.2869498769287,None,0,3,,M28I03,2021_Oct_20_0837,t1_Paradigm,2021.1.4,59.93234227527247,
P,left,Pretarget,0,3,3,3,1349.7870388994343,1351.786920523562,None,0,3,,M28I03,2021_Oct_20_0837,t1_Paradigm,2021.1.4,59.93234227527247,
Z,left,Distractor,0,4,4,4,1353.286928383226,1355.2873832802288,left,1,3,1.349760312878061,M28I03,2021_Oct_20_0837,t1_Paradigm,2021.1.4,59.93234227527247,
L,left,Pretarget,0,5,5,5,1356.7872422878281,1358.788381455175,left,1,3,0.8404739013058133,M28I03,2021_Oct_20_0837,t1_Paradigm,2021.1.4,59.93234227527247,
P,right,Target,0,6,6,6,1360.2871571149444,1362.287365636148,right,1,3,0.9895068922778592,M28I03,2021_Oct_20_0837,t1_Paradigm,2021.1.4,59.93234227527247,
S,left,Distractor,0,7,7,7,1363.7873112602392,1365.7868563631782,left,1,3,0.9302134069730528,M28I03,2021_Oct_20_0837,t1_Paradigm,2021.1.4,59.93234227527247,
L,right,Target,0,8,8,8,1367.2871712301858,1369.2873101374134,right,1,3,1.077747611736413,M28I03,2021_Oct_20_0837,t1_Paradigm,2021.1.4,59.93234227527247,
D,left,Distractor,0,9,9,9,1370.7872236812836,1372.7874232200556,left,1,3,0.9695087465224788,M28I03,2021_Oct_20_0837,t1_Paradigm,2021.1.4,59.93234227527247,
G,left,Distractor,0,10,10,10,1374.2870919921552,1376.2872873604647,left,1,3,0.8456859689904377,M28I03,2021_Oct_20_0837,t1_Paradigm,2021.1.4,59.93234227527247,
M,left,Pretarget,0,11,11,11,1377.7870427490561,1379.788343921362,left,1,3,1.2325389958568849,M28I03,2021_Oct_20_0837,t1_Paradigm,2021.1.4,59.93234227527247,
Y,left,Distractor,0,12,12,12,1381.2872998717357,1383.2873691649293,left,1,3,0.8854512831894681,M28I03,2021_Oct_20_0837,t1_Paradigm,2021.1.4,59.93234227527247,
V,left,Distractor,0,13,13,13,1384.786974418268,1386.7869490749435,left,1,3,0.6981090976623818,M28I03,2021_Oct_20_0837,t1_Paradigm,2021.1.4,59.93234227527247,
M,right,Target,0,14,14,14,1388.287027510989,1390.2869059270597,right,1,3,0.9100288753979839,M28I03,2021_Oct_20_0837,t1_Paradigm,2021.1.4,59.93234227527247,
S,left,Pretarget,0,15,15,15,1391.7870068192715,1393.787700392888,None,0,3,,M28I03,2021_Oct_20_0837,t1_Paradigm,2021.1.4,59.93234227527247,
Q,left,Distractor,0,16,16,16,1395.2872289745137,1397.287255280302,None,0,3,,M28I03,2021_Oct_20_0837,t1_Paradigm,2021.1.4,59.93234227527247,
R,left,Pretarget,0,17,17,17,1398.7869837215403,1400.787288162508,left,1,3,1.0175802622106858,M28I03,2021_Oct_20_0837,t1_Paradigm,2021.1.4,59.93234227527247,
S,right,Target,0,18,18,18,1402.286969766661,1404.286979069875,left,0,3,0.8461947607574984,M28I03,2021_Oct_20_0837,t1_Paradigm,2021.1.4,59.93234227527247,
F,left,Distractor,0,19,19,19,1405.7870116312988,1407.7871091550332,left,1,3,0.7058218157617375,M28I03,2021_Oct_20_0837,t1_Paradigm,2021.1.4,59.93234227527247,
R,right,Target,0,20,20,20,1409.2869989596074,1411.2870291149593,None,0,3,,M28I03,2021_Oct_20_0837,t1_Paradigm,2021.1.4,59.93234227527247,
P,left,Distractor,0,21,21,21,1412.786881064938,1414.7876416860963,left,1,3,0.7610921249724925,M28I03,2021_Oct_20_0837,t1_Paradigm,2021.1.4,59.93234227527247,
L,left,Distractor,0,22,22,22,1416.287043871882,1418.2873383679544,left,1,3,0.9095929056638852,M28I03,2021_Oct_20_0837,t1_Paradigm,2021.1.4,59.93234227527247,
R,right,Target,0,23,23,23,1419.7868531551794,1421.787371570943,left,0,3,0.8816728789824992,M28I03,2021_Oct_20_0837,t1_Paradigm,2021.1.4,59.93234227527247,
H,left,Pretarget,0,24,24,24,1423.2870608743979,1425.287351200066,left,1,3,0.6297074062749743,M28I03,2021_Oct_20_0837,t1_Paradigm,2021.1.4,59.93234227527247,
G,left,Pretarget,0,25,25,25,1426.7870395410573,1428.78755603201,left,1,3,1.0495385425747372,M28I03,2021_Oct_20_0837,t1_Paradigm,2021.1.4,59.93234227527247,
T,left,Distractor,0,26,26,26,1430.2872498266515,1432.2874689343153,left,1,3,0.925423193781171,M28I03,2021_Oct_20_0837,t1_Paradigm,2021.1.4,59.93234227527247,
H,right,Target,0,27,27,27,1433.7869785886724,1435.7869805134833,right,1,3,1.185862968210131,M28I03,2021_Oct_20_0837,t1_Paradigm,2021.1.4,59.93234227527247,
G,right,Target,0,28,28,28,1437.2869004734675,1439.2873271399294,right,1,3,1.0456369504681788,M28I03,2021_Oct_20_0837,t1_Paradigm,2021.1.4,59.93234227527247,
D,left,Distractor,0,29,29,29,1440.7870542979217,1442.7873285835376,left,1,3,1.433399771398399,M28I03,2021_Oct_20_0837,t1_Paradigm,2021.1.4,59.93234227527247,
N,left,Pretarget,0,30,30,30,1444.2870842929115,1446.2871468492667,None,0,3,,M28I03,2021_Oct_20_0837,t1_Paradigm,2021.1.4,59.93234227527247,
V,left,Distractor,0,31,31,31,1447.7871944883373,1449.7876083227457,left,1,3,0.9293767558410764,M28I03,2021_Oct_20_0837,t1_Paradigm,2021.1.4,59.93234227527247,
R,left,Distractor,0,32,32,32,1451.287282869278,1453.2875051849405,left,1,3,0.8694368548458442,M28I03,2021_Oct_20_0837,t1_Paradigm,2021.1.4,59.93234227527247,
N,right,Target,0,33,33,33,1454.7871967339306,1456.787668312667,left,0,3,1.4012576715904288,M28I03,2021_Oct_20_0837,t1_Paradigm,2021.1.4,59.93234227527247,
Z,left,Distractor,0,34,34,34,1458.2872052352177,1460.287969705998,left,1,3,0.9248419008217752,M28I03,2021_Oct_20_0837,t1_Paradigm,2021.1.4,59.93234227527247,
N,left,Lure,0,35,35,35,1461.7869144283468,1463.787680182315,left,1,3,1.025166263571009,M28I03,2021_Oct_20_0837,t1_Paradigm,2021.1.4,59.93234227527247,
Y,left,Pretarget,0,36,36,36,1465.2871045034262,1467.287646016921,left,1,3,1.045339246338699,M28I03,2021_Oct_20_0837,t1_Paradigm,2021.1.4,59.93234227527247,
Y,left,Lure,0,37,37,37,1468.7872005835525,1470.7871097966563,None,0,3,,M28I03,2021_Oct_20_0837,t1_Paradigm,2021.1.4,59.93234227527247,
B,left,Distractor,0,38,38,38,1472.287211972056,1474.2876655858709,left,1,3,1.0532268014503643,M28I03,2021_Oct_20_0837,t1_Paradigm,2021.1.4,59.93234227527247,
Y,right,Target,0,39,39,39,1475.7872377965832,1477.7876991096418,right,1,3,1.361042593140155,M28I03,2021_Oct_20_0837,t1_Paradigm,2021.1.4,59.93234227527247,
J,left,Distractor,0,40,40,40,1479.2869036814664,1481.2885760214995,left,1,3,0.7562146536656655,M28I03,2021_Oct_20_0837,t1_Paradigm,2021.1.4,59.93234227527247,
X,left,Distractor,0,41,41,41,1482.7870687340037,1484.7872827088577,left,1,3,0.6655457849847153,M28I03,2021_Oct_20_0837,t1_Paradigm,2021.1.4,59.93234227527247,
W,left,Pretarget,0,42,42,42,1486.2869437817135,1488.2871891951072,left,1,3,0.6855817853938788,M28I03,2021_Oct_20_0837,t1_Paradigm,2021.1.4,59.93234227527247,
S,left,Pretarget,0,43,43,43,1489.7869673606474,1491.7872387589887,left,1,3,0.785539471602533,M28I03,2021_Oct_20_0837,t1_Paradigm,2021.1.4,59.93234227527247,
R,left,Distractor,0,44,44,44,1493.2871070698602,1495.2872588091413,left,1,3,0.7415722947916947,M28I03,2021_Oct_20_0837,t1_Paradigm,2021.1.4,59.93234227527247,
W,right,Target,0,45,45,45,1496.7873102978338,1498.7876336660702,right,1,3,1.337098263844382,M28I03,2021_Oct_20_0837,t1_Paradigm,2021.1.4,59.93234227527247,
S,right,Target,0,46,46,46,1500.2868626188138,1502.2869498769287,right,1,3,1.2300171725219116,M28I03,2021_Oct_20_0837,t1_Paradigm,2021.1.4,59.93234227527247,
D,left,Distractor,0,47,47,47,1503.7870132352691,1505.7868329446646,None,0,3,,M28I03,2021_Oct_20_0837,t1_Paradigm,2021.1.4,59.93234227527247,
T,left,Distractor,0,48,48,48,1507.286925816792,1509.2868860373856,None,0,3,,M28I03,2021_Oct_20_0837,t1_Paradigm,2021.1.4,59.93234227527247,
S,right,Target,0,49,49,49,1510.7868303782307,1512.7869753806735,None,0,3,,M28I03,2021_Oct_20_0837,t1_Paradigm,2021.1.4,59.93234227527247,
K,left,Distractor,0,50,50,50,1514.2872029895661,1516.287768884038,None,0,3,,M28I03,2021_Oct_20_0837,t1_Paradigm,2021.1.4,59.93234227527247,
S,left,Lure,0,51,51,51,1517.7869006338296,1519.7868788193446,left,1,3,0.9300931062898599,M28I03,2021_Oct_20_0837,t1_Paradigm,2021.1.4,59.93234227527247,
T,left,Pretarget,0,52,52,52,1521.2869989596074,1523.2872456562473,left,1,3,0.9176123102661222,M28I03,2021_Oct_20_0837,t1_Paradigm,2021.1.4,59.93234227527247,
V,left,Distractor,0,53,53,53,1524.7870815661154,1526.7873077313998,left,1,3,1.0175331043428741,M28I03,2021_Oct_20_0837,t1_Paradigm,2021.1.4,59.93234227527247,
B,left,Distractor,0,54,54,54,1528.287042588694,1530.2869752202532,left,1,3,0.8938684821478091,M28I03,2021_Oct_20_0837,t1_Paradigm,2021.1.4,59.93234227527247,
T,right,Target,0,55,55,55,1531.7868262078264,1533.786825887044,right,1,3,0.6419700569822453,M28I03,2021_Oct_20_0837,t1_Paradigm,2021.1.4,59.93234227527247,
Y,left,Pretarget,0,56,56,56,1535.2870615159627,1537.2873351599555,left,1,3,0.9496376382885501,M28I03,2021_Oct_20_0837,t1_Paradigm,2021.1.4,59.93234227527247,
T,left,Lure,0,57,57,57,1538.786936884455,1540.7873587388895,left,1,3,1.113598501717206,M28I03,2021_Oct_20_0837,t1_Paradigm,2021.1.4,59.93234227527247,
P,left,Pretarget,0,58,58,58,1542.2869983179844,1544.2873194406857,left,1,3,1.101519670453854,M28I03,2021_Oct_20_0837,t1_Paradigm,2021.1.4,59.93234227527247,
Y,right,Target,0,59,59,59,1545.7870632804115,1547.7875319718732,left,0,3,1.1052069669240154,M28I03,2021_Oct_20_0837,t1_Paradigm,2021.1.4,59.93234227527247,
R,left,Distractor,0,60,60,60,1549.2871715510264,1551.2877291046316,left,1,3,0.8530108376289718,M28I03,2021_Oct_20_0837,t1_Paradigm,2021.1.4,59.93234227527247,
P,right,Target,0,61,61,61,1552.7871377064148,1554.7877218865906,left,0,3,0.7609692578553222,M28I03,2021_Oct_20_0837,t1_Paradigm,2021.1.4,59.93234227527247,
L,left,Distractor,0,62,62,62,1556.2871144482633,1558.2876774555189,None,0,3,,M28I03,2021_Oct_20_0837,t1_Paradigm,2021.1.4,59.93234227527247,
V,left,Distractor,0,63,63,63,1559.7870337666245,1561.7872762928018,left,1,3,0.8334351879311725,M28I03,2021_Oct_20_0837,t1_Paradigm,2021.1.4,59.93234227527247,
H,left,Lure,0,0,0,0,1585.6330325173913,1587.6203473706264,None,0,3,,M28I03,2021_Oct_20_0837,t1_Paradigm,2021.1.4,59.93234227527247,
B,left,Distractor,0,1,1,1,1589.12026700977,1591.1202176063089,None,0,3,,M28I03,2021_Oct_20_0837,t1_Paradigm,2021.1.4,59.93234227527247,
T,left,Distractor,0,2,2,2,1592.6203043831629,1594.6202485636459,right,0,3,1.1685701444512233,M28I03,2021_Oct_20_0837,t1_Paradigm,2021.1.4,59.93234227527247,
R,left,Distractor,0,3,3,3,1596.120144784276,1598.1203484934522,left,1,3,1.0923928578267805,M28I03,2021_Oct_20_0837,t1_Paradigm,2021.1.4,59.93234227527247,
H,left,Pretarget,0,4,4,4,1599.6203807340353,1601.6201590599376,left,1,3,1.4166834285133518,M28I03,2021_Oct_20_0837,t1_Paradigm,2021.1.4,59.93234227527247,
K,left,Distractor,0,5,5,5,1603.1202099070651,1605.1205040823552,left,1,3,0.7164557555224746,M28I03,2021_Oct_20_0837,t1_Paradigm,2021.1.4,59.93234227527247,
G,left,Distractor,0,6,6,6,1606.6202200123225,1608.620553967019,left,1,3,1.2324738730676472,M28I03,2021_Oct_20_0837,t1_Paradigm,2021.1.4,59.93234227527247,
H,right,Target,0,7,7,7,1610.1202721425798,1612.1201614659512,left,0,3,1.0606357202050276,M28I03,2021_Oct_20_0837,t1_Paradigm,2021.1.4,59.93234227527247,
Y,left,Pretarget,0,8,8,8,1613.6204615760944,1615.620997635997,None,0,3,,M28I03,2021_Oct_20_0837,t1_Paradigm,2021.1.4,59.93234227527247,
S,left,Distractor,0,9,9,9,1617.1202278719284,1619.1203334157472,left,1,3,0.6204490648815408,M28I03,2021_Oct_20_0837,t1_Paradigm,2021.1.4,59.93234227527247,
P,left,Distractor,0,10,10,10,1620.620117997285,1622.6201738168602,left,1,3,0.7204962547984906,M28I03,2021_Oct_20_0837,t1_Paradigm,2021.1.4,59.93234227527247,
Y,right,Target,0,11,11,11,1624.120113345678,1626.1201813556836,None,0,3,,M28I03,2021_Oct_20_0837,t1_Paradigm,2021.1.4,59.93234227527247,
H,left,Lure,0,12,12,12,1627.6200884835562,1629.6200028294697,left,1,3,1.048856838606298,M28I03,2021_Oct_20_0837,t1_Paradigm,2021.1.4,59.93234227527247,
Q,left,Distractor,0,13,13,13,1631.1201021175948,1633.120597114903,left,1,3,0.6361965861287899,M28I03,2021_Oct_20_0837,t1_Paradigm,2021.1.4,59.93234227527247,
V,left,Pretarget,0,14,14,14,1634.620329405705,1636.6208186285803,left,1,3,0.8800245990860276,M28I03,2021_Oct_20_0837,t1_Paradigm,2021.1.4,59.93234227527247,
G,left,Distractor,0,15,15,15,1638.1204309395398,1640.120563109871,left,1,3,0.8362576026120223,M28I03,2021_Oct_20_0837,t1_Paradigm,2021.1.4,59.93234227527247,
Z,left,Pretarget,0,16,16,16,1641.620320102491,1643.6206258266466,left,1,3,0.8240761147462763,M28I03,2021_Oct_20_0837,t1_Paradigm,2021.1.4,59.93234227527247,
V,right,Target,0,17,17,17,1645.120254498499,1647.1220971842995,right,1,3,0.8906213258160278,M28I03,2021_Oct_20_0837,t1_Paradigm,2021.1.4,59.93234227527247,
N,left,Distractor,0,18,18,18,1648.620119922096,1650.6202222579159,None,0,3,,M28I03,2021_Oct_20_0837,t1_Paradigm,2021.1.4,59.93234227527247,
Z,right,Target,0,19,19,19,1652.120184884523,1654.1205124231637,None,0,3,,M28I03,2021_Oct_20_0837,t1_Paradigm,2021.1.4,59.93234227527247,
R,left,Distractor,0,20,20,20,1655.6202950799488,1657.620557816641,None,0,3,,M28I03,2021_Oct_20_0837,t1_Paradigm,2021.1.4,59.93234227527247,
P,left,Distractor,0,21,21,21,1659.1201390098431,1661.1204620572971,left,1,3,0.8443902503349818,M28I03,2021_Oct_20_0837,t1_Paradigm,2021.1.4,59.93234227527247,
Z,right,Target,0,22,22,22,1662.6201119020698,1664.6207971348194,left,0,3,0.8320602311869152,M28I03,2021_Oct_20_0837,t1_Paradigm,2021.1.4,59.93234227527247,
D,left,Pretarget,0,23,23,23,1666.1203395109624,1668.1209191999515,left,1,3,1.0119569266098551,M28I03,2021_Oct_20_0837,t1_Paradigm,2021.1.4,59.93234227527247,
K,left,Distractor,0,24,24,24,1669.6203893956845,1671.6209613853716,left,1,3,0.9358258353895508,M28I03,2021_Oct_20_0837,t1_Paradigm,2021.1.4,59.93234227527247,
W,left,Distractor,0,25,25,25,1673.1204434508109,1675.1209605833865,left,1,3,0.843868947296869,M28I03,2021_Oct_20_0837,t1_Paradigm,2021.1.4,59.93234227527247,
D,right,Target,0,26,26,26,1676.6203053455683,1678.620470558526,right,1,3,0.8804037868394516,M28I03,2021_Oct_20_0837,t1_Paradigm,2021.1.4,59.93234227527247,
G,left,Pretarget,0,27,27,27,1680.120988493145,1682.1208980270312,None,0,3,,M28I03,2021_Oct_20_0837,t1_Paradigm,2021.1.4,59.93234227527247,
V,left,Distractor,0,28,28,28,1683.6203403130057,1685.6210162424832,left,1,3,1.0317539295647293,M28I03,2021_Oct_20_0837,t1_Paradigm,2021.1.4,59.93234227527247,
D,right,Target,0,29,29,29,1687.1203677415615,1689.120651009609,right,1,3,1.1000199218397029,M28I03,2021_Oct_20_0837,t1_Paradigm,2021.1.4,59.93234227527247,
G,right,Target,0,30,30,30,1690.6203528242768,1692.620525094855,left,0,3,0.9762770239613019,M28I03,2021_Oct_20_0837,t1_Paradigm,2021.1.4,59.93234227527247,
B,left,Pretarget,0,31,31,31,1694.1201951501425,1696.1214828487718,left,1,3,0.787172353011556,M28I03,2021_Oct_20_0837,t1_Paradigm,2021.1.4,59.93234227527247,
N,left,Distractor,0,32,32,32,1697.6200400424423,1699.6200939371483,None,0,3,,M28I03,2021_Oct_20_0837,t1_Paradigm,2021.1.4,59.93234227527247,
F,left,Distractor,0,33,33,33,1701.1200616965652,1703.1200880023534,left,1,3,1.068679185002111,M28I03,2021_Oct_20_0837,t1_Paradigm,2021.1.4,59.93234227527247,
B,right,Target,0,34,34,34,1704.6201115812873,1706.620038438472,left,0,3,0.672712498344481,M28I03,2021_Oct_20_0837,t1_Paradigm,2021.1.4,59.93234227527247,
Q,left,Pretarget,0,35,35,35,1708.12004501489,1710.1216191895655,left,1,3,0.9472900103428401,M28I03,2021_Oct_20_0837,t1_Paradigm,2021.1.4,59.93234227527247,
S,left,Pretarget,0,36,36,36,1711.6202851350536,1713.6221910188906,left,1,3,0.7745718979276717,M28I03,2021_Oct_20_0837,t1_Paradigm,2021.1.4,59.93234227527247,
W,left,Distractor,0,37,37,37,1715.1202365335776,1717.1204444132163,left,1,3,0.7644371258793399,M28I03,2021_Oct_20_0837,t1_Paradigm,2021.1.4,59.93234227527247,
Q,right,Target,0,38,38,38,1718.620190177753,1720.620091691555,right,1,3,0.7527942643500865,M28I03,2021_Oct_20_0837,t1_Paradigm,2021.1.4,59.93234227527247,
S,right,Target,0,39,39,39,1722.1201354810037,1724.1200790198636,right,1,3,0.8366752866422758,M28I03,2021_Oct_20_0837,t1_Paradigm,2021.1.4,59.93234227527247,
T,left,Distractor,0,40,40,40,1725.6200307392282,1727.6201622679946,left,1,3,1.0004898644401692,M28I03,2021_Oct_20_0837,t1_Paradigm,2021.1.4,59.93234227527247,
G,left,Distractor,0,41,41,41,1729.1200992303784,1731.1209365232498,left,1,3,1.4358292038086802,M28I03,2021_Oct_20_0837,t1_Paradigm,2021.1.4,59.93234227527247,
D,left,Distractor,0,42,42,42,1732.6203800924122,1734.6205369645031,left,1,3,1.424140788440127,M28I03,2021_Oct_20_0837,t1_Paradigm,2021.1.4,59.93234227527247,
S,left,Lure,0,43,43,43,1736.120412012213,1738.120920162357,right,0,3,1.2199609968811274,M28I03,2021_Oct_20_0837,t1_Paradigm,2021.1.4,59.93234227527247,
Z,left,Pretarget,0,44,44,44,1739.6203833004693,1741.620685175003,left,1,3,1.1440952088451013,M28I03,2021_Oct_20_0837,t1_Paradigm,2021.1.4,59.93234227527247,
J,left,Distractor,0,45,45,45,1743.1203369445866,1745.12086434284,left,1,3,1.0678961076773703,M28I03,2021_Oct_20_0837,t1_Paradigm,2021.1.4,59.93234227527247,
M,left,Pretarget,0,46,46,46,1746.620432383148,1748.621611009119,left,1,3,1.295280780235771,M28I03,2021_Oct_20_0837,t1_Paradigm,2021.1.4,59.93234227527247,
Z,right,Target,0,47,47,47,1750.1201505587087,1752.120110779244,None,0,3,,M28I03,2021_Oct_20_0837,t1_Paradigm,2021.1.4,59.93234227527247,
P,left,Distractor,0,48,48,48,1753.6201568143442,1755.6202504884568,left,1,3,0.6805824093753472,M28I03,2021_Oct_20_0837,t1_Paradigm,2021.1.4,59.93234227527247,
M,right,Target,0,49,49,49,1757.1200482228887,1759.1201066088397,right,1,3,0.7967412306461483,M28I03,2021_Oct_20_0837,t1_Paradigm,2021.1.4,59.93234227527247,
K,left,Distractor,0,50,50,50,1760.6200150199002,1762.620131150179,left,1,3,1.2647667497512884,M28I03,2021_Oct_20_0837,t1_Paradigm,2021.1.4,59.93234227527247,
Y,left,Distractor,0,51,51,51,1764.1203577966662,1766.120391160075,left,1,3,1.364500516327098,M28I03,2021_Oct_20_0837,t1_Paradigm,2021.1.4,59.93234227527247,
X,left,Distractor,0,52,52,52,1767.6200701978523,1769.6205360020977,left,1,3,0.9522306796279736,M28I03,2021_Oct_20_0837,t1_Paradigm,2021.1.4,59.93234227527247,
F,left,Pretarget,0,53,53,53,1771.1202240223065,1773.1204280523234,left,1,3,0.9561935448436998,M28I03,2021_Oct_20_0837,t1_Paradigm,2021.1.4,59.93234227527247,
M,left,Lure,0,54,54,54,1774.6203268393292,1776.6201170348795,left,1,3,1.1524806484230794,M28I03,2021_Oct_20_0837,t1_Paradigm,2021.1.4,59.93234227527247,
V,left,Distractor,0,55,55,55,1778.1201746188453,1780.1224548784085,left,1,3,0.7702115591964684,M28I03,2021_Oct_20_0837,t1_Paradigm,2021.1.4,59.93234227527247,
F,right,Target,0,56,56,56,1781.620147511072,1783.6207945683855,right,1,3,1.3518548281281255,M28I03,2021_Oct_20_0837,t1_Paradigm,2021.1.4,59.93234227527247,
S,left,Distractor,0,57,57,57,1785.1203337365296,1787.1206837313948,left,1,3,0.9879150735214353,M28I03,2021_Oct_20_0837,t1_Paradigm,2021.1.4,59.93234227527247,
D,left,Distractor,0,58,58,58,1788.620251771703,1790.6206332051079,left,1,3,0.8642395440256223,M28I03,2021_Oct_20_0837,t1_Paradigm,2021.1.4,59.93234227527247,
F,right,Target,0,59,59,59,1792.1203571551014,1794.1204184282687,right,1,3,0.6603013163548894,M28I03,2021_Oct_20_0837,t1_Paradigm,2021.1.4,59.93234227527247,
V,left,Pretarget,0,60,60,60,1795.620131150179,1797.6205870095873,left,1,3,0.6802449257811531,M28I03,2021_Oct_20_0837,t1_Paradigm,2021.1.4,59.93234227527247,
J,left,Distractor,0,61,61,61,1799.120226909523,1801.1208508691634,left,1,3,1.2438995518023148,M28I03,2021_Oct_20_0837,t1_Paradigm,2021.1.4,59.93234227527247,
V,left,Lure,0,62,62,62,1802.6202222579159,1804.6205943880486,right,0,3,0.5760789608466439,M28I03,2021_Oct_20_0837,t1_Paradigm,2021.1.4,59.93234227527247,
V,right,Target,0,63,63,63,1806.1203404733678,1808.1202240223065,None,0,3,,M28I03,2021_Oct_20_0837,t1_Paradigm,2021.1.4,59.93234227527247,
R,left,Distractor,0,0,0,0,1904.1328206277685,1906.1199930449948,None,0,4,,M28I03,2021_Oct_20_0837,t1_Paradigm,2021.1.4,59.93234227527247,
F,left,Distractor,0,1,1,1,1907.6200570449582,1909.6203467290034,None,0,4,,M28I03,2021_Oct_20_0837,t1_Paradigm,2021.1.4,59.93234227527247,
P,left,Pretarget,0,2,2,2,1911.1200764534879,1913.1203292453429,None,0,4,,M28I03,2021_Oct_20_0837,t1_Paradigm,2021.1.4,59.93234227527247,
H,left,Distractor,0,3,3,3,1914.6200288144173,1916.6204201926594,None,0,4,,M28I03,2021_Oct_20_0837,t1_Paradigm,2021.1.4,59.93234227527247,
Z,left,Distractor,0,4,4,4,1918.1201659571961,1920.1204556412413,left,1,4,0.7561315659550019,M28I03,2021_Oct_20_0837,t1_Paradigm,2021.1.4,59.93234227527247,
T,left,Distractor,0,5,5,5,1921.6200570449582,1923.6204391199863,left,1,4,0.8081508692121133,M28I03,2021_Oct_20_0837,t1_Paradigm,2021.1.4,59.93234227527247,
P,right,Target,0,6,6,6,1925.1199981778045,1927.1203783280216,right,1,4,0.8602744331583381,M28I03,2021_Oct_20_0837,t1_Paradigm,2021.1.4,59.93234227527247,
G,left,Distractor,0,7,7,7,1928.6200592905516,1930.620445535984,left,1,4,0.800113178906031,M28I03,2021_Oct_20_0837,t1_Paradigm,2021.1.4,59.93234227527247,
L,left,Distractor,0,8,8,8,1932.1199641728308,1934.1199086740962,left,1,4,0.9168350074905902,M28I03,2021_Oct_20_0837,t1_Paradigm,2021.1.4,59.93234227527247,
P,left,Lure,0,9,9,9,1935.620257866918,1937.6207326536532,left,1,4,0.6160467010340653,M28I03,2021_Oct_20_0837,t1_Paradigm,2021.1.4,59.93234227527247,
Q,left,Pretarget,0,10,10,10,1939.1201444634353,1941.1207857463742,left,1,4,0.8918352400069125,M28I03,2021_Oct_20_0837,t1_Paradigm,2021.1.4,59.93234227527247,
D,left,Distractor,0,11,11,11,1942.6202703781892,1944.6206697765156,left,1,4,1.1039077194291167,M28I03,2021_Oct_20_0837,t1_Paradigm,2021.1.4,59.93234227527247,
M,left,Pretarget,0,12,12,12,1946.1200690750265,1948.1213394503575,left,1,4,0.9153753590071574,M28I03,2021_Oct_20_0837,t1_Paradigm,2021.1.4,59.93234227527247,
C,left,Distractor,0,13,13,13,1949.6199457267066,1951.6200111702783,left,1,4,0.7284752384293824,M28I03,2021_Oct_20_0837,t1_Paradigm,2021.1.4,59.93234227527247,
Q,right,Target,0,14,14,14,1953.1200546389446,1955.1199587191804,left,0,4,1.068709661194589,M28I03,2021_Oct_20_0837,t1_Paradigm,2021.1.4,59.93234227527247,
R,left,Distractor,0,15,15,15,1956.6202248243499,1958.6206370547297,left,1,4,0.7360259515698999,M28I03,2021_Oct_20_0837,t1_Paradigm,2021.1.4,59.93234227527247,
M,right,Target,0,16,16,16,1960.120235571172,1962.120759440586,right,1,4,0.6277498733252287,M28I03,2021_Oct_20_0837,t1_Paradigm,2021.1.4,59.93234227527247,
S,left,Distractor,0,17,17,17,1963.6203255560831,1965.6211792098475,left,1,4,0.7594566771294922,M28I03,2021_Oct_20_0837,t1_Paradigm,2021.1.4,59.93234227527247,
Z,left,Distractor,0,18,18,18,1967.1199259973946,1969.1199199021794,left,1,4,0.9406077077728696,M28I03,2021_Oct_20_0837,t1_Paradigm,2021.1.4,59.93234227527247,
L,left,Pretarget,0,19,19,19,1970.620007641497,1972.619970107684,left,1,4,0.8005581310717389,M28I03,2021_Oct_20_0837,t1_Paradigm,2021.1.4,59.93234227527247,
M,right,Target,0,20,20,20,1974.1199385086657,1976.1201293857885,right,1,4,1.2528701339033432,M28I03,2021_Oct_20_0837,t1_Paradigm,2021.1.4,59.93234227527247,
P,left,Distractor,0,21,21,21,1977.6200105287135,1979.6201112604467,left,1,4,0.7926147564430721,M28I03,2021_Oct_20_0837,t1_Paradigm,2021.1.4,59.93234227527247,
F,left,Distractor,0,22,22,22,1981.1201171952998,1983.1204274107004,left,1,4,0.7483017552294768,M28I03,2021_Oct_20_0837,t1_Paradigm,2021.1.4,59.93234227527247,
L,right,Target,0,23,23,23,1984.620019511145,1986.620655661216,right,1,4,1.2481152089312673,M28I03,2021_Oct_20_0837,t1_Paradigm,2021.1.4,59.93234227527247,
L,left,Lure,0,24,24,24,1988.1201181577053,1990.1201996413874,left,1,4,0.8523393993964419,M28I03,2021_Oct_20_0837,t1_Paradigm,2021.1.4,59.93234227527247,
V,left,Pretarget,0,25,25,25,1991.620092333178,1993.620528302854,left,1,4,0.7600780703360215,M28I03,2021_Oct_20_0837,t1_Paradigm,2021.1.4,59.93234227527247,
Z,left,Distractor,0,26,26,26,1995.119889425987,1997.1218520916882,left,1,4,0.9866674751392566,M28I03,2021_Oct_20_0837,t1_Paradigm,2021.1.4,59.93234227527247,
H,left,Distractor,0,27,27,27,1998.6197907794267,2000.6203980573337,left,1,4,0.7362290191813372,M28I03,2021_Oct_20_0837,t1_Paradigm,2021.1.4,59.93234227527247,
X,left,Distractor,0,28,28,28,2002.120002348267,2004.1203282829374,left,1,4,0.5644418738083914,M28I03,2021_Oct_20_0837,t1_Paradigm,2021.1.4,59.93234227527247,
V,right,Target,0,29,29,29,2005.6200708394172,2007.6200894459616,right,1,4,0.6806042238604277,M28I03,2021_Oct_20_0837,t1_Paradigm,2021.1.4,59.93234227527247,
C,left,Distractor,0,30,30,30,2009.1199933657772,2011.120264443336,left,1,4,0.9083026406588033,M28I03,2021_Oct_20_0837,t1_Paradigm,2021.1.4,59.93234227527247,
S,left,Pretarget,0,31,31,31,2012.6200804634718,2014.6212395206094,left,1,4,0.8316906674299389,M28I03,2021_Oct_20_0837,t1_Paradigm,2021.1.4,59.93234227527247,
D,left,Distractor,0,32,32,32,2016.1199959322112,2018.1202711801743,left,1,4,0.5964546903851442,M28I03,2021_Oct_20_0837,t1_Paradigm,2021.1.4,59.93234227527247,
V,left,Distractor,0,33,33,33,2019.619879641512,2021.6202989295707,right,0,4,1.3204117555869743,M28I03,2021_Oct_20_0837,t1_Paradigm,2021.1.4,59.93234227527247,
R,left,Distractor,0,34,34,34,2023.1199224685552,2025.1201560123009,left,1,4,0.7486655444954522,M28I03,2021_Oct_20_0837,t1_Paradigm,2021.1.4,59.93234227527247,
S,right,Target,0,35,35,35,2026.619953746791,2028.6201949897804,right,1,4,0.9923883344745263,M28I03,2021_Oct_20_0837,t1_Paradigm,2021.1.4,59.93234227527247,
Y,left,Distractor,0,36,36,36,2030.1199959322112,2032.120681806584,left,1,4,0.7398832730250433,M28I03,2021_Oct_20_0837,t1_Paradigm,2021.1.4,59.93234227527247,
N,left,Pretarget,0,37,37,37,2033.620104202826,2035.620584763994,left,1,4,0.9200321186799556,M28I03,2021_Oct_20_0837,t1_Paradigm,2021.1.4,59.93234227527247,
Z,left,Pretarget,0,38,38,38,2037.1201569747645,2039.1210840920685,None,0,4,,M28I03,2021_Oct_20_0837,t1_Paradigm,2021.1.4,59.93234227527247,
P,left,Pretarget,0,39,39,39,2040.6198308796738,2042.6198401828879,left,1,4,0.6246538147097453,M28I03,2021_Oct_20_0837,t1_Paradigm,2021.1.4,59.93234227527247,
M,left,Distractor,0,40,40,40,2044.119977325725,2046.1200302580255,left,1,4,0.5806904874625616,M28I03,2021_Oct_20_0837,t1_Paradigm,2021.1.4,59.93234227527247,
N,right,Target,0,41,41,41,2047.6200583281461,2049.620570969535,right,1,4,0.7440174464718439,M28I03,2021_Oct_20_0837,t1_Paradigm,2021.1.4,59.93234227527247,
Z,right,Target,0,42,42,42,2051.120058809349,2053.1207119619357,left,0,4,0.9078166258404963,M28I03,2021_Oct_20_0837,t1_Paradigm,2021.1.4,59.93234227527247,
P,right,Target,0,43,43,43,2054.620058969769,2056.620593746484,right,1,4,0.7840214372845367,M28I03,2021_Oct_20_0837,t1_Paradigm,2021.1.4,59.93234227527247,
X,left,Pretarget,0,44,44,44,2058.1201563331415,2060.12037993205,left,1,4,1.2520803197985515,M28I03,2021_Oct_20_0837,t1_Paradigm,2021.1.4,59.93234227527247,
Z,left,Lure,0,45,45,45,2061.620172533614,2063.6366595031577,left,1,4,1.3679395121289417,M28I03,2021_Oct_20_0837,t1_Paradigm,2021.1.4,59.93234227527247,
R,left,Pretarget,0,46,46,46,2065.120081265515,2067.120580753952,left,1,4,0.9398910364834592,M28I03,2021_Oct_20_0837,t1_Paradigm,2021.1.4,59.93234227527247,
K,left,Distractor,0,47,47,47,2068.620110618882,2070.620450668852,left,1,4,1.2642829806427471,M28I03,2021_Oct_20_0837,t1_Paradigm,2021.1.4,59.93234227527247,
X,right,Target,0,48,48,48,2072.1199635312078,2074.120311601204,None,0,4,,M28I03,2021_Oct_20_0837,t1_Paradigm,2021.1.4,59.93234227527247,
B,left,Distractor,0,49,49,49,2075.6200769346906,2077.6202476012404,left,1,4,0.7924944557598792,M28I03,2021_Oct_20_0837,t1_Paradigm,2021.1.4,59.93234227527247,
R,right,Target,0,50,50,50,2079.1199365838547,2081.1194800828234,right,1,4,0.9410587552119978,M28I03,2021_Oct_20_0837,t1_Paradigm,2021.1.4,59.93234227527247,
Y,left,Pretarget,0,51,51,51,2082.6199585588183,2084.6204105686047,left,1,4,0.8324063763720915,M28I03,2021_Oct_20_0837,t1_Paradigm,2021.1.4,59.93234227527247,
W,left,Pretarget,0,52,52,52,2086.1199705888866,2088.1201916213613,left,1,4,0.9645379218272865,M28I03,2021_Oct_20_0837,t1_Paradigm,2021.1.4,59.93234227527247,
Z,left,Distractor,0,53,53,53,2089.620042288094,2091.6203152904636,left,1,4,1.3362754071131349,M28I03,2021_Oct_20_0837,t1_Paradigm,2021.1.4,59.93234227527247,
Q,left,Distractor,0,54,54,54,2093.1200389196747,2095.1202904282836,right,0,4,1.0203147771535441,M28I03,2021_Oct_20_0837,t1_Paradigm,2021.1.4,59.93234227527247,
Y,right,Target,0,55,55,55,2096.619793666643,2098.621171831386,right,1,4,1.2475396904046647,M28I03,2021_Oct_20_0837,t1_Paradigm,2021.1.4,59.93234227527247,
W,right,Target,0,56,56,56,2100.1201765436563,2102.120886798948,right,1,4,1.2676619865233079,M28I03,2021_Oct_20_0837,t1_Paradigm,2021.1.4,59.93234227527247,
H,left,Pretarget,0,57,57,57,2103.619945085142,2105.6203072703793,left,1,4,0.536325516353827,M28I03,2021_Oct_20_0837,t1_Paradigm,2021.1.4,59.93234227527247,
M,left,Distractor,0,58,58,58,2107.119939471071,2109.1199359422317,left,1,4,0.7328493716777302,M28I03,2021_Oct_20_0837,t1_Paradigm,2021.1.4,59.93234227527247,
R,left,Pretarget,0,59,59,59,2110.6198010451044,2112.6201635511825,left,1,4,0.9126591297681443,M28I03,2021_Oct_20_0837,t1_Paradigm,2021.1.4,59.93234227527247,
J,left,Distractor,0,60,60,60,2114.1205252552754,2116.119775220519,left,1,4,0.9168439899221994,M28I03,2021_Oct_20_0837,t1_Paradigm,2021.1.4,59.93234227527247,
H,right,Target,0,61,61,61,2117.619983902143,2119.620293155138,left,0,4,0.9522573061985895,M28I03,2021_Oct_20_0837,t1_Paradigm,2021.1.4,59.93234227527247,
Z,left,Distractor,0,62,62,62,2121.1200591301895,2123.120211190253,left,1,4,1.1964426924823783,M28I03,2021_Oct_20_0837,t1_Paradigm,2021.1.4,59.93234227527247,
R,right,Target,0,63,63,63,2124.6199120425154,2126.6198465989437,right,1,4,0.8487977469339967,M28I03,2021_Oct_20_0837,t1_Paradigm,2021.1.4,59.93234227527247,
J,left,Pretarget,0,0,0,0,2154.014915040403,2156.003404349205,None,0,4,,M28I03,2021_Oct_20_0837,t1_Paradigm,2021.1.4,59.93234227527247,
G,left,Pretarget,0,1,1,1,2157.5032062540413,2159.5034959381446,None,0,4,,M28I03,2021_Oct_20_0837,t1_Paradigm,2021.1.4,59.93234227527247,
Z,left,Distractor,0,2,2,2,2161.003324148769,2163.003392479557,None,0,4,,M28I03,2021_Oct_20_0837,t1_Paradigm,2021.1.4,59.93234227527247,
F,left,Distractor,0,3,3,3,2164.503177702718,2166.503657622263,None,0,4,,M28I03,2021_Oct_20_0837,t1_Paradigm,2021.1.4,59.93234227527247,
J,right,Target,0,4,4,4,2168.0033302439842,2170.0032962390105,right,1,4,0.7612364858505316,M28I03,2021_Oct_20_0837,t1_Paradigm,2021.1.4,59.93234227527247,
G,right,Target,0,5,5,5,2171.503502674983,2173.5034564795205,right,1,4,0.7493735541938804,M28I03,2021_Oct_20_0837,t1_Paradigm,2021.1.4,59.93234227527247,
H,left,Distractor,0,6,6,6,2175.00326447963,2177.0036125496263,left,1,4,1.2168505021836609,M28I03,2021_Oct_20_0837,t1_Paradigm,2021.1.4,59.93234227527247,
P,left,Distractor,0,7,7,7,2178.5031513969298,2180.505157050153,left,1,4,0.7392811279860325,M28I03,2021_Oct_20_0837,t1_Paradigm,2021.1.4,59.93234227527247,
G,left,Lure,0,8,8,8,2182.0030761689413,2184.0031531613786,left,1,4,1.1453370328526944,M28I03,2021_Oct_20_0837,t1_Paradigm,2021.1.4,59.93234227527247,
S,left,Distractor,0,9,9,9,2185.503335216432,2187.5034834268736,left,1,4,1.1169540890841745,M28I03,2021_Oct_20_0837,t1_Paradigm,2021.1.4,59.93234227527247,
R,left,Pretarget,0,10,10,10,2189.0033456424717,2191.0035403692164,left,1,4,1.1369746909476817,M28I03,2021_Oct_20_0837,t1_Paradigm,2021.1.4,59.93234227527247,
T,left,Pretarget,0,11,11,11,2192.5033127602655,2194.503554644878,left,1,4,0.6290215319022536,M28I03,2021_Oct_20_0837,t1_Paradigm,2021.1.4,59.93234227527247,
X,left,Distractor,0,12,12,12,2196.0031813919195,2198.004513040418,left,1,4,0.5520377493812703,M28I03,2021_Oct_20_0837,t1_Paradigm,2021.1.4,59.93234227527247,
F,left,Pretarget,0,13,13,13,2199.5033108354546,2201.5030763293034,left,1,4,1.2934422647813335,M28I03,2021_Oct_20_0837,t1_Paradigm,2021.1.4,59.93234227527247,
R,right,Target,0,14,14,14,2203.0033764394466,2205.0040754667134,right,1,4,1.2163295199279673,M28I03,2021_Oct_20_0837,t1_Paradigm,2021.1.4,59.93234227527247,
T,right,Target,0,15,15,15,2206.5034227953292,2208.5042187047075,left,0,4,1.0763380083953962,M28I03,2021_Oct_20_0837,t1_Paradigm,2021.1.4,59.93234227527247,
C,left,Distractor,0,16,16,16,2210.0033995371778,2212.0040238176007,left,1,4,1.0005119997658767,M28I03,2021_Oct_20_0837,t1_Paradigm,2021.1.4,59.93234227527247,
F,right,Target,0,17,17,17,2213.5033679382177,2215.5038465745747,right,1,4,0.8127896640216932,M28I03,2021_Oct_20_0837,t1_Paradigm,2021.1.4,59.93234227527247,
M,left,Distractor,0,18,18,18,2217.0033626449876,2219.0039076873218,left,1,4,0.704544382810127,M28I03,2021_Oct_20_0837,t1_Paradigm,2021.1.4,59.93234227527247,
N,left,Distractor,0,19,19,19,2220.503389111138,2222.5039437775267,left,1,4,0.7085072480258532,M28I03,2021_Oct_20_0837,t1_Paradigm,2021.1.4,59.93234227527247,
R,left,Lure,0,20,20,20,2224.0033928003395,2226.0036279481137,left,1,4,1.0330166056519374,M28I03,2021_Oct_20_0837,t1_Paradigm,2021.1.4,59.93234227527247,
F,right,Target,0,21,21,21,2227.5033624845673,2229.503550153633,None,0,4,,M28I03,2021_Oct_20_0837,t1_Paradigm,2021.1.4,59.93234227527247,
P,left,Distractor,0,22,22,22,2231.0034970609704,2233.003154765349,left,1,4,1.0253427046118304,M28I03,2021_Oct_20_0837,t1_Paradigm,2021.1.4,59.93234227527247,
L,left,Pretarget,0,23,23,23,2234.503416700056,2236.5041295217816,left,1,4,0.7723233978031203,M28I03,2021_Oct_20_0837,t1_Paradigm,2021.1.4,59.93234227527247,
T,left,Distractor,0,24,24,24,2238.0031727302703,2240.0030540336156,left,1,4,1.4655649689375423,M28I03,2021_Oct_20_0837,t1_Paradigm,2021.1.4,59.93234227527247,
F,left,Distractor,0,25,25,25,2241.503169361851,2243.50309878547,left,1,4,0.781535864516627,M28I03,2021_Oct_20_0837,t1_Paradigm,2021.1.4,59.93234227527247,
V,left,Distractor,0,26,26,26,2245.003038635128,2247.002980249177,left,1,4,1.3136707463418134,M28I03,2021_Oct_20_0837,t1_Paradigm,2021.1.4,59.93234227527247,
L,right,Target,0,27,27,27,2248.50337339181,2250.5041551859467,right,1,4,0.8523823868017644,M28I03,2021_Oct_20_0837,t1_Paradigm,2021.1.4,59.93234227527247,
S,left,Pretarget,0,28,28,28,2252.003377401852,2254.003926935431,left,1,4,0.6326311943121254,M28I03,2021_Oct_20_0837,t1_Paradigm,2021.1.4,59.93234227527247,
W,left,Distractor,0,29,29,29,2255.503334574809,2257.5036906648893,left,1,4,0.9406885498319753,M28I03,2021_Oct_20_0837,t1_Paradigm,2021.1.4,59.93234227527247,
Q,left,Distractor,0,30,30,30,2259.0032016024343,2261.0034867952927,None,0,4,,M28I03,2021_Oct_20_0837,t1_Paradigm,2021.1.4,59.93234227527247,
L,right,Target,0,31,31,31,2262.5032620736165,2264.504309170821,left,0,4,0.964344157546293,M28I03,2021_Oct_20_0837,t1_Paradigm,2021.1.4,59.93234227527247,
S,right,Target,0,32,32,32,2266.0033382640104,2268.0043664339464,right,1,4,1.048716969031375,M28I03,2021_Oct_20_0837,t1_Paradigm,2021.1.4,59.93234227527247,
Z,left,Pretarget,0,33,33,33,2269.5032553367782,2271.5034885596833,left,1,4,0.7971454409998842,M28I03,2021_Oct_20_0837,t1_Paradigm,2021.1.4,59.93234227527247,
F,left,Distractor,0,34,34,34,2273.0031339132693,2275.0033815722563,left,1,4,0.9293344100005925,M28I03,2021_Oct_20_0837,t1_Paradigm,2021.1.4,59.93234227527247,
V,left,Distractor,0,35,35,35,2276.503217161342,2278.5034112464637,left,1,4,0.6131742412690073,M28I03,2021_Oct_20_0837,t1_Paradigm,2021.1.4,59.93234227527247,
M,left,Distractor,0,36,36,36,2280.002964529849,2282.003779687395,left,1,4,0.5846892825211398,M28I03,2021_Oct_20_0837,t1_Paradigm,2021.1.4,59.93234227527247,
Z,right,Target,0,37,37,37,2283.503366334189,2285.5036178428563,right,1,4,1.2447387694846839,M28I03,2021_Oct_20_0837,t1_Paradigm,2021.1.4,59.93234227527247,
H,left,Pretarget,0,38,38,38,2287.003332810418,2289.0035535220522,left,1,4,0.9447912847390398,M28I03,2021_Oct_20_0837,t1_Paradigm,2021.1.4,59.93234227527247,
L,left,Distractor,0,39,39,39,2290.5033095522667,2292.503819306381,left,1,4,0.644517544482369,M28I03,2021_Oct_20_0837,t1_Paradigm,2021.1.4,59.93234227527247,
G,left,Distractor,0,40,40,40,2294.003310995875,2296.0038871560246,left,1,4,0.600532723532524,M28I03,2021_Oct_20_0837,t1_Paradigm,2021.1.4,59.93234227527247,
K,left,Distractor,0,41,41,41,2297.5035472664167,2299.503374675056,left,1,4,1.1971985016134568,M28I03,2021_Oct_20_0837,t1_Paradigm,2021.1.4,59.93234227527247,
H,right,Target,0,42,42,42,2301.0033016926027,2303.0034460534807,right,1,4,1.1849185275495984,M28I03,2021_Oct_20_0837,t1_Paradigm,2021.1.4,59.93234227527247,
B,left,Distractor,0,43,43,43,2304.5032534119673,2306.503469953197,left,1,4,0.6131848277291283,M28I03,2021_Oct_20_0837,t1_Paradigm,2021.1.4,59.93234227527247,
Z,left,Distractor,0,44,44,44,2308.003153482161,2310.0035458228085,left,1,4,1.3208284771535546,M28I03,2021_Oct_20_0837,t1_Paradigm,2021.1.4,59.93234227527247,
T,left,Pretarget,0,45,45,45,2311.5032963993726,2313.5034057928133,left,1,4,1.1651985170319676,M28I03,2021_Oct_20_0837,t1_Paradigm,2021.1.4,59.93234227527247,
H,right,Target,0,46,46,46,2315.003282123711,2317.005116468703,right,1,4,1.2634360637166537,M28I03,2021_Oct_20_0837,t1_Paradigm,2021.1.4,59.93234227527247,
F,left,Distractor,0,47,47,47,2318.5030567604117,2320.5032376926392,left,1,4,0.5973538980470039,M28I03,2021_Oct_20_0837,t1_Paradigm,2021.1.4,59.93234227527247,
R,left,Distractor,0,48,48,48,2322.0031820335425,2324.003199356841,left,1,4,0.7133972306619398,M28I03,2021_Oct_20_0837,t1_Paradigm,2021.1.4,59.93234227527247,
T,right,Target,0,49,49,49,2325.5030705548706,2327.5033358579967,None,0,4,,M28I03,2021_Oct_20_0837,t1_Paradigm,2021.1.4,59.93234227527247,
H,right,Target,0,50,50,50,2329.003164710244,2331.0037828953937,right,1,4,0.7045796709717251,M28I03,2021_Oct_20_0837,t1_Paradigm,2021.1.4,59.93234227527247,
Y,left,Pretarget,0,51,51,51,2332.5029759183526,2334.5032011212315,left,1,4,0.741143703518901,M28I03,2021_Oct_20_0837,t1_Paradigm,2021.1.4,59.93234227527247,
H,left,Distractor,0,52,52,52,2336.0030796977226,2338.0034912865376,left,1,4,1.2408939593005925,M28I03,2021_Oct_20_0837,t1_Paradigm,2021.1.4,59.93234227527247,
S,left,Distractor,0,53,53,53,2339.5031985547976,2341.5033913567313,left,1,4,1.2292475688736886,M28I03,2021_Oct_20_0837,t1_Paradigm,2021.1.4,59.93234227527247,
Q,left,Distractor,0,54,54,54,2343.0033363391994,2345.0038220332353,left,1,4,0.8165943740168586,M28I03,2021_Oct_20_0837,t1_Paradigm,2021.1.4,59.93234227527247,
Y,right,Target,0,55,55,55,2346.5030538731953,2348.504213251057,right,1,4,0.5643353675841354,M28I03,2021_Oct_20_0837,t1_Paradigm,2021.1.4,59.93234227527247,
R,left,Distractor,0,56,56,56,2350.0031047202647,2352.0032102640835,left,1,4,0.6333096902235411,M28I03,2021_Oct_20_0837,t1_Paradigm,2021.1.4,59.93234227527247,
H,left,Pretarget,0,57,57,57,2353.503210745286,2355.503221652587,None,0,4,,M28I03,2021_Oct_20_0837,t1_Paradigm,2021.1.4,59.93234227527247,
J,left,Distractor,0,58,58,58,2357.0032076976495,2359.0031637478387,None,0,4,,M28I03,2021_Oct_20_0837,t1_Paradigm,2021.1.4,59.93234227527247,
V,left,Distractor,0,59,59,59,2360.503196309204,2362.5032681688317,left,1,4,1.0610979956691153,M28I03,2021_Oct_20_0837,t1_Paradigm,2021.1.4,59.93234227527247,
Y,left,Lure,0,60,60,60,2364.003963827621,2366.003561862919,right,0,4,0.64886922162259,M28I03,2021_Oct_20_0837,t1_Paradigm,2021.1.4,59.93234227527247,
H,right,Target,0,61,61,61,2367.5033034570515,2369.503786584595,right,1,4,1.1647859658114612,M28I03,2021_Oct_20_0837,t1_Paradigm,2021.1.4,59.93234227527247,
L,left,Distractor,0,62,62,62,2371.00320801849,2373.003788990609,left,1,4,1.1685977334273048,M28I03,2021_Oct_20_0837,t1_Paradigm,2021.1.4,59.93234227527247,
P,left,Distractor,0,63,63,63,2374.5032915873453,2376.5035280183074,left,1,4,0.6289958677371033,M28I03,2021_Oct_20_0837,t1_Paradigm,2021.1.4,59.93234227527247,
