Letter,CorrAnswer,Stimulus,nback_run.thisRepN,nback_run.thisTrialN,nback_run.thisN,nback_run.thisIndex,fixcross.started,nback_trial.started,trial_resp.keys,trial_resp.corr,currentlevel,trial_resp.rt,Participant,date,expName,psychopyVersion,frameRate,
H,left,Distractor,0,0,0,0,207.90579300775426,209.88730230985675,None,0,1,,E03T01,2021_Oct_19_0828,t1_Paradigm,2021.1.4,59.906427108157864,
Q,left,Pretarget,0,1,1,1,211.38953493034933,213.38812757260166,left,1,1,0.5915602166205645,E03T01,2021_Oct_19_0828,t1_Paradigm,2021.1.4,59.906427108157864,
Q,right,Target,0,2,2,2,214.8863501699525,216.8864457689342,right,1,1,0.9331933353678323,E03T01,2021_Oct_19_0828,t1_Paradigm,2021.1.4,59.906427108157864,
T,left,Distractor,0,3,3,3,218.3864616486244,220.38642411481123,left,1,1,0.6494431361206807,E03T01,2021_Oct_19_0828,t1_Paradigm,2021.1.4,59.906427108157864,
Q,left,Lure,0,4,4,4,221.8863854581723,223.88623083167477,left,1,1,0.8934809534694068,E03T01,2021_Oct_19_0828,t1_Paradigm,2021.1.4,59.906427108157864,
L,left,Distractor,0,5,5,5,225.38629098201636,227.38657809968572,left,1,1,0.7371141114854254,E03T01,2021_Oct_19_0828,t1_Paradigm,2021.1.4,59.906427108157864,
V,left,Pretarget,0,6,6,6,228.8863915533875,230.88827466027578,left,1,1,0.7714071877417155,E03T01,2021_Oct_19_0828,t1_Paradigm,2021.1.4,59.906427108157864,
V,right,Target,0,7,7,7,232.38647833029972,234.3864308516495,right,1,1,0.6813879428082146,E03T01,2021_Oct_19_0828,t1_Paradigm,2021.1.4,59.906427108157864,
K,left,Distractor,0,8,8,8,235.8862491173786,237.88678517728113,left,1,1,0.5887493508053012,E03T01,2021_Oct_19_0828,t1_Paradigm,2021.1.4,59.906427108157864,
G,left,Pretarget,0,9,9,9,239.38618543819757,241.3868260795134,left,1,1,0.768886647594627,E03T01,2021_Oct_19_0828,t1_Paradigm,2021.1.4,59.906427108157864,
G,right,Target,0,10,10,10,242.8863649268751,244.88698375364766,right,1,1,0.7406432526186109,E03T01,2021_Oct_19_0828,t1_Paradigm,2021.1.4,59.906427108157864,
G,right,Target,0,11,11,11,246.38662525755353,248.38641513232142,right,1,1,0.7133404487394728,E03T01,2021_Oct_19_0828,t1_Paradigm,2021.1.4,59.906427108157864,
P,left,Pretarget,0,12,12,12,249.88636813487392,251.88786275067832,left,1,1,0.6195453660329804,E03T01,2021_Oct_19_0828,t1_Paradigm,2021.1.4,59.906427108157864,
P,right,Target,0,13,13,13,253.38639363861876,255.38654152827803,right,1,1,0.705017565516755,E03T01,2021_Oct_19_0828,t1_Paradigm,2021.1.4,59.906427108157864,
G,left,Lure,0,14,14,14,256.88647720753215,258.8863572276314,left,1,1,0.6134228627197444,E03T01,2021_Oct_19_0828,t1_Paradigm,2021.1.4,59.906427108157864,
Y,left,Distractor,0,15,15,15,260.3863381398842,262.38852247968316,left,1,1,0.759260025632102,E03T01,2021_Oct_19_0828,t1_Paradigm,2021.1.4,59.906427108157864,
B,left,Distractor,0,16,16,16,263.8862927464652,265.8866145106731,left,1,1,0.7010393017553724,E03T01,2021_Oct_19_0828,t1_Paradigm,2021.1.4,59.906427108157864,
T,left,Pretarget,0,17,17,17,267.38643887167564,269.3862505609868,left,1,1,0.7693915896816179,E03T01,2021_Oct_19_0828,t1_Paradigm,2021.1.4,59.906427108157864,
T,right,Target,0,18,18,18,270.886378079711,272.8863459995482,None,0,1,,E03T01,2021_Oct_19_0828,t1_Paradigm,2021.1.4,59.906427108157864,
S,left,Distractor,0,19,19,19,274.3863535383716,276.38660023501143,left,1,1,0.6493119281949475,E03T01,2021_Oct_19_0828,t1_Paradigm,2021.1.4,59.906427108157864,
T,left,Lure,0,20,20,20,277.88624366378644,279.8867364153848,left,1,1,0.8129991476307623,E03T01,2021_Oct_19_0828,t1_Paradigm,2021.1.4,59.906427108157864,
J,left,Distractor,0,21,21,21,281.38647704711184,283.3884374672198,left,1,1,0.6871027069864795,E03T01,2021_Oct_19_0828,t1_Paradigm,2021.1.4,59.906427108157864,
P,left,Distractor,0,22,22,22,284.88630525773624,286.886298520898,left,1,1,0.7892094447743148,E03T01,2021_Oct_19_0828,t1_Paradigm,2021.1.4,59.906427108157864,
F,left,Distractor,0,23,23,23,288.38629643566674,290.3867718640249,left,1,1,0.6650187075720169,E03T01,2021_Oct_19_0828,t1_Paradigm,2021.1.4,59.906427108157864,
L,left,Distractor,0,24,24,24,291.88632290181704,293.886169879348,left,1,1,0.7015131260850467,E03T01,2021_Oct_19_0828,t1_Paradigm,2021.1.4,59.906427108157864,
W,left,Pretarget,0,25,25,25,295.3864440045436,297.38832711137366,left,1,1,0.7353275659843348,E03T01,2021_Oct_19_0828,t1_Paradigm,2021.1.4,59.906427108157864,
W,right,Target,0,26,26,26,298.8863357338705,300.8862811975996,right,1,1,1.0614649929921143,E03T01,2021_Oct_19_0828,t1_Paradigm,2021.1.4,59.906427108157864,
V,left,Distractor,0,27,27,27,302.38639909226913,304.386291302857,left,1,1,0.6172878834186122,E03T01,2021_Oct_19_0828,t1_Paradigm,2021.1.4,59.906427108157864,
W,left,Lure,0,28,28,28,305.8862853680039,307.8862196036498,left,1,1,0.7494697947404347,E03T01,2021_Oct_19_0828,t1_Paradigm,2021.1.4,59.906427108157864,
R,left,Pretarget,0,29,29,29,309.38620147830807,311.3879549812409,left,1,1,0.7997378407162614,E03T01,2021_Oct_19_0828,t1_Paradigm,2021.1.4,59.906427108157864,
R,right,Target,0,30,30,30,312.88653142302064,314.8864720746642,right,1,1,0.67719666659832,E03T01,2021_Oct_19_0828,t1_Paradigm,2021.1.4,59.906427108157864,
G,left,Distractor,0,31,31,31,316.38644175889203,318.38668011466507,left,1,1,0.7929949066019617,E03T01,2021_Oct_19_0828,t1_Paradigm,2021.1.4,59.906427108157864,
R,left,Lure,0,32,32,32,319.88661066105124,321.88682046550093,right,0,1,1.4368727722321637,E03T01,2021_Oct_19_0828,t1_Paradigm,2021.1.4,59.906427108157864,
S,left,Distractor,0,33,33,33,323.38655788917094,325.38695600425126,left,1,1,0.6567548518651165,E03T01,2021_Oct_19_0828,t1_Paradigm,2021.1.4,59.906427108157864,
R,left,Lure,0,34,34,34,326.88652693177573,328.88759744755225,left,1,1,0.7240138471242972,E03T01,2021_Oct_19_0828,t1_Paradigm,2021.1.4,59.906427108157864,
P,left,Pretarget,0,35,35,35,330.38630413491046,332.38644047570415,left,1,1,0.6332314145402052,E03T01,2021_Oct_19_0828,t1_Paradigm,2021.1.4,59.906427108157864,
P,right,Target,0,36,36,36,333.8863164857612,335.88637743814616,right,1,1,0.9092528556939214,E03T01,2021_Oct_19_0828,t1_Paradigm,2021.1.4,59.906427108157864,
Y,left,Pretarget,0,37,37,37,337.38634455594,339.3862120647682,left,1,1,0.5774561632424593,E03T01,2021_Oct_19_0828,t1_Paradigm,2021.1.4,59.906427108157864,
Y,right,Target,0,38,38,38,340.886351773981,342.8863485659822,right,1,1,0.6935306136729196,E03T01,2021_Oct_19_0828,t1_Paradigm,2021.1.4,59.906427108157864,
J,left,Distractor,0,39,39,39,344.3861677941168,346.3867670519976,left,1,1,0.7129481080919504,E03T01,2021_Oct_19_0828,t1_Paradigm,2021.1.4,59.906427108157864,
Y,left,Lure,0,40,40,40,347.8864268416073,349.88673096179264,left,1,1,0.7168622114113532,E03T01,2021_Oct_19_0828,t1_Paradigm,2021.1.4,59.906427108157864,
T,left,Distractor,0,41,41,41,351.38652997941244,353.38680458581075,left,1,1,0.9128913903259672,E03T01,2021_Oct_19_0828,t1_Paradigm,2021.1.4,59.906427108157864,
V,left,Distractor,0,42,42,42,354.8864175383351,356.88673096179264,left,1,1,0.8047988107427955,E03T01,2021_Oct_19_0828,t1_Paradigm,2021.1.4,59.906427108157864,
N,left,Pretarget,0,43,43,43,358.3863808065653,360.3882026402862,left,1,1,0.6955381916486658,E03T01,2021_Oct_19_0828,t1_Paradigm,2021.1.4,59.906427108157864,
N,right,Target,0,44,44,44,361.88643935287837,363.88639059098205,right,1,1,0.7653892657253891,E03T01,2021_Oct_19_0828,t1_Paradigm,2021.1.4,59.906427108157864,
N,right,Target,0,45,45,45,365.38654313230654,367.3864558741916,right,1,1,0.8170961081050336,E03T01,2021_Oct_19_0828,t1_Paradigm,2021.1.4,59.906427108157864,
X,left,Distractor,0,46,46,46,368.88645507220645,370.88818868540693,left,1,1,0.7074733036570251,E03T01,2021_Oct_19_0828,t1_Paradigm,2021.1.4,59.906427108157864,
Z,left,Distractor,0,47,47,47,372.3862239344744,374.38678822491784,left,1,1,0.5848426258889958,E03T01,2021_Oct_19_0828,t1_Paradigm,2021.1.4,59.906427108157864,
H,left,Pretarget,0,48,48,48,375.88631391938543,377.88657120242715,left,1,1,0.7331583038321696,E03T01,2021_Oct_19_0828,t1_Paradigm,2021.1.4,59.906427108157864,
H,right,Target,0,49,49,49,379.3863785609137,381.3864937287872,right,1,1,0.5931327872676775,E03T01,2021_Oct_19_0828,t1_Paradigm,2021.1.4,59.906427108157864,
K,left,Distractor,0,50,50,50,382.8863986110664,384.886665518221,left,1,1,0.5812124321237206,E03T01,2021_Oct_19_0828,t1_Paradigm,2021.1.4,59.906427108157864,
V,left,Pretarget,0,51,51,51,386.3864058291074,388.3869011471397,left,1,1,0.7446266491897404,E03T01,2021_Oct_19_0828,t1_Paradigm,2021.1.4,59.906427108157864,
V,right,Target,0,52,52,52,389.8863674932509,391.88639764866093,right,1,1,1.1011667884304188,E03T01,2021_Oct_19_0828,t1_Paradigm,2021.1.4,59.906427108157864,
R,left,Distractor,0,53,53,53,393.38650688168127,395.38881729659624,left,1,1,0.6547107024816796,E03T01,2021_Oct_19_0828,t1_Paradigm,2021.1.4,59.906427108157864,
V,left,Lure,0,54,54,54,396.8863196938182,398.8867980093346,left,1,1,0.7407362851663493,E03T01,2021_Oct_19_0828,t1_Paradigm,2021.1.4,59.906427108157864,
Y,left,Distractor,0,55,55,55,400.3864074330777,402.3867814880796,left,1,1,0.6328740413300693,E03T01,2021_Oct_19_0828,t1_Paradigm,2021.1.4,59.906427108157864,
Q,left,Distractor,0,56,56,56,403.8863267514389,405.886349207547,left,1,1,0.701191041036509,E03T01,2021_Oct_19_0828,t1_Paradigm,2021.1.4,59.906427108157864,
Z,left,Pretarget,0,57,57,57,407.3864533077576,409.3866573377745,left,1,1,0.7849517626455054,E03T01,2021_Oct_19_0828,t1_Paradigm,2021.1.4,59.906427108157864,
Z,right,Target,0,58,58,58,410.8862484758138,412.88635401957436,left,0,1,0.8852379499585368,E03T01,2021_Oct_19_0828,t1_Paradigm,2021.1.4,59.906427108157864,
B,left,Distractor,0,59,59,59,414.3863779193489,416.3867718640249,left,1,1,0.6166908711893484,E03T01,2021_Oct_19_0828,t1_Paradigm,2021.1.4,59.906427108157864,
S,left,Pretarget,0,60,60,60,417.8863617188181,419.8866847663303,left,1,1,0.7168246776564047,E03T01,2021_Oct_19_0828,t1_Paradigm,2021.1.4,59.906427108157864,
S,right,Target,0,61,61,61,421.386473839113,423.38639909226913,right,1,1,0.6251343758194707,E03T01,2021_Oct_19_0828,t1_Paradigm,2021.1.4,59.906427108157864,
T,left,Distractor,0,62,62,62,424.8863601148478,426.88675438030623,left,1,1,0.5969702190486714,E03T01,2021_Oct_19_0828,t1_Paradigm,2021.1.4,59.906427108157864,
D,left,Distractor,0,63,63,63,428.38661210465943,430.3883088256698,left,1,1,0.5993335662642494,E03T01,2021_Oct_19_0828,t1_Paradigm,2021.1.4,59.906427108157864,
R,left,Distractor,0,0,0,0,455.5497507529799,457.53616126580164,None,0,1,,E03T01,2021_Oct_19_0828,t1_Paradigm,2021.1.4,59.906427108157864,
V,left,Distractor,0,1,1,1,459.03606326086447,461.0360517119989,left,1,1,1.0875237273285165,E03T01,2021_Oct_19_0828,t1_Paradigm,2021.1.4,59.906427108157864,
N,left,Pretarget,0,2,2,2,462.5360566843883,464.5363444436807,left,1,1,0.6911441686679609,E03T01,2021_Oct_19_0828,t1_Paradigm,2021.1.4,59.906427108157864,
N,right,Target,0,3,3,3,466.0362044136273,468.0363192607183,right,1,1,0.6155132075655274,E03T01,2021_Oct_19_0828,t1_Paradigm,2021.1.4,59.906427108157864,
S,left,Distractor,0,4,4,4,469.5363575965166,471.5362767544575,left,1,1,0.7951462038327008,E03T01,2021_Oct_19_0828,t1_Paradigm,2021.1.4,59.906427108157864,
N,left,Lure,0,5,5,5,473.0362637619837,475.03632728074444,left,1,1,0.639125827816315,E03T01,2021_Oct_19_0828,t1_Paradigm,2021.1.4,59.906427108157864,
Z,left,Distractor,0,6,6,6,476.5362077820464,478.53672074421775,left,1,1,0.642856432532426,E03T01,2021_Oct_19_0828,t1_Paradigm,2021.1.4,59.906427108157864,
L,left,Pretarget,0,7,7,7,480.03615853900556,482.03606037364807,left,1,1,0.6637223472935148,E03T01,2021_Oct_19_0828,t1_Paradigm,2021.1.4,59.906427108157864,
L,right,Target,0,8,8,8,483.53620264923666,485.5362680928083,right,1,1,0.6836588990991004,E03T01,2021_Oct_19_0828,t1_Paradigm,2021.1.4,59.906427108157864,
H,left,Distractor,0,9,9,9,487.03623488981975,489.03619671438355,left,1,1,0.5593966230517253,E03T01,2021_Oct_19_0828,t1_Paradigm,2021.1.4,59.906427108157864,
L,left,Lure,0,10,10,10,490.53621901012957,492.5362530151615,left,1,1,0.8032878339872696,E03T01,2021_Oct_19_0828,t1_Paradigm,2021.1.4,59.906427108157864,
X,left,Pretarget,0,11,11,11,494.03604689997155,496.03673822793644,left,1,1,0.6629075105884112,E03T01,2021_Oct_19_0828,t1_Paradigm,2021.1.4,59.906427108157864,
X,right,Target,0,12,12,12,497.53629375697346,499.5362850953243,right,1,1,0.6993804353987798,E03T01,2021_Oct_19_0828,t1_Paradigm,2021.1.4,59.906427108157864,
X,right,Target,0,13,13,13,501.03646682959516,503.0364145388594,right,1,1,0.671004870091565,E03T01,2021_Oct_19_0828,t1_Paradigm,2021.1.4,59.906427108157864,
R,left,Distractor,0,14,14,14,504.53631877951557,506.5366816064343,left,1,1,0.6588663696893491,E03T01,2021_Oct_19_0828,t1_Paradigm,2021.1.4,59.906427108157864,
T,left,Distractor,0,15,15,15,508.0363397920155,510.03669299487956,left,1,1,1.0310552231385373,E03T01,2021_Oct_19_0828,t1_Paradigm,2021.1.4,59.906427108157864,
V,left,Pretarget,0,16,16,16,511.5363454060862,513.5376876409864,left,1,1,0.6657251132419333,E03T01,2021_Oct_19_0828,t1_Paradigm,2021.1.4,59.906427108157864,
V,right,Target,0,17,17,17,515.0361691254657,517.0362486843369,right,1,1,0.6391274317866191,E03T01,2021_Oct_19_0828,t1_Paradigm,2021.1.4,59.906427108157864,
N,left,Distractor,0,18,18,18,518.536208102887,520.5361647946411,left,1,1,0.659410128777381,E03T01,2021_Oct_19_0828,t1_Paradigm,2021.1.4,59.906427108157864,
B,left,Distractor,0,19,19,19,522.0361415364896,524.0360905289999,left,1,1,0.6475686909398064,E03T01,2021_Oct_19_0828,t1_Paradigm,2021.1.4,59.906427108157864,
V,left,Lure,0,20,20,20,525.5359472909477,527.5361596617731,left,1,1,0.7156059514381923,E03T01,2021_Oct_19_0828,t1_Paradigm,2021.1.4,59.906427108157864,
P,left,Distractor,0,21,21,21,529.0363221479347,531.036793085048,left,1,1,0.6546292188577354,E03T01,2021_Oct_19_0828,t1_Paradigm,2021.1.4,59.906427108157864,
K,left,Pretarget,0,22,22,22,532.5363344987854,534.5369629496126,left,1,1,0.7065763417049311,E03T01,2021_Oct_19_0828,t1_Paradigm,2021.1.4,59.906427108157864,
K,right,Target,0,23,23,23,536.0363375464221,538.0363089950406,right,1,1,0.6793364149634726,E03T01,2021_Oct_19_0828,t1_Paradigm,2021.1.4,59.906427108157864,
J,left,Pretarget,0,24,24,24,539.5362828497309,541.5366790400003,left,1,1,0.7310535229044035,E03T01,2021_Oct_19_0828,t1_Paradigm,2021.1.4,59.906427108157864,
J,right,Target,0,25,25,25,543.0362692156341,545.0363256767741,right,1,1,1.1353042757255025,E03T01,2021_Oct_19_0828,t1_Paradigm,2021.1.4,59.906427108157864,
H,left,Distractor,0,26,26,26,546.5364211152773,548.5380501471227,left,1,1,0.6414622276788577,E03T01,2021_Oct_19_0828,t1_Paradigm,2021.1.4,59.906427108157864,
J,left,Lure,0,27,27,27,550.0362021680339,552.0361704086536,left,1,1,0.6794153322116472,E03T01,2021_Oct_19_0828,t1_Paradigm,2021.1.4,59.906427108157864,
V,left,Distractor,0,28,28,28,553.5360059976811,555.5361477921251,left,1,1,0.6673066663788632,E03T01,2021_Oct_19_0828,t1_Paradigm,2021.1.4,59.906427108157864,
Z,left,Pretarget,0,29,29,29,557.0361742582754,559.0362358522252,left,1,1,0.7997224422288127,E03T01,2021_Oct_19_0828,t1_Paradigm,2021.1.4,59.906427108157864,
Z,right,Target,0,30,30,30,560.5359752007062,562.5361827595043,right,1,1,0.8033288966398686,E03T01,2021_Oct_19_0828,t1_Paradigm,2021.1.4,59.906427108157864,
T,left,Distractor,0,31,31,31,564.0362281529815,566.0366731051472,left,1,1,0.6469796987366863,E03T01,2021_Oct_19_0828,t1_Paradigm,2021.1.4,59.906427108157864,
Z,left,Lure,0,32,32,32,567.5362594311591,569.5366626791074,left,1,1,0.8908256765571423,E03T01,2021_Oct_19_0828,t1_Paradigm,2021.1.4,59.906427108157864,
F,left,Distractor,0,33,33,33,571.0362794813118,573.0367106389604,left,1,1,0.9268382507725619,E03T01,2021_Oct_19_0828,t1_Paradigm,2021.1.4,59.906427108157864,
Y,left,Pretarget,0,34,34,34,574.5363139674882,576.5366857768386,left,1,1,0.7227069003856741,E03T01,2021_Oct_19_0828,t1_Paradigm,2021.1.4,59.906427108157864,
Y,right,Target,0,35,35,35,578.036129987624,580.0363811754505,right,1,1,0.8550453630159609,E03T01,2021_Oct_19_0828,t1_Paradigm,2021.1.4,59.906427108157864,
Y,right,Target,0,36,36,36,581.5362680928083,583.5363027394051,right,1,1,0.8272414666134864,E03T01,2021_Oct_19_0828,t1_Paradigm,2021.1.4,59.906427108157864,
W,left,Distractor,0,37,37,37,585.0362833309337,587.0368533958099,left,1,1,0.7025801130221225,E03T01,2021_Oct_19_0828,t1_Paradigm,2021.1.4,59.906427108157864,
Q,left,Distractor,0,38,38,38,588.5362988897832,590.5369812353165,left,1,1,0.6584858986316249,E03T01,2021_Oct_19_0828,t1_Paradigm,2021.1.4,59.906427108157864,
P,left,Pretarget,0,39,39,39,592.0364023483708,594.0370224583894,left,1,1,0.614689709211234,E03T01,2021_Oct_19_0828,t1_Paradigm,2021.1.4,59.906427108157864,
P,right,Target,0,40,40,40,595.536547511234,597.5364480626886,right,1,1,0.6511369698564522,E03T01,2021_Oct_19_0828,t1_Paradigm,2021.1.4,59.906427108157864,
J,left,Distractor,0,41,41,41,599.0364164636703,601.0389235301409,left,1,1,0.7806972885155119,E03T01,2021_Oct_19_0828,t1_Paradigm,2021.1.4,59.906427108157864,
P,left,Lure,0,42,42,42,602.5362356918631,604.5365856866702,left,1,1,0.7068220759392716,E03T01,2021_Oct_19_0828,t1_Paradigm,2021.1.4,59.906427108157864,
L,left,Distractor,0,43,43,43,606.036001346074,608.0360751305125,left,1,1,0.679476926161442,E03T01,2021_Oct_19_0828,t1_Paradigm,2021.1.4,59.906427108157864,
Z,left,Distractor,0,44,44,44,609.5359832207905,611.5361022382858,left,1,1,0.6835918514989316,E03T01,2021_Oct_19_0828,t1_Paradigm,2021.1.4,59.906427108157864,
F,left,Pretarget,0,45,45,45,613.0362817269051,615.0369518819498,left,1,1,0.5904698111116886,E03T01,2021_Oct_19_0828,t1_Paradigm,2021.1.4,59.906427108157864,
F,right,Target,0,46,46,46,616.536236975051,618.5362940777559,right,1,1,0.8352451519458555,E03T01,2021_Oct_19_0828,t1_Paradigm,2021.1.4,59.906427108157864,
G,left,Pretarget,0,47,47,47,620.0362624787958,622.0367731953156,left,1,1,0.5987468196544796,E03T01,2021_Oct_19_0828,t1_Paradigm,2021.1.4,59.906427108157864,
G,right,Target,0,48,48,48,623.5364554410917,625.536265847215,right,1,1,0.587287777569145,E03T01,2021_Oct_19_0828,t1_Paradigm,2021.1.4,59.906427108157864,
V,left,Distractor,0,49,49,49,627.0363012957969,629.0365845638444,left,1,1,0.5748567058471963,E03T01,2021_Oct_19_0828,t1_Paradigm,2021.1.4,59.906427108157864,
G,left,Lure,0,50,50,50,630.5362719424302,632.5366787192179,left,1,1,0.8507806231500581,E03T01,2021_Oct_19_0828,t1_Paradigm,2021.1.4,59.906427108157864,
Q,left,Pretarget,0,51,51,51,634.0363446040428,636.0366859372589,left,1,1,0.758748667431064,E03T01,2021_Oct_19_0828,t1_Paradigm,2021.1.4,59.906427108157864,
Q,right,Target,0,52,52,52,637.5363178171101,639.5362696968368,right,1,1,0.9232058113557287,E03T01,2021_Oct_19_0828,t1_Paradigm,2021.1.4,59.906427108157864,
Y,left,Distractor,0,53,53,53,641.0362656867946,643.0367276414763,left,1,1,0.6546244068304077,E03T01,2021_Oct_19_0828,t1_Paradigm,2021.1.4,59.906427108157864,
V,left,Distractor,0,54,54,54,644.5362334462116,646.5383106382214,left,1,1,0.7370554047520272,E03T01,2021_Oct_19_0828,t1_Paradigm,2021.1.4,59.906427108157864,
B,left,Distractor,0,55,55,55,648.0362076216843,650.0365495964652,left,1,1,0.5991298570297658,E03T01,2021_Oct_19_0828,t1_Paradigm,2021.1.4,59.906427108157864,
J,left,Pretarget,0,56,56,56,651.5364807844744,653.5386535754078,left,1,1,0.6968457799521275,E03T01,2021_Oct_19_0828,t1_Paradigm,2021.1.4,59.906427108157864,
J,right,Target,0,57,57,57,655.0361065691104,657.0361925439793,right,1,1,0.8155450311023742,E03T01,2021_Oct_19_0828,t1_Paradigm,2021.1.4,59.906427108157864,
H,left,Distractor,0,58,58,58,658.5360801029601,660.5365135062602,left,1,1,0.6429857156472281,E03T01,2021_Oct_19_0828,t1_Paradigm,2021.1.4,59.906427108157864,
J,left,Lure,0,59,59,59,662.0365216867067,664.0359673411003,left,1,1,0.9674129480263218,E03T01,2021_Oct_19_0828,t1_Paradigm,2021.1.4,59.906427108157864,
D,left,Pretarget,0,60,60,60,665.5361420176923,667.5360714413109,left,1,1,0.8274073211359791,E03T01,2021_Oct_19_0828,t1_Paradigm,2021.1.4,59.906427108157864,
D,right,Target,0,61,61,61,669.0361402533017,671.0361745790578,right,1,1,0.6551437849993818,E03T01,2021_Oct_19_0828,t1_Paradigm,2021.1.4,59.906427108157864,
R,left,Distractor,0,62,62,62,672.5361051255022,674.5361250151764,left,1,1,0.6593296075589024,E03T01,2021_Oct_19_0828,t1_Paradigm,2021.1.4,59.906427108157864,
F,left,Distractor,0,63,63,63,676.0359968548291,678.0359538674238,left,1,1,0.6316341421334073,E03T01,2021_Oct_19_0828,t1_Paradigm,2021.1.4,59.906427108157864,
F,left,Distractor,0,0,0,0,825.507345560356,827.502517171728,left,1,2,0.65286962070968,E03T01,2021_Oct_19_0828,t1_Paradigm,2021.1.4,59.906427108157864,
N,left,Pretarget,0,1,1,1,829.0027691615978,831.0024807606824,left,1,2,1.0729067118372768,E03T01,2021_Oct_19_0828,t1_Paradigm,2021.1.4,59.906427108157864,
V,left,Distractor,0,2,2,2,832.502572991245,834.5025928809773,left,1,2,0.9968599914573133,E03T01,2021_Oct_19_0828,t1_Paradigm,2021.1.4,59.906427108157864,
N,right,Target,0,3,3,3,836.0025433170958,838.0025054624421,right,1,2,0.8727125625009649,E03T01,2021_Oct_19_0828,t1_Paradigm,2021.1.4,59.906427108157864,
N,left,Lure,0,4,4,4,839.5026920087403,841.5024764298578,None,0,2,,E03T01,2021_Oct_19_0828,t1_Paradigm,2021.1.4,59.906427108157864,
X,left,Distractor,0,5,5,5,843.0025176529307,845.0023514775676,left,1,2,1.0411024163477123,E03T01,2021_Oct_19_0828,t1_Paradigm,2021.1.4,59.906427108157864,
G,left,Pretarget,0,6,6,6,846.502911116404,848.5039007901214,left,1,2,0.8993663843139075,E03T01,2021_Oct_19_0828,t1_Paradigm,2021.1.4,59.906427108157864,
H,left,Pretarget,0,7,7,7,850.0026353871799,852.0026597681572,left,1,2,1.0488138512009755,E03T01,2021_Oct_19_0828,t1_Paradigm,2021.1.4,59.906427108157864,
G,right,Target,0,8,8,8,853.5026596077369,855.5024356880458,right,1,2,0.7008464998216368,E03T01,2021_Oct_19_0828,t1_Paradigm,2021.1.4,59.906427108157864,
H,right,Target,0,9,9,9,857.0025773220696,859.0024807606824,None,0,2,,E03T01,2021_Oct_19_0828,t1_Paradigm,2021.1.4,59.906427108157864,
T,left,Pretarget,0,10,10,10,860.5024908659398,862.5033227051608,left,1,2,1.1079905645456165,E03T01,2021_Oct_19_0828,t1_Paradigm,2021.1.4,59.906427108157864,
K,left,Distractor,0,11,11,11,864.0028172818711,866.0035345947836,left,1,2,1.367841346829664,E03T01,2021_Oct_19_0828,t1_Paradigm,2021.1.4,59.906427108157864,
T,right,Target,0,12,12,12,867.5028014021809,869.5034516674932,right,1,2,0.6199649748741649,E03T01,2021_Oct_19_0828,t1_Paradigm,2021.1.4,59.906427108157864,
T,left,Lure,0,13,13,13,871.002777823247,873.0025532619329,left,1,2,0.9768608832964674,E03T01,2021_Oct_19_0828,t1_Paradigm,2021.1.4,59.906427108157864,
J,left,Distractor,0,14,14,14,874.5027013119543,876.5024892619695,left,1,2,1.076895561942365,E03T01,2021_Oct_19_0828,t1_Paradigm,2021.1.4,59.906427108157864,
Q,left,Pretarget,0,15,15,15,878.0025365802576,880.0034078780445,left,1,2,1.0960971567546949,E03T01,2021_Oct_19_0828,t1_Paradigm,2021.1.4,59.906427108157864,
M,left,Distractor,0,16,16,16,881.5027667555842,883.5045539426501,left,1,2,1.2266442618565634,E03T01,2021_Oct_19_0828,t1_Paradigm,2021.1.4,59.906427108157864,
Q,right,Target,0,17,17,17,885.0025628859876,887.0024281492224,right,1,2,0.5929293988738209,E03T01,2021_Oct_19_0828,t1_Paradigm,2021.1.4,59.906427108157864,
R,left,Distractor,0,18,18,18,888.5024761090754,890.5026179035194,left,1,2,0.8207670436822809,E03T01,2021_Oct_19_0828,t1_Paradigm,2021.1.4,59.906427108157864,
W,left,Distractor,0,19,19,19,892.0025693020434,894.0024595877621,left,1,2,1.1129732588888146,E03T01,2021_Oct_19_0828,t1_Paradigm,2021.1.4,59.906427108157864,
C,left,Pretarget,0,20,20,20,895.503105522308,897.5030205098446,left,1,2,1.3402517460053787,E03T01,2021_Oct_19_0828,t1_Paradigm,2021.1.4,59.906427108157864,
T,left,Distractor,0,21,21,21,899.0025917581515,901.0025577531778,left,1,2,1.1368268012884073,E03T01,2021_Oct_19_0828,t1_Paradigm,2021.1.4,59.906427108157864,
C,right,Target,0,22,22,22,902.5025976930046,904.5025216629729,right,1,2,0.6448755593737587,E03T01,2021_Oct_19_0828,t1_Paradigm,2021.1.4,59.906427108157864,
F,left,Pretarget,0,23,23,23,906.0026764498325,908.0024830063339,left,1,2,0.9527943285065703,E03T01,2021_Oct_19_0828,t1_Paradigm,2021.1.4,59.906427108157864,
C,right,Target,0,24,24,24,909.5025970513816,911.5023744148784,right,1,2,0.6210621171630919,E03T01,2021_Oct_19_0828,t1_Paradigm,2021.1.4,59.906427108157864,
F,right,Target,0,25,25,25,913.0027001891867,915.003127818054,right,1,2,0.816360509430524,E03T01,2021_Oct_19_0828,t1_Paradigm,2021.1.4,59.906427108157864,
H,left,Distractor,0,26,26,26,916.5026361892233,918.5031975924503,left,1,2,0.9962366734398529,E03T01,2021_Oct_19_0828,t1_Paradigm,2021.1.4,59.906427108157864,
H,left,Lure,0,27,27,27,920.0028278683312,922.0029587554745,left,1,2,1.3843520556692965,E03T01,2021_Oct_19_0828,t1_Paradigm,2021.1.4,59.906427108157864,
P,left,Distractor,0,28,28,28,923.5027051615762,925.5031507553649,left,1,2,1.1001678114407696,E03T01,2021_Oct_19_0828,t1_Paradigm,2021.1.4,59.906427108157864,
G,left,Pretarget,0,29,29,29,927.0026979435352,929.0042753262678,left,1,2,1.007009199645836,E03T01,2021_Oct_19_0828,t1_Paradigm,2021.1.4,59.906427108157864,
K,left,Distractor,0,30,30,30,930.502600580221,932.5025158885401,left,1,2,1.1087476569227874,E03T01,2021_Oct_19_0828,t1_Paradigm,2021.1.4,59.906427108157864,
G,right,Target,0,31,31,31,934.0025872669066,936.0025202193647,right,1,2,1.400704609171953,E03T01,2021_Oct_19_0828,t1_Paradigm,2021.1.4,59.906427108157864,
M,left,Pretarget,0,32,32,32,937.5024074575049,939.502517171728,left,1,2,1.3247935880790465,E03T01,2021_Oct_19_0828,t1_Paradigm,2021.1.4,59.906427108157864,
B,left,Distractor,0,33,33,33,941.0025628859876,943.0024217331666,left,1,2,1.1369368363521062,E03T01,2021_Oct_19_0828,t1_Paradigm,2021.1.4,59.906427108157864,
M,right,Target,0,34,34,34,944.502414835908,946.5030695925234,right,1,2,0.6603099780040793,E03T01,2021_Oct_19_0828,t1_Paradigm,2021.1.4,59.906427108157864,
M,left,Lure,0,35,35,35,948.00274830946,950.0027396478108,left,1,2,1.080720482452307,E03T01,2021_Oct_19_0828,t1_Paradigm,2021.1.4,59.906427108157864,
T,left,Distractor,0,36,36,36,951.5027866452583,953.5031016726862,None,0,2,,E03T01,2021_Oct_19_0828,t1_Paradigm,2021.1.4,59.906427108157864,
F,left,Distractor,0,37,37,37,955.0028368507628,957.003044409561,left,1,2,1.456166757910978,E03T01,2021_Oct_19_0828,t1_Paradigm,2021.1.4,59.906427108157864,
X,left,Distractor,0,38,38,38,958.5026952167391,960.5034077176824,left,1,2,1.0120602247770876,E03T01,2021_Oct_19_0828,t1_Paradigm,2021.1.4,59.906427108157864,
C,left,Distractor,0,39,39,39,962.0027868056786,964.0030187453958,left,1,2,0.9363561208592728,E03T01,2021_Oct_19_0828,t1_Paradigm,2021.1.4,59.906427108157864,
R,left,Distractor,0,40,40,40,965.5028953970759,967.5031854019617,None,0,2,,E03T01,2021_Oct_19_0828,t1_Paradigm,2021.1.4,59.906427108157864,
B,left,Pretarget,0,41,41,41,969.002735798189,971.0030890009948,left,1,2,1.2484032890060917,E03T01,2021_Oct_19_0828,t1_Paradigm,2021.1.4,59.906427108157864,
H,left,Distractor,0,42,42,42,972.5027135024429,974.5033201387268,left,1,2,1.0600322919199243,E03T01,2021_Oct_19_0828,t1_Paradigm,2021.1.4,59.906427108157864,
B,right,Target,0,43,43,43,976.0026482192916,978.0032022440573,right,1,2,0.6161711721797474,E03T01,2021_Oct_19_0828,t1_Paradigm,2021.1.4,59.906427108157864,
W,left,Pretarget,0,44,44,44,979.5029396677855,981.503695797699,left,1,2,1.0196128627285361,E03T01,2021_Oct_19_0828,t1_Paradigm,2021.1.4,59.906427108157864,
L,left,Pretarget,0,45,45,45,983.0027024347801,985.0025616027997,left,1,2,1.1847719211364165,E03T01,2021_Oct_19_0828,t1_Paradigm,2021.1.4,59.906427108157864,
W,right,Target,0,46,46,46,986.5026522292756,988.5026108458405,right,1,2,1.2367039662785828,E03T01,2021_Oct_19_0828,t1_Paradigm,2021.1.4,59.906427108157864,
L,right,Target,0,47,47,47,990.0025814924738,992.0025567907724,right,1,2,0.6808964743395336,E03T01,2021_Oct_19_0828,t1_Paradigm,2021.1.4,59.906427108157864,
W,right,Target,0,48,48,48,993.5026275275741,995.5050213509821,right,1,2,1.3541767919668928,E03T01,2021_Oct_19_0828,t1_Paradigm,2021.1.4,59.906427108157864,
X,left,Distractor,0,49,49,49,997.0026687505888,999.0031967904652,left,1,2,0.8483351506874897,E03T01,2021_Oct_19_0828,t1_Paradigm,2021.1.4,59.906427108157864,
R,left,Distractor,0,50,50,50,1000.5026313771959,1002.5032405799138,left,1,2,0.9483618093072437,E03T01,2021_Oct_19_0828,t1_Paradigm,2021.1.4,59.906427108157864,
V,left,Pretarget,0,51,51,51,1004.0026835074532,1006.0029882692616,left,1,2,0.856190625578165,E03T01,2021_Oct_19_0828,t1_Paradigm,2021.1.4,59.906427108157864,
Z,left,Distractor,0,52,52,52,1007.5026894423063,1009.503249241563,left,1,2,0.8440598244196735,E03T01,2021_Oct_19_0828,t1_Paradigm,2021.1.4,59.906427108157864,
V,right,Target,0,53,53,53,1011.0026613721275,1013.0042214315617,right,1,2,0.9430996965384111,E03T01,2021_Oct_19_0828,t1_Paradigm,2021.1.4,59.906427108157864,
V,left,Lure,0,54,54,54,1014.5025511767017,1016.5023362395004,left,1,2,1.0288394447416067,E03T01,2021_Oct_19_0828,t1_Paradigm,2021.1.4,59.906427108157864,
N,left,Distractor,0,55,55,55,1018.0024958383874,1020.0024544549524,left,1,2,0.7768595359520987,E03T01,2021_Oct_19_0828,t1_Paradigm,2021.1.4,59.906427108157864,
B,left,Distractor,0,56,56,56,1021.5024026454776,1023.5024648809922,left,1,2,0.7650444037863053,E03T01,2021_Oct_19_0828,t1_Paradigm,2021.1.4,59.906427108157864,
V,left,Lure,0,57,57,57,1025.0025696228258,1027.002380670514,left,1,2,1.3447692777263,E03T01,2021_Oct_19_0828,t1_Paradigm,2021.1.4,59.906427108157864,
J,left,Distractor,0,58,58,58,1028.5023631868535,1030.5030445699813,left,1,2,0.8841398452641442,E03T01,2021_Oct_19_0828,t1_Paradigm,2021.1.4,59.906427108157864,
H,left,Distractor,0,59,59,59,1032.0026523896959,1034.0030700737261,left,1,2,1.0963361541507766,E03T01,2021_Oct_19_0828,t1_Paradigm,2021.1.4,59.906427108157864,
X,left,Pretarget,0,60,60,60,1035.5028684497229,1037.5030590060633,left,1,2,1.1644167228951119,E03T01,2021_Oct_19_0828,t1_Paradigm,2021.1.4,59.906427108157864,
P,left,Distractor,0,61,61,61,1039.0026520689134,1041.0032641588477,left,1,2,0.9600531119504012,E03T01,2021_Oct_19_0828,t1_Paradigm,2021.1.4,59.906427108157864,
X,right,Target,0,62,62,62,1042.502883527428,1044.5030513068195,right,1,2,1.1082404691842385,E03T01,2021_Oct_19_0828,t1_Paradigm,2021.1.4,59.906427108157864,
Q,left,Distractor,0,63,63,63,1046.0028647605213,1048.0050795765128,left,1,2,0.9342285629827529,E03T01,2021_Oct_19_0828,t1_Paradigm,2021.1.4,59.906427108157864,
B,left,Pretarget,0,0,0,0,1071.1600717825931,1073.15242739534,left,1,2,0.6187587599270046,E03T01,2021_Oct_19_0828,t1_Paradigm,2021.1.4,59.906427108157864,
F,left,Distractor,0,1,1,1,1074.652529249899,1076.6524307637592,left,1,2,0.6386767052463256,E03T01,2021_Oct_19_0828,t1_Paradigm,2021.1.4,59.906427108157864,
B,right,Target,0,2,2,2,1078.1523504029028,1080.1523513653083,right,1,2,0.6908153467811644,E03T01,2021_Oct_19_0828,t1_Paradigm,2021.1.4,59.906427108157864,
V,left,Distractor,0,3,3,3,1081.652460919111,1083.6523082174244,left,1,2,0.9030081268865615,E03T01,2021_Oct_19_0828,t1_Paradigm,2021.1.4,59.906427108157864,
G,left,Pretarget,0,4,4,4,1085.1524341321783,1087.1523940319312,None,0,2,,E03T01,2021_Oct_19_0828,t1_Paradigm,2021.1.4,59.906427108157864,
B,left,Lure,0,5,5,5,1088.652538232389,1090.6522892900975,left,1,2,1.1508695815573446,E03T01,2021_Oct_19_0828,t1_Paradigm,2021.1.4,59.906427108157864,
G,right,Target,0,6,6,6,1092.1524289993104,1094.152345911658,right,1,2,1.234920949616935,E03T01,2021_Oct_19_0828,t1_Paradigm,2021.1.4,59.906427108157864,
Y,left,Pretarget,0,7,7,7,1095.6526187536074,1097.653164758347,left,1,2,0.7740355172427371,E03T01,2021_Oct_19_0828,t1_Paradigm,2021.1.4,59.906427108157864,
P,left,Distractor,0,8,8,8,1099.1525788137806,1101.1530555253266,left,1,2,0.9540842727292329,E03T01,2021_Oct_19_0828,t1_Paradigm,2021.1.4,59.906427108157864,
Y,right,Target,0,9,9,9,1102.6527987234876,1104.6531435854267,right,1,2,0.8462380689452402,E03T01,2021_Oct_19_0828,t1_Paradigm,2021.1.4,59.906427108157864,
X,left,Distractor,0,10,10,10,1106.1526590142748,1108.1531235353323,left,1,2,0.6262254230096005,E03T01,2021_Oct_19_0828,t1_Paradigm,2021.1.4,59.906427108157864,
Y,right,Target,0,11,11,11,1109.6526389641222,1111.6528144427575,right,1,2,0.6305623431690037,E03T01,2021_Oct_19_0828,t1_Paradigm,2021.1.4,59.906427108157864,
N,left,Distractor,0,12,12,12,1113.1527921470115,1115.1541940511088,left,1,2,0.9690448670298792,E03T01,2021_Oct_19_0828,t1_Paradigm,2021.1.4,59.906427108157864,
Y,right,Target,0,13,13,13,1116.652458352677,1118.6525841070106,right,1,2,0.6225993996486068,E03T01,2021_Oct_19_0828,t1_Paradigm,2021.1.4,59.906427108157864,
Y,left,Lure,0,14,14,14,1120.1524164880393,1122.1525027837488,left,1,2,1.0267644983832724,E03T01,2021_Oct_19_0828,t1_Paradigm,2021.1.4,59.906427108157864,
K,left,Distractor,0,15,15,15,1123.6525603677146,1125.6528782823007,left,1,2,0.9503199838218279,E03T01,2021_Oct_19_0828,t1_Paradigm,2021.1.4,59.906427108157864,
T,left,Pretarget,0,16,16,16,1127.1524504930712,1129.1544445973705,None,0,2,,E03T01,2021_Oct_19_0828,t1_Paradigm,2021.1.4,59.906427108157864,
J,left,Distractor,0,17,17,17,1130.6524657311384,1132.652743224753,left,1,2,1.0065257512032986,E03T01,2021_Oct_19_0828,t1_Paradigm,2021.1.4,59.906427108157864,
T,right,Target,0,18,18,18,1134.1525393551565,1136.15251016221,right,1,2,0.6107335808337666,E03T01,2021_Oct_19_0828,t1_Paradigm,2021.1.4,59.906427108157864,
S,left,Pretarget,0,19,19,19,1137.6525215506554,1139.652449049463,left,1,2,0.5668610404827632,E03T01,2021_Oct_19_0828,t1_Paradigm,2021.1.4,59.906427108157864,
R,left,Distractor,0,20,20,20,1141.152496367693,1143.1527263826574,left,1,2,0.7306396884960122,E03T01,2021_Oct_19_0828,t1_Paradigm,2021.1.4,59.906427108157864,
S,right,Target,0,21,21,21,1144.6525536308764,1146.653204858594,right,1,2,1.1339530583354644,E03T01,2021_Oct_19_0828,t1_Paradigm,2021.1.4,59.906427108157864,
Q,left,Distractor,0,22,22,22,1148.1525496208342,1150.1530426932732,left,1,2,1.0741857487591915,E03T01,2021_Oct_19_0828,t1_Paradigm,2021.1.4,59.906427108157864,
D,left,Distractor,0,23,23,23,1151.6526659114752,1153.6529950542026,left,1,2,1.2061722917715088,E03T01,2021_Oct_19_0828,t1_Paradigm,2021.1.4,59.906427108157864,
F,left,Distractor,0,24,24,24,1155.1525935707032,1157.1530317860306,left,1,2,0.7622322547249496,E03T01,2021_Oct_19_0828,t1_Paradigm,2021.1.4,59.906427108157864,
Z,left,Distractor,0,25,25,25,1158.6525783325778,1160.6532728685997,left,1,2,1.0538645554916002,E03T01,2021_Oct_19_0828,t1_Paradigm,2021.1.4,59.906427108157864,
P,left,Distractor,0,26,26,26,1162.1525759265642,1164.1541629333515,left,1,2,0.9611515374854207,E03T01,2021_Oct_19_0828,t1_Paradigm,2021.1.4,59.906427108157864,
H,left,Distractor,0,27,27,27,1165.6524015707546,1167.652434613381,left,1,2,1.158803332131356,E03T01,2021_Oct_19_0828,t1_Paradigm,2021.1.4,59.906427108157864,
Z,left,Pretarget,0,28,28,28,1169.1525018213433,1171.152389861527,left,1,2,1.258773208828643,E03T01,2021_Oct_19_0828,t1_Paradigm,2021.1.4,59.906427108157864,
J,left,Pretarget,0,29,29,29,1172.652447124652,1174.6524304429186,left,1,2,0.9907050871988758,E03T01,2021_Oct_19_0828,t1_Paradigm,2021.1.4,59.906427108157864,
Z,right,Target,0,30,30,30,1176.1524184128502,1178.152243575838,right,1,2,0.8991758279735222,E03T01,2021_Oct_19_0828,t1_Paradigm,2021.1.4,59.906427108157864,
J,right,Target,0,31,31,31,1179.6525225130608,1181.6533213096554,right,1,2,1.3019056592020206,E03T01,2021_Oct_19_0828,t1_Paradigm,2021.1.4,59.906427108157864,
V,left,Pretarget,0,32,32,32,1183.1526721671107,1185.15307733987,left,1,2,0.6661238699452952,E03T01,2021_Oct_19_0828,t1_Paradigm,2021.1.4,59.906427108157864,
Z,left,Lure,0,33,33,33,1186.6525420820108,1188.6528923976002,left,1,2,0.7342284988262691,E03T01,2021_Oct_19_0828,t1_Paradigm,2021.1.4,59.906427108157864,
V,right,Target,0,34,34,34,1190.1526792247896,1192.153175184445,right,1,2,1.1219162521301769,E03T01,2021_Oct_19_0828,t1_Paradigm,2021.1.4,59.906427108157864,
X,left,Distractor,0,35,35,35,1193.6525610092795,1195.6710869953386,left,1,2,0.7401078343391418,E03T01,2021_Oct_19_0828,t1_Paradigm,2021.1.4,59.906427108157864,
S,left,Distractor,0,36,36,36,1197.1527417811449,1199.154326863063,left,1,2,1.14496522344416,E03T01,2021_Oct_19_0828,t1_Paradigm,2021.1.4,59.906427108157864,
Q,left,Distractor,0,37,37,37,1200.6523524880758,1202.6523797562695,left,1,2,1.0546832418185659,E03T01,2021_Oct_19_0828,t1_Paradigm,2021.1.4,59.906427108157864,
P,left,Distractor,0,38,38,38,1204.1524774404243,1206.1523680469836,left,1,2,0.9469146721530706,E03T01,2021_Oct_19_0828,t1_Paradigm,2021.1.4,59.906427108157864,
S,left,Lure,0,39,39,39,1207.652347355266,1209.652224488149,None,0,2,,E03T01,2021_Oct_19_0828,t1_Paradigm,2021.1.4,59.906427108157864,
K,left,Pretarget,0,40,40,40,1211.1523561773356,1213.1523905030917,left,1,2,0.8428202460636385,E03T01,2021_Oct_19_0828,t1_Paradigm,2021.1.4,59.906427108157864,
L,left,Distractor,0,41,41,41,1214.6524073451874,1216.65248530003,left,1,2,0.9586181652848609,E03T01,2021_Oct_19_0828,t1_Paradigm,2021.1.4,59.906427108157864,
K,right,Target,0,42,42,42,1218.1524816108285,1220.1525476960232,right,1,2,0.5148176770890132,E03T01,2021_Oct_19_0828,t1_Paradigm,2021.1.4,59.906427108157864,
B,left,Distractor,0,43,43,43,1221.6526116959867,1223.652674893965,left,1,2,0.774491376709193,E03T01,2021_Oct_19_0828,t1_Paradigm,2021.1.4,59.906427108157864,
N,left,Distractor,0,44,44,44,1225.1524594755028,1227.1527273450629,left,1,2,0.6344642561161891,E03T01,2021_Oct_19_0828,t1_Paradigm,2021.1.4,59.906427108157864,
S,left,Pretarget,0,45,45,45,1228.652366282593,1230.6532298811362,left,1,2,1.07001275831135,E03T01,2021_Oct_19_0828,t1_Paradigm,2021.1.4,59.906427108157864,
Z,left,Distractor,0,46,46,46,1232.1525707937544,1234.1528842171538,left,1,2,0.7541567098232917,E03T01,2021_Oct_19_0828,t1_Paradigm,2021.1.4,59.906427108157864,
S,right,Target,0,47,47,47,1235.6522443778813,1237.652397079568,right,1,2,0.5988648746861145,E03T01,2021_Oct_19_0828,t1_Paradigm,2021.1.4,59.906427108157864,
C,left,Distractor,0,48,48,48,1239.1523885782808,1241.1522512750817,left,1,2,0.6349483460653573,E03T01,2021_Oct_19_0828,t1_Paradigm,2021.1.4,59.906427108157864,
T,left,Pretarget,0,49,49,49,1242.6524118364323,1244.6523576209438,left,1,2,0.8309294046484865,E03T01,2021_Oct_19_0828,t1_Paradigm,2021.1.4,59.906427108157864,
S,left,Lure,0,50,50,50,1246.1526144227828,1248.153289389913,left,1,2,0.7377836249070242,E03T01,2021_Oct_19_0828,t1_Paradigm,2021.1.4,59.906427108157864,
T,right,Target,0,51,51,51,1249.6526813099626,1251.6532536204904,right,1,2,1.2538062337553129,E03T01,2021_Oct_19_0828,t1_Paradigm,2021.1.4,59.906427108157864,
N,left,Pretarget,0,52,52,52,1253.1524921972887,1255.1530664326274,left,1,2,0.6341181109310128,E03T01,2021_Oct_19_0828,t1_Paradigm,2021.1.4,59.906427108157864,
B,left,Distractor,0,53,53,53,1256.6524971697363,1258.653223144298,left,1,2,1.1019745674566366,E03T01,2021_Oct_19_0828,t1_Paradigm,2021.1.4,59.906427108157864,
N,right,Target,0,54,54,54,1260.1526076859445,1262.1528524577734,right,1,2,0.7062815247918479,E03T01,2021_Oct_19_0828,t1_Paradigm,2021.1.4,59.906427108157864,
N,left,Lure,0,55,55,55,1263.6526668738807,1265.6528263124055,left,1,2,0.8387617818661965,E03T01,2021_Oct_19_0828,t1_Paradigm,2021.1.4,59.906427108157864,
X,left,Distractor,0,56,56,56,1267.1524710243684,1269.152794392663,left,1,2,0.8583608501357958,E03T01,2021_Oct_19_0828,t1_Paradigm,2021.1.4,59.906427108157864,
W,left,Distractor,0,57,57,57,1270.652438463003,1272.6528535805992,left,1,2,1.1662831480498426,E03T01,2021_Oct_19_0828,t1_Paradigm,2021.1.4,59.906427108157864,
S,left,Distractor,0,58,58,58,1274.1524614003138,1276.152733440278,left,1,2,1.0743740594480187,E03T01,2021_Oct_19_0828,t1_Paradigm,2021.1.4,59.906427108157864,
L,left,Distractor,0,59,59,59,1277.6524281973252,1279.6531451894552,left,1,2,1.1100831550429575,E03T01,2021_Oct_19_0828,t1_Paradigm,2021.1.4,59.906427108157864,
K,left,Pretarget,0,60,60,60,1281.1524816108285,1283.1530526381102,left,1,2,1.0179876805632375,E03T01,2021_Oct_19_0828,t1_Paradigm,2021.1.4,59.906427108157864,
V,left,Pretarget,0,61,61,61,1284.6526181120425,1286.6528879063553,left,1,2,0.7985903325607069,E03T01,2021_Oct_19_0828,t1_Paradigm,2021.1.4,59.906427108157864,
K,right,Target,0,62,62,62,1288.152495084505,1290.1528537409613,right,1,2,1.1062020942918025,E03T01,2021_Oct_19_0828,t1_Paradigm,2021.1.4,59.906427108157864,
V,right,Target,0,63,63,63,1291.6525128890062,1293.6531593047548,right,1,2,1.286040403705556,E03T01,2021_Oct_19_0828,t1_Paradigm,2021.1.4,59.906427108157864,
R,left,Distractor,0,0,0,0,1402.7795116048655,1404.7689642815967,left,1,3,0.4900411877897568,E03T01,2021_Oct_19_0828,t1_Paradigm,2021.1.4,59.906427108157864,
P,left,Lure,0,1,1,1,1406.2689654044225,1408.2689410234452,left,1,3,0.4942010253435001,E03T01,2021_Oct_19_0828,t1_Paradigm,2021.1.4,59.906427108157864,
V,left,Distractor,0,2,2,2,1409.7689886625158,1411.7689873793279,left,1,3,0.5941407466889359,E03T01,2021_Oct_19_0828,t1_Paradigm,2021.1.4,59.906427108157864,
P,left,Pretarget,0,3,3,3,1413.268993314181,1415.2692659957684,left,1,3,1.0140216072904877,E03T01,2021_Oct_19_0828,t1_Paradigm,2021.1.4,59.906427108157864,
Z,left,Distractor,0,4,4,4,1416.7690201011137,1418.7689655647846,left,1,3,1.0501297804294154,E03T01,2021_Oct_19_0828,t1_Paradigm,2021.1.4,59.906427108157864,
L,left,Pretarget,0,5,5,5,1420.2690148078837,1422.2689506474999,left,1,3,1.1181686448981054,E03T01,2021_Oct_19_0828,t1_Paradigm,2021.1.4,59.906427108157864,
P,right,Target,0,6,6,6,1423.769080732658,1425.7688998004305,right,1,3,0.6581715128850192,E03T01,2021_Oct_19_0828,t1_Paradigm,2021.1.4,59.906427108157864,
S,left,Distractor,0,7,7,7,1427.269019619911,1429.2709947969415,None,0,3,,E03T01,2021_Oct_19_0828,t1_Paradigm,2021.1.4,59.906427108157864,
L,right,Target,0,8,8,8,1430.7688122215332,1432.7690002113814,right,1,3,0.6019192292005755,E03T01,2021_Oct_19_0828,t1_Paradigm,2021.1.4,59.906427108157864,
D,left,Distractor,0,9,9,9,1434.2690513792913,1436.2688588981982,left,1,3,0.8303141067153774,E03T01,2021_Oct_19_0828,t1_Paradigm,2021.1.4,59.906427108157864,
G,left,Distractor,0,10,10,10,1437.7689783968963,1439.7688690034556,None,0,3,,E03T01,2021_Oct_19_0828,t1_Paradigm,2021.1.4,59.906427108157864,
M,left,Pretarget,0,11,11,11,1441.2689147177152,1443.2688133443007,left,1,3,0.982348519784864,E03T01,2021_Oct_19_0828,t1_Paradigm,2021.1.4,59.906427108157864,
Y,left,Distractor,0,12,12,12,1444.7687804621528,1446.769816652115,left,1,3,1.1611320327501744,E03T01,2021_Oct_19_0828,t1_Paradigm,2021.1.4,59.906427108157864,
V,left,Distractor,0,13,13,13,1448.2687729232712,1450.2687636200571,None,0,3,,E03T01,2021_Oct_19_0828,t1_Paradigm,2021.1.4,59.906427108157864,
M,right,Target,0,14,14,14,1451.768740682688,1453.768783990934,right,1,3,0.7862632005708292,E03T01,2021_Oct_19_0828,t1_Paradigm,2021.1.4,59.906427108157864,
S,left,Pretarget,0,15,15,15,1455.2686981764855,1457.2688739759033,left,1,3,0.9822173118591309,E03T01,2021_Oct_19_0828,t1_Paradigm,2021.1.4,59.906427108157864,
Q,left,Distractor,0,16,16,16,1458.7689370134613,1460.7687923318008,left,1,3,1.274187737784814,E03T01,2021_Oct_19_0828,t1_Paradigm,2021.1.4,59.906427108157864,
R,left,Pretarget,0,17,17,17,1462.26886274782,1464.269668922876,left,1,3,1.2774756358703598,E03T01,2021_Oct_19_0828,t1_Paradigm,2021.1.4,59.906427108157864,
S,right,Target,0,18,18,18,1465.7689174445113,1467.7688465473475,right,1,3,0.7221134169376455,E03T01,2021_Oct_19_0828,t1_Paradigm,2021.1.4,59.906427108157864,
F,left,Distractor,0,19,19,19,1469.268995238992,1471.2689038104727,left,1,3,1.046399817278143,E03T01,2021_Oct_19_0828,t1_Paradigm,2021.1.4,59.906427108157864,
R,right,Target,0,20,20,20,1472.7688872891595,1474.7688391688862,right,1,3,0.6022307277307846,E03T01,2021_Oct_19_0828,t1_Paradigm,2021.1.4,59.906427108157864,
P,left,Distractor,0,21,21,21,1476.2688643518486,1478.2688893743907,left,1,3,1.0221799191785976,E03T01,2021_Oct_19_0828,t1_Paradigm,2021.1.4,59.906427108157864,
L,left,Distractor,0,22,22,22,1479.7692311887513,1481.7694535044138,left,1,3,1.0895139819476753,E03T01,2021_Oct_19_0828,t1_Paradigm,2021.1.4,59.906427108157864,
R,right,Target,0,23,23,23,1483.26928556466,1485.2697427073144,right,1,3,0.6774122454226017,E03T01,2021_Oct_19_0828,t1_Paradigm,2021.1.4,59.906427108157864,
H,left,Pretarget,0,24,24,24,1486.7691683115554,1488.7693826071918,left,1,3,1.3375778626068495,E03T01,2021_Oct_19_0828,t1_Paradigm,2021.1.4,59.906427108157864,
G,left,Pretarget,0,25,25,25,1490.2692990383366,1492.2689285121742,left,1,3,1.2464011646807194,E03T01,2021_Oct_19_0828,t1_Paradigm,2021.1.4,59.906427108157864,
T,left,Distractor,0,26,26,26,1493.7689864169224,1495.7687794997473,None,0,3,,E03T01,2021_Oct_19_0828,t1_Paradigm,2021.1.4,59.906427108157864,
H,right,Target,0,27,27,27,1497.2691132940818,1499.2694565520505,right,1,3,0.9818474273197353,E03T01,2021_Oct_19_0828,t1_Paradigm,2021.1.4,59.906427108157864,
G,right,Target,0,28,28,28,1500.769169915584,1502.769378116005,right,1,3,1.2097364003420807,E03T01,2021_Oct_19_0828,t1_Paradigm,2021.1.4,59.906427108157864,
D,left,Distractor,0,29,29,29,1504.269170717569,1506.2693834092352,left,1,3,0.7978483178303577,E03T01,2021_Oct_19_0828,t1_Paradigm,2021.1.4,59.906427108157864,
N,left,Pretarget,0,30,30,30,1507.7692145070178,1509.769578937965,left,1,3,0.9296228107996285,E03T01,2021_Oct_19_0828,t1_Paradigm,2021.1.4,59.906427108157864,
V,left,Distractor,0,31,31,31,1511.269185153651,1513.2705732632894,left,1,3,1.2203417887212709,E03T01,2021_Oct_19_0828,t1_Paradigm,2021.1.4,59.906427108157864,
R,left,Distractor,0,32,32,32,1514.7688459057244,1516.7687400411232,left,1,3,1.3221575592760928,E03T01,2021_Oct_19_0828,t1_Paradigm,2021.1.4,59.906427108157864,
N,right,Target,0,33,33,33,1518.2688306676573,1520.2688345172792,right,1,3,0.6701566699775867,E03T01,2021_Oct_19_0828,t1_Paradigm,2021.1.4,59.906427108157864,
Z,left,Distractor,0,34,34,34,1521.7689896249212,1523.7687365122838,left,1,3,0.7061352391610853,E03T01,2021_Oct_19_0828,t1_Paradigm,2021.1.4,59.906427108157864,
N,left,Lure,0,35,35,35,1525.2688303468167,1527.268810777925,right,0,3,0.806091962964274,E03T01,2021_Oct_19_0828,t1_Paradigm,2021.1.4,59.906427108157864,
Y,left,Pretarget,0,36,36,36,1528.7686274396838,1530.7701294339495,left,1,3,1.097081697662361,E03T01,2021_Oct_19_0828,t1_Paradigm,2021.1.4,59.906427108157864,
Y,left,Lure,0,37,37,37,1532.2690824971069,1534.2691360709723,left,1,3,1.261847773741465,E03T01,2021_Oct_19_0828,t1_Paradigm,2021.1.4,59.906427108157864,
B,left,Distractor,0,38,38,38,1535.769095810363,1537.7696161509375,left,1,3,0.8173954162048176,E03T01,2021_Oct_19_0828,t1_Paradigm,2021.1.4,59.906427108157864,
Y,right,Target,0,39,39,39,1539.2690269983723,1541.2696942662005,right,1,3,0.9656077960389666,E03T01,2021_Oct_19_0828,t1_Paradigm,2021.1.4,59.906427108157864,
J,left,Distractor,0,40,40,40,1542.76912532415,1544.7694409931428,left,1,3,0.937482456152793,E03T01,2021_Oct_19_0828,t1_Paradigm,2021.1.4,59.906427108157864,
X,left,Distractor,0,41,41,41,1546.2689984469907,1548.2696175945457,left,1,3,1.005318253126461,E03T01,2021_Oct_19_0828,t1_Paradigm,2021.1.4,59.906427108157864,
W,left,Pretarget,0,42,42,42,1549.7690675798221,1551.7694849430118,left,1,3,1.265615270647686,E03T01,2021_Oct_19_0828,t1_Paradigm,2021.1.4,59.906427108157864,
S,left,Pretarget,0,43,43,43,1553.269215950626,1555.269345875422,left,1,3,1.301761619222816,E03T01,2021_Oct_19_0828,t1_Paradigm,2021.1.4,59.906427108157864,
R,left,Distractor,0,44,44,44,1556.7688767026993,1558.7697916295729,None,0,3,,E03T01,2021_Oct_19_0828,t1_Paradigm,2021.1.4,59.906427108157864,
W,right,Target,0,45,45,45,1560.2690988579998,1562.2693699355586,right,1,3,0.8937712791957892,E03T01,2021_Oct_19_0828,t1_Paradigm,2021.1.4,59.906427108157864,
S,right,Target,0,46,46,46,1563.768972943246,1565.769437143521,right,1,3,1.0096503612585366,E03T01,2021_Oct_19_0828,t1_Paradigm,2021.1.4,59.906427108157864,
D,left,Distractor,0,47,47,47,1567.2690093542333,1569.2693862964516,left,1,3,0.8536870879470371,E03T01,2021_Oct_19_0828,t1_Paradigm,2021.1.4,59.906427108157864,
T,left,Distractor,0,48,48,48,1570.7689995698165,1572.7694294442772,left,1,3,0.9855793152237311,E03T01,2021_Oct_19_0828,t1_Paradigm,2021.1.4,59.906427108157864,
S,right,Target,0,49,49,49,1574.268890978361,1576.2687860761653,right,1,3,0.7823077137582004,E03T01,2021_Oct_19_0828,t1_Paradigm,2021.1.4,59.906427108157864,
K,left,Distractor,0,50,50,50,1577.7688597001834,1579.770927588921,left,1,3,0.7999684973037802,E03T01,2021_Oct_19_0828,t1_Paradigm,2021.1.4,59.906427108157864,
S,left,Lure,0,51,51,51,1581.2688175147632,1583.268794417032,left,1,3,1.0943337089847773,E03T01,2021_Oct_19_0828,t1_Paradigm,2021.1.4,59.906427108157864,
T,left,Pretarget,0,52,52,52,1584.7688802315388,1586.7687881613965,left,1,3,1.226283680589404,E03T01,2021_Oct_19_0828,t1_Paradigm,2021.1.4,59.906427108157864,
V,left,Distractor,0,53,53,53,1588.268823289196,1590.2687844721368,left,1,3,0.9421536519075744,E03T01,2021_Oct_19_0828,t1_Paradigm,2021.1.4,59.906427108157864,
B,left,Distractor,0,54,54,54,1591.7688356400467,1593.7686662566848,left,1,3,1.042374074808322,E03T01,2021_Oct_19_0828,t1_Paradigm,2021.1.4,59.906427108157864,
T,right,Target,0,55,55,55,1595.2687857553829,1597.2693574242876,right,1,3,0.6457269674865529,E03T01,2021_Oct_19_0828,t1_Paradigm,2021.1.4,59.906427108157864,
Y,left,Pretarget,0,56,56,56,1598.7689771136502,1600.7695722011267,left,1,3,0.6494918980170041,E03T01,2021_Oct_19_0828,t1_Paradigm,2021.1.4,59.906427108157864,
T,left,Lure,0,57,57,57,1602.2690812138608,1604.2693516498548,left,1,3,1.1176861588610336,E03T01,2021_Oct_19_0828,t1_Paradigm,2021.1.4,59.906427108157864,
P,left,Pretarget,0,58,58,58,1605.7690906775533,1607.76949167985,left,1,3,1.0095650279545225,E03T01,2021_Oct_19_0828,t1_Paradigm,2021.1.4,59.906427108157864,
Y,right,Target,0,59,59,59,1609.2692143466556,1611.2693981660996,right,1,3,0.5336035126820207,E03T01,2021_Oct_19_0828,t1_Paradigm,2021.1.4,59.906427108157864,
R,left,Distractor,0,60,60,60,1612.769350527029,1614.771112049988,left,1,3,1.3037945405812934,E03T01,2021_Oct_19_0828,t1_Paradigm,2021.1.4,59.906427108157864,
P,right,Target,0,61,61,61,1616.2689509683405,1618.269263108552,right,1,3,1.1178821687935852,E03T01,2021_Oct_19_0828,t1_Paradigm,2021.1.4,59.906427108157864,
L,left,Distractor,0,62,62,62,1619.7688998004305,1621.769250757643,left,1,3,0.8661316333455034,E03T01,2021_Oct_19_0828,t1_Paradigm,2021.1.4,59.906427108157864,
V,left,Distractor,0,63,63,63,1623.2690574745648,1625.2692522012512,left,1,3,1.3336862153373659,E03T01,2021_Oct_19_0828,t1_Paradigm,2021.1.4,59.906427108157864,
H,left,Lure,0,0,0,0,1654.7312437584042,1656.7187706616241,None,0,3,,E03T01,2021_Oct_19_0828,t1_Paradigm,2021.1.4,59.906427108157864,
B,left,Distractor,0,1,1,1,1658.2187551027746,1660.218786220532,None,0,3,,E03T01,2021_Oct_19_0828,t1_Paradigm,2021.1.4,59.906427108157864,
T,left,Distractor,0,2,2,2,1661.7187552631367,1663.7191639647353,left,1,3,0.7557161275763065,E03T01,2021_Oct_19_0828,t1_Paradigm,2021.1.4,59.906427108157864,
R,left,Distractor,0,3,3,3,1665.21877178445,1667.2192212278605,left,1,3,0.6479263849323615,E03T01,2021_Oct_19_0828,t1_Paradigm,2021.1.4,59.906427108157864,
H,left,Pretarget,0,4,4,4,1668.718817819492,1670.7187748320866,left,1,3,1.0682191551313736,E03T01,2021_Oct_19_0828,t1_Paradigm,2021.1.4,59.906427108157864,
K,left,Distractor,0,5,5,5,1672.2188057894236,1674.2187262306106,left,1,3,0.8484172759344801,E03T01,2021_Oct_19_0828,t1_Paradigm,2021.1.4,59.906427108157864,
G,left,Distractor,0,6,6,6,1675.7188069122494,1677.7187443558942,left,1,3,1.2040918917628005,E03T01,2021_Oct_19_0828,t1_Paradigm,2021.1.4,59.906427108157864,
H,right,Target,0,7,7,7,1679.2188173382892,1681.2209683147375,right,1,3,0.9340110593475401,E03T01,2021_Oct_19_0828,t1_Paradigm,2021.1.4,59.906427108157864,
Y,left,Pretarget,0,8,8,8,1682.7187032932416,1684.7188107618713,left,1,3,0.6681782850064337,E03T01,2021_Oct_19_0828,t1_Paradigm,2021.1.4,59.906427108157864,
S,left,Distractor,0,9,9,9,1686.218839473615,1688.2185959850322,left,1,3,1.0882548347581178,E03T01,2021_Oct_19_0828,t1_Paradigm,2021.1.4,59.906427108157864,
P,left,Distractor,0,10,10,10,1689.718830972386,1691.7187440351117,left,1,3,1.0282129187253304,E03T01,2021_Oct_19_0828,t1_Paradigm,2021.1.4,59.906427108157864,
Y,right,Target,0,11,11,11,1693.218684526335,1695.218626140384,right,1,3,0.6644752692081966,E03T01,2021_Oct_19_0828,t1_Paradigm,2021.1.4,59.906427108157864,
H,left,Lure,0,12,12,12,1696.7188438044395,1698.7193198744208,left,1,3,0.8437537794816308,E03T01,2021_Oct_19_0828,t1_Paradigm,2021.1.4,59.906427108157864,
Q,left,Distractor,0,13,13,13,1700.2189145412995,1702.220546460303,left,1,3,1.1184576873201877,E03T01,2021_Oct_19_0828,t1_Paradigm,2021.1.4,59.906427108157864,
V,left,Pretarget,0,14,14,14,1703.7189685963676,1705.7193147415528,left,1,3,1.4115647142170928,E03T01,2021_Oct_19_0828,t1_Paradigm,2021.1.4,59.906427108157864,
G,left,Distractor,0,15,15,15,1707.2189081252436,1709.2195269520162,left,1,3,1.0955341494991444,E03T01,2021_Oct_19_0828,t1_Paradigm,2021.1.4,59.906427108157864,
Z,left,Pretarget,0,16,16,16,1710.7189795036684,1712.735576829,left,1,3,1.003423597314395,E03T01,2021_Oct_19_0828,t1_Paradigm,2021.1.4,59.906427108157864,
V,right,Target,0,17,17,17,1714.2188782906742,1716.2196825409192,right,1,3,0.7993916955310851,E03T01,2021_Oct_19_0828,t1_Paradigm,2021.1.4,59.906427108157864,
N,left,Distractor,0,18,18,18,1717.718857278116,1719.719720555935,left,1,3,1.1551506821997464,E03T01,2021_Oct_19_0828,t1_Paradigm,2021.1.4,59.906427108157864,
Z,right,Target,0,19,19,19,1721.2188734786469,1723.2194384107133,right,1,3,0.5354994515655562,E03T01,2021_Oct_19_0828,t1_Paradigm,2021.1.4,59.906427108157864,
R,left,Distractor,0,20,20,20,1724.7188627317664,1726.7192881150404,left,1,3,0.6516958067077212,E03T01,2021_Oct_19_0828,t1_Paradigm,2021.1.4,59.906427108157864,
P,left,Distractor,0,21,21,21,1728.2188763658633,1730.2211457181256,None,0,3,,E03T01,2021_Oct_19_0828,t1_Paradigm,2021.1.4,59.906427108157864,
Z,right,Target,0,22,22,22,1731.7188851878745,1733.7188518245239,right,1,3,0.7559910548152402,E03T01,2021_Oct_19_0828,t1_Paradigm,2021.1.4,59.906427108157864,
D,left,Pretarget,0,23,23,23,1735.218823112722,1737.2191365361796,left,1,3,0.6959555547800846,E03T01,2021_Oct_19_0828,t1_Paradigm,2021.1.4,59.906427108157864,
K,left,Distractor,0,24,24,24,1738.7188482956844,1740.719325969636,left,1,3,1.051626962609589,E03T01,2021_Oct_19_0828,t1_Paradigm,2021.1.4,59.906427108157864,
W,left,Distractor,0,25,25,25,1742.2188731578062,1744.2191535386373,left,1,3,1.0237518482026644,E03T01,2021_Oct_19_0828,t1_Paradigm,2021.1.4,59.906427108157864,
D,right,Target,0,26,26,26,1745.7187045764877,1747.7206512020784,right,1,3,0.49818378034979105,E03T01,2021_Oct_19_0828,t1_Paradigm,2021.1.4,59.906427108157864,
G,left,Pretarget,0,27,27,27,1749.2187762756948,1751.218786220532,left,1,3,0.7921412528958172,E03T01,2021_Oct_19_0828,t1_Paradigm,2021.1.4,59.906427108157864,
V,left,Distractor,0,28,28,28,1752.718763924786,1754.7191864208435,left,1,3,1.0997523730038665,E03T01,2021_Oct_19_0828,t1_Paradigm,2021.1.4,59.906427108157864,
D,right,Target,0,29,29,29,1756.2187275137985,1758.218962340732,right,1,3,0.9600043500540778,E03T01,2021_Oct_19_0828,t1_Paradigm,2021.1.4,59.906427108157864,
G,right,Target,0,30,30,30,1759.718806591467,1761.7188418796286,right,1,3,0.900012158381287,E03T01,2021_Oct_19_0828,t1_Paradigm,2021.1.4,59.906427108157864,
B,left,Pretarget,0,31,31,31,1763.2189761352492,1765.2197941799532,left,1,3,1.0473936613998376,E03T01,2021_Oct_19_0828,t1_Paradigm,2021.1.4,59.906427108157864,
N,left,Distractor,0,32,32,32,1766.718930741772,1768.7195428317063,left,1,3,1.1955213494948111,E03T01,2021_Oct_19_0828,t1_Paradigm,2021.1.4,59.906427108157864,
F,left,Distractor,0,33,33,33,1770.2189206365147,1772.2193918944104,left,1,3,1.2636641538701952,E03T01,2021_Oct_19_0828,t1_Paradigm,2021.1.4,59.906427108157864,
B,right,Target,0,34,34,34,1773.7188338596025,1775.719326611259,right,1,3,0.9637638269341551,E03T01,2021_Oct_19_0828,t1_Paradigm,2021.1.4,59.906427108157864,
Q,left,Pretarget,0,35,35,35,1777.218871553836,1779.2194002352771,left,1,3,1.1276040689554065,E03T01,2021_Oct_19_0828,t1_Paradigm,2021.1.4,59.906427108157864,
S,left,Pretarget,0,36,36,36,1780.7187741904636,1782.719253789226,left,1,3,1.1798302894458175,E03T01,2021_Oct_19_0828,t1_Paradigm,2021.1.4,59.906427108157864,
W,left,Distractor,0,37,37,37,1784.2188234335626,1786.2191817692365,left,1,3,0.9597380845225416,E03T01,2021_Oct_19_0828,t1_Paradigm,2021.1.4,59.906427108157864,
Q,right,Target,0,38,38,38,1787.7187562255422,1789.719255714037,right,1,3,0.7076102860737592,E03T01,2021_Oct_19_0828,t1_Paradigm,2021.1.4,59.906427108157864,
S,right,Target,0,39,39,39,1791.218920957297,1793.2191994133173,right,1,3,0.5357031608000398,E03T01,2021_Oct_19_0828,t1_Paradigm,2021.1.4,59.906427108157864,
T,left,Distractor,0,40,40,40,1794.7187478847336,1796.719297097472,left,1,3,0.9075705707655288,E03T01,2021_Oct_19_0828,t1_Paradigm,2021.1.4,59.906427108157864,
G,left,Distractor,0,41,41,41,1798.2189312229748,1800.2192558744573,left,1,3,1.0236905750934966,E03T01,2021_Oct_19_0828,t1_Paradigm,2021.1.4,59.906427108157864,
D,left,Distractor,0,42,42,42,1801.7189066816354,1803.7193577290163,left,1,3,0.8835765171679668,E03T01,2021_Oct_19_0828,t1_Paradigm,2021.1.4,59.906427108157864,
S,left,Lure,0,43,43,43,1805.2189414886525,1807.2192796137533,left,1,3,1.3036466508638114,E03T01,2021_Oct_19_0828,t1_Paradigm,2021.1.4,59.906427108157864,
Z,left,Pretarget,0,44,44,44,1808.7189884861,1810.719251222792,left,1,3,0.9875753443338908,E03T01,2021_Oct_19_0828,t1_Paradigm,2021.1.4,59.906427108157864,
J,left,Distractor,0,45,45,45,1812.2189847968984,1814.2194830021472,left,1,3,1.3435255289077759,E03T01,2021_Oct_19_0828,t1_Paradigm,2021.1.4,59.906427108157864,
M,left,Pretarget,0,46,46,46,1815.7189795036684,1817.7192120850086,left,1,3,1.0597438910626806,E03T01,2021_Oct_19_0828,t1_Paradigm,2021.1.4,59.906427108157864,
Z,right,Target,0,47,47,47,1819.2188154134783,1821.2193848367897,right,1,3,0.6956520762760192,E03T01,2021_Oct_19_0828,t1_Paradigm,2021.1.4,59.906427108157864,
P,left,Distractor,0,48,48,48,1822.718834822008,1824.719481558539,left,1,3,0.6354568170499988,E03T01,2021_Oct_19_0828,t1_Paradigm,2021.1.4,59.906427108157864,
M,right,Target,0,49,49,49,1826.2188061102643,1828.2196661800263,left,0,3,1.1032930631190538,E03T01,2021_Oct_19_0828,t1_Paradigm,2021.1.4,59.906427108157864,
K,left,Distractor,0,50,50,50,1829.7188101202482,1831.7194555735914,left,1,3,1.0113547815126367,E03T01,2021_Oct_19_0828,t1_Paradigm,2021.1.4,59.906427108157864,
Y,left,Distractor,0,51,51,51,1833.2188308119657,1835.2192555536167,left,1,3,1.0160580574302003,E03T01,2021_Oct_19_0828,t1_Paradigm,2021.1.4,59.906427108157864,
X,left,Distractor,0,52,52,52,1836.718873639009,1838.719144075003,left,1,3,1.2757619124022312,E03T01,2021_Oct_19_0828,t1_Paradigm,2021.1.4,59.906427108157864,
F,left,Pretarget,0,53,53,53,1840.2189199948916,1842.2193575686542,left,1,3,1.1834630495868623,E03T01,2021_Oct_19_0828,t1_Paradigm,2021.1.4,59.906427108157864,
M,left,Lure,0,54,54,54,1843.7188162155217,1845.719226841873,None,0,3,,E03T01,2021_Oct_19_0828,t1_Paradigm,2021.1.4,59.906427108157864,
V,left,Distractor,0,55,55,55,1847.218740345852,1849.219173749152,left,1,3,1.0162091550882906,E03T01,2021_Oct_19_0828,t1_Paradigm,2021.1.4,59.906427108157864,
F,right,Target,0,56,56,56,1850.7187295990298,1852.7191373381647,right,1,3,1.4038074046839029,E03T01,2021_Oct_19_0828,t1_Paradigm,2021.1.4,59.906427108157864,
S,left,Distractor,0,57,57,57,1854.2188077142346,1856.219123062503,left,1,3,0.9917666205437854,E03T01,2021_Oct_19_0828,t1_Paradigm,2021.1.4,59.906427108157864,
D,left,Distractor,0,58,58,58,1857.7187937593553,1859.7190699697821,left,1,3,1.075727843272034,E03T01,2021_Oct_19_0828,t1_Paradigm,2021.1.4,59.906427108157864,
F,right,Target,0,59,59,59,1861.2188064310467,1863.21936013503,right,1,3,1.3675978581886739,E03T01,2021_Oct_19_0828,t1_Paradigm,2021.1.4,59.906427108157864,
V,left,Pretarget,0,60,60,60,1864.7188919247128,1866.7193866011803,left,1,3,0.651523215288762,E03T01,2021_Oct_19_0828,t1_Paradigm,2021.1.4,59.906427108157864,
J,left,Distractor,0,61,61,61,1868.2188266415615,1870.2195041750674,left,1,3,1.1034637296688743,E03T01,2021_Oct_19_0828,t1_Paradigm,2021.1.4,59.906427108157864,
V,left,Lure,0,62,62,62,1871.7188540701172,1873.7194180397782,None,0,3,,E03T01,2021_Oct_19_0828,t1_Paradigm,2021.1.4,59.906427108157864,
V,right,Target,0,63,63,63,1875.218944375869,1877.2188699498074,left,0,3,1.2399184008245356,E03T01,2021_Oct_19_0828,t1_Paradigm,2021.1.4,59.906427108157864,
R,left,Distractor,0,0,0,0,2008.612853760249,2010.6018030988635,left,1,4,1.1048765410087071,E03T01,2021_Oct_19_0828,t1_Paradigm,2021.1.4,59.906427108157864,
F,left,Distractor,0,1,1,1,2012.1018642116105,2014.1017894648248,left,1,4,0.5333545704488643,E03T01,2021_Oct_19_0828,t1_Paradigm,2021.1.4,59.906427108157864,
P,left,Pretarget,0,2,2,2,2015.6018483319203,2017.6019022266264,left,1,4,0.6009452747530304,E03T01,2021_Oct_19_0828,t1_Paradigm,2021.1.4,59.906427108157864,
H,left,Distractor,0,3,3,3,2019.1018234697985,2021.1018667780445,left,1,4,0.6529700316605158,E03T01,2021_Oct_19_0828,t1_Paradigm,2021.1.4,59.906427108157864,
Z,left,Distractor,0,4,4,4,2022.6019047930604,2024.6017498457804,left,1,4,0.9930434118723497,E03T01,2021_Oct_19_0828,t1_Paradigm,2021.1.4,59.906427108157864,
T,left,Distractor,0,5,5,5,2026.1018667780445,2028.1017320412793,left,1,4,0.9169136038981378,E03T01,2021_Oct_19_0828,t1_Paradigm,2021.1.4,59.906427108157864,
P,right,Target,0,6,6,6,2029.6018409535172,2031.6024430985563,right,1,4,0.6486260537640192,E03T01,2021_Oct_19_0828,t1_Paradigm,2021.1.4,59.906427108157864,
G,left,Distractor,0,7,7,7,2033.1019893243792,2035.1025401411462,left,1,4,0.7644425795297138,E03T01,2021_Oct_19_0828,t1_Paradigm,2021.1.4,59.906427108157864,
L,left,Distractor,0,8,8,8,2036.6020048832288,2038.6024491938297,left,1,4,1.3923271896201186,E03T01,2021_Oct_19_0828,t1_Paradigm,2021.1.4,59.906427108157864,
P,left,Lure,0,9,9,9,2040.1020021564327,2042.1027316598338,left,1,4,1.140076524054166,E03T01,2021_Oct_19_0828,t1_Paradigm,2021.1.4,59.906427108157864,
Q,left,Pretarget,0,10,10,10,2043.6019750486594,2045.6025473591872,left,1,4,1.2882587485364638,E03T01,2021_Oct_19_0828,t1_Paradigm,2021.1.4,59.906427108157864,
D,left,Distractor,0,11,11,11,2047.1019171439111,2049.101813204121,left,1,4,1.1490005899686366,E03T01,2021_Oct_19_0828,t1_Paradigm,2021.1.4,59.906427108157864,
M,left,Pretarget,0,12,12,12,2050.601869184058,2052.6018576351926,left,1,4,0.9769802216324024,E03T01,2021_Oct_19_0828,t1_Paradigm,2021.1.4,59.906427108157864,
C,left,Distractor,0,13,13,13,2054.101934146427,2056.1019412040478,left,1,4,1.0769247549469583,E03T01,2021_Oct_19_0828,t1_Paradigm,2021.1.4,59.906427108157864,
Q,right,Target,0,14,14,14,2057.6018929234124,2059.601823630219,right,1,4,0.5850203500594944,E03T01,2021_Oct_19_0828,t1_Paradigm,2021.1.4,59.906427108157864,
R,left,Distractor,0,15,15,15,2061.1018844221253,2063.1035080003203,left,1,4,1.0031640686211176,E03T01,2021_Oct_19_0828,t1_Paradigm,2021.1.4,59.906427108157864,
M,right,Target,0,16,16,16,2064.6018634096254,2066.6018194597564,right,1,4,0.8334117694175802,E03T01,2021_Oct_19_0828,t1_Paradigm,2021.1.4,59.906427108157864,
S,left,Distractor,0,17,17,17,2068.1019193895627,2070.1018440010957,left,1,4,1.0929539402131923,E03T01,2021_Oct_19_0828,t1_Paradigm,2021.1.4,59.906427108157864,
Z,left,Distractor,0,18,18,18,2071.6018852241687,2073.6018852241687,left,1,4,1.3207845273427665,E03T01,2021_Oct_19_0828,t1_Paradigm,2021.1.4,59.906427108157864,
L,left,Pretarget,0,19,19,19,2075.10184143472,2077.1021057754406,None,0,4,,E03T01,2021_Oct_19_0828,t1_Paradigm,2021.1.4,59.906427108157864,
M,right,Target,0,20,20,20,2078.601863730408,2080.602372522175,right,1,4,0.6563984410022385,E03T01,2021_Oct_19_0828,t1_Paradigm,2021.1.4,59.906427108157864,
P,left,Distractor,0,21,21,21,2082.1020021564327,2084.1024727727636,left,1,4,1.2683327831327915,E03T01,2021_Oct_19_0828,t1_Paradigm,2021.1.4,59.906427108157864,
F,left,Distractor,0,22,22,22,2085.6019461764954,2087.602406847989,left,1,4,1.1124606175580993,E03T01,2021_Oct_19_0828,t1_Paradigm,2021.1.4,59.906427108157864,
L,right,Target,0,23,23,23,2089.1021522916853,2091.102624191204,left,0,4,1.132615314621944,E03T01,2021_Oct_19_0828,t1_Paradigm,2021.1.4,59.906427108157864,
L,left,Lure,0,24,24,24,2092.601942006091,2094.6021142766695,right,0,4,0.8327967922668904,E03T01,2021_Oct_19_0828,t1_Paradigm,2021.1.4,59.906427108157864,
V,left,Pretarget,0,25,25,25,2096.10188345972,2098.1029735444463,left,1,4,0.8677035624277778,E03T01,2021_Oct_19_0828,t1_Paradigm,2021.1.4,59.906427108157864,
Z,left,Distractor,0,26,26,26,2099.6017065375345,2101.6018281214056,left,1,4,1.065111547592096,E03T01,2021_Oct_19_0828,t1_Paradigm,2021.1.4,59.906427108157864,
H,left,Distractor,0,27,27,27,2103.101824432204,2105.101809354499,left,1,4,1.4208172812359408,E03T01,2021_Oct_19_0828,t1_Paradigm,2021.1.4,59.906427108157864,
X,left,Distractor,0,28,28,28,2106.6019115298986,2108.6018239510013,left,1,4,1.0409083312260918,E03T01,2021_Oct_19_0828,t1_Paradigm,2021.1.4,59.906427108157864,
V,right,Target,0,29,29,29,2110.101812562556,2112.1017564221984,left,0,4,1.157015503384173,E03T01,2021_Oct_19_0828,t1_Paradigm,2021.1.4,59.906427108157864,
C,left,Distractor,0,30,30,30,2113.601926286763,2115.602383750258,left,1,4,1.240325819235295,E03T01,2021_Oct_19_0828,t1_Paradigm,2021.1.4,59.906427108157864,
S,left,Pretarget,0,31,31,31,2117.1019546777825,2119.102464752679,left,1,4,1.4042199558462016,E03T01,2021_Oct_19_0828,t1_Paradigm,2021.1.4,59.906427108157864,
D,left,Distractor,0,32,32,32,2120.601986597525,2122.6023205522797,left,1,4,1.424399675510358,E03T01,2021_Oct_19_0828,t1_Paradigm,2021.1.4,59.906427108157864,
V,left,Distractor,0,33,33,33,2124.1020794696524,2126.1023665873217,None,0,4,,E03T01,2021_Oct_19_0828,t1_Paradigm,2021.1.4,59.906427108157864,
R,left,Distractor,0,34,34,34,2127.602230086166,2129.6023394795484,left,1,4,1.064604680694174,E03T01,2021_Oct_19_0828,t1_Paradigm,2021.1.4,59.906427108157864,
S,right,Target,0,35,35,35,2131.1021352891694,2133.1029979253653,left,0,4,0.6676104657235555,E03T01,2021_Oct_19_0828,t1_Paradigm,2021.1.4,59.906427108157864,
Y,left,Distractor,0,36,36,36,2134.601960933418,2136.601646547555,left,1,4,0.8652811876381747,E03T01,2021_Oct_19_0828,t1_Paradigm,2021.1.4,59.906427108157864,
N,left,Pretarget,0,37,37,37,2138.1018122417154,2140.1020538055454,left,1,4,1.0127679136930965,E03T01,2021_Oct_19_0828,t1_Paradigm,2021.1.4,59.906427108157864,
Z,left,Pretarget,0,38,38,38,2141.601733164105,2143.6016940262634,left,1,4,1.1930781226838008,E03T01,2021_Oct_19_0828,t1_Paradigm,2021.1.4,59.906427108157864,
P,left,Pretarget,0,39,39,39,2145.1016528031905,2147.102337715158,left,1,4,1.1805613968754187,E03T01,2021_Oct_19_0828,t1_Paradigm,2021.1.4,59.906427108157864,
M,left,Distractor,0,40,40,40,2148.6020642315852,2150.6024536850164,left,1,4,1.424272958713118,E03T01,2021_Oct_19_0828,t1_Paradigm,2021.1.4,59.906427108157864,
N,right,Target,0,41,41,41,2152.1021824470954,2154.1021988079883,None,0,4,,E03T01,2021_Oct_19_0828,t1_Paradigm,2021.1.4,59.906427108157864,
Z,right,Target,0,42,42,42,2155.60206326918,2157.602343650011,right,1,4,1.1125295899691992,E03T01,2021_Oct_19_0828,t1_Paradigm,2021.1.4,59.906427108157864,
P,right,Target,0,43,43,43,2159.1020406526513,2161.1023422064027,right,1,4,1.2443217270774767,E03T01,2021_Oct_19_0828,t1_Paradigm,2021.1.4,59.906427108157864,
X,left,Pretarget,0,44,44,44,2162.601810798107,2164.6022612039233,left,1,4,0.73651164554758,E03T01,2021_Oct_19_0828,t1_Paradigm,2021.1.4,59.906427108157864,
Z,left,Lure,0,45,45,45,2166.1019389584544,2168.1026126423385,None,0,4,,E03T01,2021_Oct_19_0828,t1_Paradigm,2021.1.4,59.906427108157864,
R,left,Pretarget,0,46,46,46,2169.601952271769,2171.6022756400052,left,1,4,1.416405934956856,E03T01,2021_Oct_19_0828,t1_Paradigm,2021.1.4,59.906427108157864,
K,left,Distractor,0,47,47,47,2173.1020595799782,2175.1024175948114,left,1,4,1.1804856875678524,E03T01,2021_Oct_19_0828,t1_Paradigm,2021.1.4,59.906427108157864,
X,right,Target,0,48,48,48,2176.602044983476,2178.602348462038,left,0,4,1.0562862887163647,E03T01,2021_Oct_19_0828,t1_Paradigm,2021.1.4,59.906427108157864,
B,left,Distractor,0,49,49,49,2180.101836301852,2182.1018189785536,left,1,4,0.4689141402486712,E03T01,2021_Oct_19_0828,t1_Paradigm,2021.1.4,59.906427108157864,
R,right,Target,0,50,50,50,2183.6018213845673,2185.602253183897,left,0,4,0.5365029198001139,E03T01,2021_Oct_19_0828,t1_Paradigm,2021.1.4,59.906427108157864,
Y,left,Pretarget,0,51,51,51,2187.10190463264,2189.1022421162343,left,1,4,0.9244229336036369,E03T01,2021_Oct_19_0828,t1_Paradigm,2021.1.4,59.906427108157864,
W,left,Pretarget,0,52,52,52,2190.6019083219,2192.6022887928993,left,1,4,1.0883430552203208,E03T01,2021_Oct_19_0828,t1_Paradigm,2021.1.4,59.906427108157864,
Z,left,Distractor,0,53,53,53,2194.1019626978086,2196.1020900561125,left,1,4,1.4606762695475481,E03T01,2021_Oct_19_0828,t1_Paradigm,2021.1.4,59.906427108157864,
Q,left,Distractor,0,54,54,54,2197.601908001059,2199.6022907177103,left,1,4,1.2883312497287989,E03T01,2021_Oct_19_0828,t1_Paradigm,2021.1.4,59.906427108157864,
Y,right,Target,0,55,55,55,2201.1019967027823,2203.1022507778835,right,1,4,1.4525109000387602,E03T01,2021_Oct_19_0828,t1_Paradigm,2021.1.4,59.906427108157864,
W,right,Target,0,56,56,56,2204.6018557103816,2206.6023362715496,left,0,4,1.0242917577270418,E03T01,2021_Oct_19_0828,t1_Paradigm,2021.1.4,59.906427108157864,
H,left,Pretarget,0,57,57,57,2208.1019158607232,2210.102437805326,left,1,4,1.1082157674827613,E03T01,2021_Oct_19_0828,t1_Paradigm,2021.1.4,59.906427108157864,
M,left,Distractor,0,58,58,58,2211.6018909986014,2213.603532862442,left,1,4,1.015064534090925,E03T01,2021_Oct_19_0828,t1_Paradigm,2021.1.4,59.906427108157864,
R,left,Pretarget,0,59,59,59,2215.1017881815787,2217.102191429527,left,1,4,1.052490882051643,E03T01,2021_Oct_19_0828,t1_Paradigm,2021.1.4,59.906427108157864,
J,left,Distractor,0,60,60,60,2218.6018890737905,2220.601895810629,left,1,4,0.8649915035930462,E03T01,2021_Oct_19_0828,t1_Paradigm,2021.1.4,59.906427108157864,
H,right,Target,0,61,61,61,2222.101832773071,2224.101897895802,right,1,4,0.5650007106014527,E03T01,2021_Oct_19_0828,t1_Paradigm,2021.1.4,59.906427108157864,
Z,left,Distractor,0,62,62,62,2225.601860522409,2227.6018136853236,left,1,4,0.7130029651452787,E03T01,2021_Oct_19_0828,t1_Paradigm,2021.1.4,59.906427108157864,
R,right,Target,0,63,63,63,2229.101762196631,2231.1023807026213,left,0,4,0.9882281760801561,E03T01,2021_Oct_19_0828,t1_Paradigm,2021.1.4,59.906427108157864,
J,left,Pretarget,0,0,0,0,2264.962377000542,2266.9516580483178,left,1,4,0.49907208065269515,E03T01,2021_Oct_19_0828,t1_Paradigm,2021.1.4,59.906427108157864,
G,left,Pretarget,0,1,1,1,2268.4516829104396,2270.451586028328,left,1,4,0.45495284377830103,E03T01,2021_Oct_19_0828,t1_Paradigm,2021.1.4,59.906427108157864,
Z,left,Distractor,0,2,2,2,2271.9517116222414,2273.9519015369006,left,1,4,0.5546554924803786,E03T01,2021_Oct_19_0828,t1_Paradigm,2021.1.4,59.906427108157864,
F,left,Distractor,0,3,3,3,2275.451756053313,2277.4517332763644,left,1,4,0.5589369139634073,E03T01,2021_Oct_19_0828,t1_Paradigm,2021.1.4,59.906427108157864,
J,right,Target,0,4,4,4,2278.9517222087015,2280.9522836119286,right,1,4,0.7063235498499125,E03T01,2021_Oct_19_0828,t1_Paradigm,2021.1.4,59.906427108157864,
G,right,Target,0,5,5,5,2282.4519170958083,2284.4522420680732,right,1,4,0.5828507671249099,E03T01,2021_Oct_19_0828,t1_Paradigm,2021.1.4,59.906427108157864,
H,left,Distractor,0,6,6,6,2285.951746268838,2287.952041727316,left,1,4,0.683131500845775,E03T01,2021_Oct_19_0828,t1_Paradigm,2021.1.4,59.906427108157864,
P,left,Distractor,0,7,7,7,2289.451835932967,2291.4521560932044,left,1,4,1.1184448552667163,E03T01,2021_Oct_19_0828,t1_Paradigm,2021.1.4,59.906427108157864,
G,left,Lure,0,8,8,8,2292.951740815188,2294.951795351517,left,1,4,1.2028933760593645,E03T01,2021_Oct_19_0828,t1_Paradigm,2021.1.4,59.906427108157864,
S,left,Distractor,0,9,9,9,2296.4518109104247,2298.4520406045485,left,1,4,0.6786072323448025,E03T01,2021_Oct_19_0828,t1_Paradigm,2021.1.4,59.906427108157864,
R,left,Pretarget,0,10,10,10,2299.9520250456408,2301.952379852475,left,1,4,0.9863174802158028,E03T01,2021_Oct_19_0828,t1_Paradigm,2021.1.4,59.906427108157864,
T,left,Pretarget,0,11,11,11,2303.451853256265,2305.45218336134,left,1,4,0.7185659901006147,E03T01,2021_Oct_19_0828,t1_Paradigm,2021.1.4,59.906427108157864,
X,left,Distractor,0,12,12,12,2306.9518739479827,2308.9523018976324,left,1,4,0.9624649002798833,E03T01,2021_Oct_19_0828,t1_Paradigm,2021.1.4,59.906427108157864,
F,left,Pretarget,0,13,13,13,2310.4517939079087,2312.452260353777,left,1,4,1.3184006487717852,E03T01,2021_Oct_19_0828,t1_Paradigm,2021.1.4,59.906427108157864,
R,right,Target,0,14,14,14,2313.9518450758187,2315.9523201833363,left,0,4,1.1305564083741046,E03T01,2021_Oct_19_0828,t1_Paradigm,2021.1.4,59.906427108157864,
T,right,Target,0,15,15,15,2317.4519283238915,2319.452631842345,right,1,4,1.0859347957302816,E03T01,2021_Oct_19_0828,t1_Paradigm,2021.1.4,59.906427108157864,
C,left,Distractor,0,16,16,16,2320.9519557524472,2322.952342960285,left,1,4,0.6742712745326571,E03T01,2021_Oct_19_0828,t1_Paradigm,2021.1.4,59.906427108157864,
F,right,Target,0,17,17,17,2324.451848444238,2326.4521843237453,right,1,4,1.3184551851009019,E03T01,2021_Oct_19_0828,t1_Paradigm,2021.1.4,59.906427108157864,
M,left,Distractor,0,18,18,18,2327.951814278844,2329.9537448643823,left,1,4,1.0009476486593485,E03T01,2021_Oct_19_0828,t1_Paradigm,2021.1.4,59.906427108157864,
N,left,Distractor,0,19,19,19,2331.4518378577777,2333.452040283708,left,1,4,0.9266512232716195,E03T01,2021_Oct_19_0828,t1_Paradigm,2021.1.4,59.906427108157864,
R,left,Lure,0,20,20,20,2334.9517738578143,2336.952191221004,left,1,4,1.0585123327327892,E03T01,2021_Oct_19_0828,t1_Paradigm,2021.1.4,59.906427108157864,
F,right,Target,0,21,21,21,2338.4518227800727,2340.4520983488765,right,1,4,0.646693543472793,E03T01,2021_Oct_19_0828,t1_Paradigm,2021.1.4,59.906427108157864,
P,left,Distractor,0,22,22,22,2341.9518168452196,2343.9520805443753,left,1,4,0.762829267012421,E03T01,2021_Oct_19_0828,t1_Paradigm,2021.1.4,59.906427108157864,
L,left,Pretarget,0,23,23,23,2345.4517589405295,2347.452674508968,left,1,4,0.9899325963342562,E03T01,2021_Oct_19_0828,t1_Paradigm,2021.1.4,59.906427108157864,
T,left,Distractor,0,24,24,24,2348.951853737468,2350.952739471337,left,1,4,1.0578963931766339,E03T01,2021_Oct_19_0828,t1_Paradigm,2021.1.4,59.906427108157864,
F,left,Distractor,0,25,25,25,2352.4516665495466,2354.4516505094944,left,1,4,1.3030063303885981,E03T01,2021_Oct_19_0828,t1_Paradigm,2021.1.4,59.906427108157864,
V,left,Distractor,0,26,26,26,2355.951649065886,2357.951540634851,left,1,4,0.9070909720030613,E03T01,2021_Oct_19_0828,t1_Paradigm,2021.1.4,59.906427108157864,
L,right,Target,0,27,27,27,2359.451604955597,2361.451681948034,left,0,4,1.086948208801914,E03T01,2021_Oct_19_0828,t1_Paradigm,2021.1.4,59.906427108157864,
S,left,Pretarget,0,28,28,28,2362.9516343089635,2364.952093376429,left,1,4,0.9785229577100836,E03T01,2021_Oct_19_0828,t1_Paradigm,2021.1.4,59.906427108157864,
W,left,Distractor,0,29,29,29,2366.451905867725,2368.452239180857,left,1,4,1.0465303836390376,E03T01,2021_Oct_19_0828,t1_Paradigm,2021.1.4,59.906427108157864,
Q,left,Distractor,0,30,30,30,2369.9519438827992,2371.9521652360563,left,1,4,1.2744771009893157,E03T01,2021_Oct_19_0828,t1_Paradigm,2021.1.4,59.906427108157864,
L,right,Target,0,31,31,31,2373.451796153502,2375.452110539307,left,0,4,0.9106428900850005,E03T01,2021_Oct_19_0828,t1_Paradigm,2021.1.4,59.906427108157864,
S,right,Target,0,32,32,32,2376.9518941584975,2378.952181276167,left,0,4,1.1705478878575377,E03T01,2021_Oct_19_0828,t1_Paradigm,2021.1.4,59.906427108157864,
Z,left,Pretarget,0,33,33,33,2380.451763752557,2382.452128183446,None,0,4,,E03T01,2021_Oct_19_0828,t1_Paradigm,2021.1.4,59.906427108157864,
F,left,Distractor,0,34,34,34,2383.951872985577,2385.9522893863614,left,1,4,1.2264139261096716,E03T01,2021_Oct_19_0828,t1_Paradigm,2021.1.4,59.906427108157864,
V,left,Distractor,0,35,35,35,2387.451782359043,2389.451859672263,left,1,4,1.1186033313861117,E03T01,2021_Oct_19_0828,t1_Paradigm,2021.1.4,59.906427108157864,
M,left,Distractor,0,36,36,36,2390.951496043417,2392.951648424263,left,1,4,1.1708391759893857,E03T01,2021_Oct_19_0828,t1_Paradigm,2021.1.4,59.906427108157864,
Z,right,Target,0,37,37,37,2394.4514798428863,2396.4516434518155,left,0,4,1.047132207895629,E03T01,2021_Oct_19_0828,t1_Paradigm,2021.1.4,59.906427108157864,
H,left,Pretarget,0,38,38,38,2397.9517603841377,2399.9521318726474,left,1,4,1.1465939344489016,E03T01,2021_Oct_19_0828,t1_Paradigm,2021.1.4,59.906427108157864,
L,left,Distractor,0,39,39,39,2401.4518615970737,2403.452538489015,left,1,4,0.9900419897749089,E03T01,2021_Oct_19_0828,t1_Paradigm,2021.1.4,59.906427108157864,
G,left,Distractor,0,40,40,40,2404.951762629731,2406.952929386054,left,1,4,0.6098006890388206,E03T01,2021_Oct_19_0828,t1_Paradigm,2021.1.4,59.906427108157864,
K,left,Distractor,0,41,41,41,2408.451736163581,2410.452232764859,left,1,4,0.9503434023354203,E03T01,2021_Oct_19_0828,t1_Paradigm,2021.1.4,59.906427108157864,
H,right,Target,0,42,42,42,2411.9519342587446,2413.9526996919303,right,1,4,0.7140770097612403,E03T01,2021_Oct_19_0828,t1_Paradigm,2021.1.4,59.906427108157864,
B,left,Distractor,0,43,43,43,2415.4515921235434,2417.4515119231073,left,1,4,0.6389676724793389,E03T01,2021_Oct_19_0828,t1_Paradigm,2021.1.4,59.906427108157864,
Z,left,Distractor,0,44,44,44,2418.9516596523463,2420.951490910549,left,1,4,0.6910379832261242,E03T01,2021_Oct_19_0828,t1_Paradigm,2021.1.4,59.906427108157864,
T,left,Pretarget,0,45,45,45,2422.4516184292734,2424.451471181237,None,0,4,,E03T01,2021_Oct_19_0828,t1_Paradigm,2021.1.4,59.906427108157864,
H,right,Target,0,46,46,46,2425.95163206337,2427.9516073616105,right,1,4,0.6030606421409175,E03T01,2021_Oct_19_0828,t1_Paradigm,2021.1.4,59.906427108157864,
F,left,Distractor,0,47,47,47,2429.451427231368,2431.452168283693,left,1,4,0.6543440259993076,E03T01,2021_Oct_19_0828,t1_Paradigm,2021.1.4,59.906427108157864,
R,left,Distractor,0,48,48,48,2432.951794068329,2434.9522069402738,left,1,4,0.578368523682002,E03T01,2021_Oct_19_0828,t1_Paradigm,2021.1.4,59.906427108157864,
T,right,Target,0,49,49,49,2436.4518442737754,2438.4521259377943,left,0,4,1.0944264206918888,E03T01,2021_Oct_19_0828,t1_Paradigm,2021.1.4,59.906427108157864,
H,right,Target,0,50,50,50,2439.951962168503,2441.95249341632,left,0,4,1.05008807615377,E03T01,2021_Oct_19_0828,t1_Paradigm,2021.1.4,59.906427108157864,
Y,left,Pretarget,0,51,51,51,2443.451728464337,2445.452138128283,left,1,4,0.6543651989195496,E03T01,2021_Oct_19_0828,t1_Paradigm,2021.1.4,59.906427108157864,
H,left,Distractor,0,52,52,52,2446.9519008953357,2448.953109355876,None,0,4,,E03T01,2021_Oct_19_0828,t1_Paradigm,2021.1.4,59.906427108157864,
S,left,Distractor,0,53,53,53,2450.4512854369823,2452.4515613265685,left,1,4,0.7909549276810139,E03T01,2021_Oct_19_0828,t1_Paradigm,2021.1.4,59.906427108157864,
Q,left,Distractor,0,54,54,54,2453.9515358228236,2455.9516327049932,left,1,4,0.8749671579571441,E03T01,2021_Oct_19_0828,t1_Paradigm,2021.1.4,59.906427108157864,
Y,right,Target,0,55,55,55,2457.451597256353,2459.4514833717258,None,0,4,,E03T01,2021_Oct_19_0828,t1_Paradigm,2021.1.4,59.906427108157864,
R,left,Distractor,0,56,56,56,2460.951557637367,2462.9513741387054,left,1,4,0.787265385617502,E03T01,2021_Oct_19_0828,t1_Paradigm,2021.1.4,59.906427108157864,
H,left,Pretarget,0,57,57,57,2464.4517412963905,2466.452591100533,right,0,4,0.5499502917518839,E03T01,2021_Oct_19_0828,t1_Paradigm,2021.1.4,59.906427108157864,
J,left,Distractor,0,58,58,58,2467.9517308703507,2469.9522374164662,left,1,4,0.7624654777464457,E03T01,2021_Oct_19_0828,t1_Paradigm,2021.1.4,59.906427108157864,
V,left,Distractor,0,59,59,59,2471.4520781383617,2473.4522038926953,left,1,4,0.8145810215501115,E03T01,2021_Oct_19_0828,t1_Paradigm,2021.1.4,59.906427108157864,
Y,left,Lure,0,60,60,60,2474.9518258277094,2476.95252357173,left,1,4,1.3461663697380573,E03T01,2021_Oct_19_0828,t1_Paradigm,2021.1.4,59.906427108157864,
H,right,Target,0,61,61,61,2478.4517602237174,2480.452155772422,right,1,4,0.9024640469579026,E03T01,2021_Oct_19_0828,t1_Paradigm,2021.1.4,59.906427108157864,
L,left,Distractor,0,62,62,62,2481.951867531927,2483.952149195946,left,1,4,0.7784090088680387,E03T01,2021_Oct_19_0828,t1_Paradigm,2021.1.4,59.906427108157864,
P,left,Distractor,0,63,63,63,2485.451800003124,2487.452119200956,left,1,4,1.1985971976537257,E03T01,2021_Oct_19_0828,t1_Paradigm,2021.1.4,59.906427108157864,
