Letter,CorrAnswer,Stimulus,finaln_nback_run.thisRepN,finaln_nback_run.thisTrialN,finaln_nback_run.thisN,finaln_nback_run.thisIndex,finaln_fixcross.started,finaln_nback_trial.started,finaln_trial_resp.keys,finaln_trial_resp.corr,finaln_trial_resp.rt,finaln_level,finaln_money,Participant,date,expName,psychopyVersion,frameRate,
T,left,Distractor,0,0,0,0,2788.6439051337657,2790.634777358675,left,1,0.6875239197397605,0,2.91,E03T01,2021_Oct_19_0828,t1_Paradigm,2021.1.4,59.906427108157864,
F,left,Distractor,0,1,1,1,2792.1348057496944,2794.1347646870418,left,1,0.8516352393198758,0,2.91,E03T01,2021_Oct_19_0828,t1_Paradigm,2021.1.4,59.906427108157864,
G,left,Distractor,0,2,2,2,2795.6347725466476,2797.6347712634597,left,1,0.7916090426151641,0,2.91,E03T01,2021_Oct_19_0828,t1_Paradigm,2021.1.4,59.906427108157864,
V,left,Distractor,0,3,3,3,2799.1347095090896,2801.134677749709,left,1,0.7158231342327781,0,2.91,E03T01,2021_Oct_19_0828,t1_Paradigm,2021.1.4,59.906427108157864,
H,left,Distractor,0,4,4,4,2802.6348104013014,2804.634965027799,left,1,0.9275481852237135,0,2.91,E03T01,2021_Oct_19_0828,t1_Paradigm,2021.1.4,59.906427108157864,
C,left,Pretarget,0,5,5,5,2806.134787784773,2808.134554241027,left,1,0.5799475103849545,0,2.91,E03T01,2021_Oct_19_0828,t1_Paradigm,2021.1.4,59.906427108157864,
C,right,Target,0,6,6,6,2809.634769980272,2811.6347212183755,right,1,0.6638041517580859,0,2.91,E03T01,2021_Oct_19_0828,t1_Paradigm,2021.1.4,59.906427108157864,
C,right,Target,0,7,7,7,2813.1345151031855,2815.1348343010177,right,1,0.6036172333406284,0,2.91,E03T01,2021_Oct_19_0828,t1_Paradigm,2021.1.4,59.906427108157864,
W,left,Distractor,0,8,8,8,2816.6348675040063,2818.6353791829897,left,1,0.6070186953875236,0,2.91,E03T01,2021_Oct_19_0828,t1_Paradigm,2021.1.4,59.906427108157864,
R,left,Pretarget,0,9,9,9,2820.1348038248834,2822.135578882124,left,1,0.7867395913926885,0,2.91,E03T01,2021_Oct_19_0828,t1_Paradigm,2021.1.4,59.906427108157864,
R,right,Target,0,10,10,10,2823.6349037546315,2825.6349358347943,right,1,0.7276453240192495,0,2.91,E03T01,2021_Oct_19_0828,t1_Paradigm,2021.1.4,59.906427108157864,
Z,left,Distractor,0,11,11,11,2827.134984115488,2829.1353562456206,left,1,0.65106799750356,0,2.91,E03T01,2021_Oct_19_0828,t1_Paradigm,2021.1.4,59.906427108157864,
R,left,Lure,0,12,12,12,2830.6350060903933,2832.635932886973,left,1,0.9584782957099378,0,2.91,E03T01,2021_Oct_19_0828,t1_Paradigm,2021.1.4,59.906427108157864,
H,left,Pretarget,0,13,13,13,2834.1347127171466,2836.1344875142095,left,1,0.6439522916334681,0,2.91,E03T01,2021_Oct_19_0828,t1_Paradigm,2021.1.4,59.906427108157864,
H,right,Target,0,14,14,14,2837.6348466519266,2839.634915303497,right,1,0.6156909317942336,0,2.91,E03T01,2021_Oct_19_0828,t1_Paradigm,2021.1.4,59.906427108157864,
K,left,Distractor,0,15,15,15,2841.1349462608923,2843.13520482718,left,1,0.8752209121594205,0,2.91,E03T01,2021_Oct_19_0828,t1_Paradigm,2021.1.4,59.906427108157864,
J,left,Distractor,0,16,16,16,2844.6348296494107,2846.6351058597793,left,1,0.7997185926069506,0,2.91,E03T01,2021_Oct_19_0828,t1_Paradigm,2021.1.4,59.906427108157864,
H,left,Lure,0,17,17,17,2848.1350672031986,2850.1359741099877,left,1,0.7862830903031863,0,2.91,E03T01,2021_Oct_19_0828,t1_Paradigm,2021.1.4,59.906427108157864,
S,left,Distractor,0,18,18,18,2851.634691383806,2853.634542210959,left,1,0.7279905067989603,0,2.91,E03T01,2021_Oct_19_0828,t1_Paradigm,2021.1.4,59.906427108157864,
T,left,Pretarget,0,19,19,19,2855.1347223412013,2857.1346953938482,left,1,0.6835886435001157,0,2.91,E03T01,2021_Oct_19_0828,t1_Paradigm,2021.1.4,59.906427108157864,
T,right,Target,0,20,20,20,2858.6346301106387,2860.634740787267,right,1,0.5755830012494698,0,2.91,E03T01,2021_Oct_19_0828,t1_Paradigm,2021.1.4,59.906427108157864,
X,left,Pretarget,0,21,21,21,2862.1346267422196,2864.135156065284,left,1,0.6274059737916104,0,2.91,E03T01,2021_Oct_19_0828,t1_Paradigm,2021.1.4,59.906427108157864,
X,right,Target,0,22,22,22,2865.6349390428513,2867.6349130579038,right,1,0.6476411920739338,0,2.91,E03T01,2021_Oct_19_0828,t1_Paradigm,2021.1.4,59.906427108157864,
W,left,Distractor,0,23,23,23,2869.1348346218583,2871.1350893385243,left,1,0.6832392902579159,0,2.91,E03T01,2021_Oct_19_0828,t1_Paradigm,2021.1.4,59.906427108157864,
K,left,Distractor,0,24,24,24,2872.634820025356,2874.6352184612188,left,1,0.8950653938227333,0,2.91,E03T01,2021_Oct_19_0828,t1_Paradigm,2021.1.4,59.906427108157864,
F,left,Pretarget,0,25,25,25,2876.134780085529,2878.1360318543157,left,1,0.7063110385788605,0,2.91,E03T01,2021_Oct_19_0828,t1_Paradigm,2021.1.4,59.906427108157864,
F,right,Target,0,26,26,26,2879.6347125567263,2881.6349550829036,right,1,0.5674455414409749,0,2.91,E03T01,2021_Oct_19_0828,t1_Paradigm,2021.1.4,59.906427108157864,
Z,left,Distractor,0,27,27,27,2883.134692506632,2885.134651123197,left,1,0.6517006187350489,0,2.91,E03T01,2021_Oct_19_0828,t1_Paradigm,2021.1.4,59.906427108157864,
F,left,Lure,0,28,28,28,2886.6346358850715,2888.6345624214737,left,1,0.655672466440592,0,2.91,E03T01,2021_Oct_19_0828,t1_Paradigm,2021.1.4,59.906427108157864,
P,left,Distractor,0,29,29,29,2890.134624496626,2892.134505479131,left,1,0.6759015895659104,0,2.91,E03T01,2021_Oct_19_0828,t1_Paradigm,2021.1.4,59.906427108157864,
F,left,Lure,0,30,30,30,2893.6346747021307,2895.634607975313,left,1,1.3677184797124937,0,2.91,E03T01,2021_Oct_19_0828,t1_Paradigm,2021.1.4,59.906427108157864,
R,left,Distractor,0,31,31,31,2897.1349780202727,2899.134573168296,left,1,0.6678356686024927,0,2.91,E03T01,2021_Oct_19_0828,t1_Paradigm,2021.1.4,59.906427108157864,
V,left,Distractor,0,32,32,32,2900.6347199351876,2902.6344822209794,left,1,0.6397462585591711,0,2.91,E03T01,2021_Oct_19_0828,t1_Paradigm,2021.1.4,59.906427108157864,
M,left,Pretarget,0,33,33,33,2904.1346495191683,2906.134609418921,left,1,0.7876381573150866,0,2.91,E03T01,2021_Oct_19_0828,t1_Paradigm,2021.1.4,59.906427108157864,
M,right,Target,0,34,34,34,2907.63466379483,2909.634661870019,right,1,0.5999754907097667,0,2.91,E03T01,2021_Oct_19_0828,t1_Paradigm,2021.1.4,59.906427108157864,
M,right,Target,0,35,35,35,2911.1346498399507,2913.1345025919145,right,1,0.587862333690282,0,2.91,E03T01,2021_Oct_19_0828,t1_Paradigm,2021.1.4,59.906427108157864,
D,left,Distractor,0,36,36,36,2914.6347789627034,2916.635196325893,left,1,0.6071550361812115,0,2.91,E03T01,2021_Oct_19_0828,t1_Paradigm,2021.1.4,59.906427108157864,
M,left,Lure,0,37,37,37,2918.1347611582023,2920.135187824664,left,1,0.7390899300808087,0,2.91,E03T01,2021_Oct_19_0828,t1_Paradigm,2021.1.4,59.906427108157864,
F,left,Distractor,0,38,38,38,2921.6347946819733,2923.6351526968647,left,1,0.7752009903779253,0,2.91,E03T01,2021_Oct_19_0828,t1_Paradigm,2021.1.4,59.906427108157864,
T,left,Pretarget,0,39,39,39,2925.1348577195895,2927.1350572583033,left,1,0.6193596217781305,0,2.91,E03T01,2021_Oct_19_0828,t1_Paradigm,2021.1.4,59.906427108157864,
T,right,Target,0,40,40,40,2928.6347074239166,2930.635066080373,right,1,0.8314754093880765,0,2.91,E03T01,2021_Oct_19_0828,t1_Paradigm,2021.1.4,59.906427108157864,
Z,left,Distractor,0,41,41,41,2932.134945298487,2934.13579831057,left,1,0.6104522375389934,0,2.91,E03T01,2021_Oct_19_0828,t1_Paradigm,2021.1.4,59.906427108157864,
S,left,Distractor,0,42,42,42,2935.6346458299668,2937.634607975313,left,1,0.5836373732890934,0,2.91,E03T01,2021_Oct_19_0828,t1_Paradigm,2021.1.4,59.906427108157864,
D,left,Distractor,0,43,43,43,2939.134682240954,2941.134573168296,left,1,0.5076920263236389,0,2.91,E03T01,2021_Oct_19_0828,t1_Paradigm,2021.1.4,59.906427108157864,
Y,left,Pretarget,0,44,44,44,2942.634695875051,2944.634468105738,left,1,0.6717411103309132,0,2.91,E03T01,2021_Oct_19_0828,t1_Paradigm,2021.1.4,59.906427108157864,
Y,right,Target,0,45,45,45,2946.1345558449975,2948.1347630830132,right,1,0.8834767477819696,0,2.91,E03T01,2021_Oct_19_0828,t1_Paradigm,2021.1.4,59.906427108157864,
Z,left,Pretarget,0,46,46,46,2949.634838952683,2951.635188305867,left,1,0.47108821442816406,0,2.91,E03T01,2021_Oct_19_0828,t1_Paradigm,2021.1.4,59.906427108157864,
Z,right,Target,0,47,47,47,2953.1347986920155,2955.134777519095,right,1,0.6516146438079886,0,2.91,E03T01,2021_Oct_19_0828,t1_Paradigm,2021.1.4,59.906427108157864,
H,left,Pretarget,0,48,48,48,2956.634779283486,2958.6352319348953,left,1,0.73501382174436,0,2.91,E03T01,2021_Oct_19_0828,t1_Paradigm,2021.1.4,59.906427108157864,
H,right,Target,0,49,49,49,2960.134868626832,2962.134775273502,right,1,0.7554796966142021,0,2.91,E03T01,2021_Oct_19_0828,t1_Paradigm,2021.1.4,59.906427108157864,
Z,left,Lure,0,50,50,50,2963.634752977756,2965.6363553830306,left,1,0.7899241913110018,0,2.91,E03T01,2021_Oct_19_0828,t1_Paradigm,2021.1.4,59.906427108157864,
R,left,Distractor,0,51,51,51,2967.134588246001,2969.134645348764,left,1,0.7318715676665306,0,2.91,E03T01,2021_Oct_19_0828,t1_Paradigm,2021.1.4,59.906427108157864,
H,left,Lure,0,52,52,52,2970.6345858399873,2972.6344571984373,left,1,0.575870118860621,0,2.91,E03T01,2021_Oct_19_0828,t1_Paradigm,2021.1.4,59.906427108157864,
L,left,Distractor,0,53,53,53,2974.134599474084,2976.1344958550762,left,1,0.6598659882438369,0,2.91,E03T01,2021_Oct_19_0828,t1_Paradigm,2021.1.4,59.906427108157864,
N,left,Pretarget,0,54,54,54,2977.634638130723,2979.634491203469,left,1,0.5999928140663542,0,2.91,E03T01,2021_Oct_19_0828,t1_Paradigm,2021.1.4,59.906427108157864,
N,right,Target,0,55,55,55,2981.134721699578,2983.134726832388,right,1,0.7637166049680673,0,2.91,E03T01,2021_Oct_19_0828,t1_Paradigm,2021.1.4,59.906427108157864,
W,left,Distractor,0,56,56,56,2984.6347632434336,2986.6351854186505,left,1,0.5274559867684729,0,2.91,E03T01,2021_Oct_19_0828,t1_Paradigm,2021.1.4,59.906427108157864,
R,left,Pretarget,0,57,57,57,2988.13483301783,2990.1352805364295,left,1,0.5631461550947279,0,2.91,E03T01,2021_Oct_19_0828,t1_Paradigm,2021.1.4,59.906427108157864,
R,right,Target,0,58,58,58,2991.6347465617,2993.6348334990325,right,1,0.5834634986822493,0,2.91,E03T01,2021_Oct_19_0828,t1_Paradigm,2021.1.4,59.906427108157864,
Q,left,Distractor,0,59,59,59,2995.134726832388,2997.1536987330765,left,1,0.45659887802321464,0,2.91,E03T01,2021_Oct_19_0828,t1_Paradigm,2021.1.4,59.906427108157864,
R,left,Lure,0,60,60,60,2998.634771584242,3000.6351315239444,left,1,0.6071797379408963,0,2.91,E03T01,2021_Oct_19_0828,t1_Paradigm,2021.1.4,59.906427108157864,
Z,left,Distractor,0,61,61,61,3002.134823393775,3004.1352577594807,left,1,0.5631670071743429,0,2.91,E03T01,2021_Oct_19_0828,t1_Paradigm,2021.1.4,59.906427108157864,
K,left,Pretarget,0,62,62,62,3005.634717689536,3007.6350801956723,left,1,0.6794454875634983,0,2.91,E03T01,2021_Oct_19_0828,t1_Paradigm,2021.1.4,59.906427108157864,
K,right,Target,0,63,63,63,3009.134711754741,3011.1346937898197,right,1,0.6676778341061436,0,2.91,E03T01,2021_Oct_19_0828,t1_Paradigm,2021.1.4,59.906427108157864,
