Letter,CorrAnswer,Stimulus,nback_run.thisRepN,nback_run.thisTrialN,nback_run.thisN,nback_run.thisIndex,fixcross.started,nback_trial.started,trial_resp.keys,trial_resp.corr,currentlevel,trial_resp.rt,Participant,date,expName,psychopyVersion,frameRate,
H,left,Distractor,0,0,0,0,134.5351895570011,136.52067231085402,None,0,1,,F07I10,2021_Oct_14_1439,t1_Paradigm,2021.1.4,60.06723191056357,
Q,left,Pretarget,0,1,1,1,138.01912845194784,140.0211427667682,left,1,1,0.6881565410376425,F07I10,2021_Oct_14_1439,t1_Paradigm,2021.1.4,60.06723191056357,
Q,right,Target,0,2,2,2,141.51903750462316,143.518760011023,right,1,1,0.7105244500735353,F07I10,2021_Oct_14_1439,t1_Paradigm,2021.1.4,60.06723191056357,
T,left,Distractor,0,3,3,3,145.01914000081524,147.02104780942045,left,1,1,0.9843272255866395,F07I10,2021_Oct_14_1439,t1_Paradigm,2021.1.4,60.06723191056357,
Q,left,Lure,0,4,4,4,148.5189454344927,150.51895441694433,left,1,1,0.7824620194669478,F07I10,2021_Oct_14_1439,t1_Paradigm,2021.1.4,60.06723191056357,
L,left,Distractor,0,5,5,5,152.01898088309736,154.0194973740763,left,1,1,0.7378019106317879,F07I10,2021_Oct_14_1439,t1_Paradigm,2021.1.4,60.06723191056357,
V,left,Pretarget,0,6,6,6,155.51888255732956,157.51944748938877,left,1,1,0.5982454063587284,F07I10,2021_Oct_14_1439,t1_Paradigm,2021.1.4,60.06723191056357,
V,right,Target,0,7,7,7,159.01891960994362,161.0190828980858,left,0,1,0.474223731701386,F07I10,2021_Oct_14_1439,t1_Paradigm,2021.1.4,60.06723191056357,
K,left,Distractor,0,8,8,8,162.51909107853226,164.52137197969114,left,1,1,0.699870941415611,F07I10,2021_Oct_14_1439,t1_Paradigm,2021.1.4,60.06723191056357,
G,left,Pretarget,0,9,9,9,166.0191249231275,168.0212787867531,left,1,1,0.6240965818878976,F07I10,2021_Oct_14_1439,t1_Paradigm,2021.1.4,60.06723191056357,
G,right,Target,0,10,10,10,169.51899066755323,171.51904873268813,right,1,1,0.6304744434810345,F07I10,2021_Oct_14_1439,t1_Paradigm,2021.1.4,60.06723191056357,
G,right,Target,0,11,11,11,173.01900847205616,175.01902258733753,right,1,1,0.5062407188015641,F07I10,2021_Oct_14_1439,t1_Paradigm,2021.1.4,60.06723191056357,
P,left,Pretarget,0,12,12,12,176.51897077783906,178.5207355088187,left,1,1,0.4447439664390913,F07I10,2021_Oct_14_1439,t1_Paradigm,2021.1.4,60.06723191056357,
P,right,Target,0,13,13,13,180.0187656250555,182.01886667763847,right,1,1,0.7383402161367485,F07I10,2021_Oct_14_1439,t1_Paradigm,2021.1.4,60.06723191056357,
G,left,Lure,0,14,14,14,183.51888191572561,185.51935317364496,left,1,1,0.63013567672715,F07I10,2021_Oct_14_1439,t1_Paradigm,2021.1.4,60.06723191056357,
Y,left,Distractor,0,15,15,15,187.01894431168603,189.0207430476621,left,1,1,0.6806741586733551,F07I10,2021_Oct_14_1439,t1_Paradigm,2021.1.4,60.06723191056357,
B,left,Distractor,0,16,16,16,190.51909556975897,192.51973589025238,left,1,1,0.7496510477876654,F07I10,2021_Oct_14_1439,t1_Paradigm,2021.1.4,60.06723191056357,
T,left,Pretarget,0,17,17,17,194.01906942440746,196.01941268238807,left,1,1,0.609983866874245,F07I10,2021_Oct_14_1439,t1_Paradigm,2021.1.4,60.06723191056357,
T,right,Target,0,18,18,18,197.51908209608064,199.51906926400716,right,1,1,0.5343124847422587,F07I10,2021_Oct_14_1439,t1_Paradigm,2021.1.4,60.06723191056357,
S,left,Distractor,0,19,19,19,201.0191063166203,203.0207776942625,left,1,1,0.5684499720746317,F07I10,2021_Oct_14_1439,t1_Paradigm,2021.1.4,60.06723191056357,
T,left,Lure,0,20,20,20,204.51897655227185,206.51914144442344,left,1,1,0.8781013919915495,F07I10,2021_Oct_14_1439,t1_Paradigm,2021.1.4,60.06723191056357,
J,left,Distractor,0,21,21,21,208.01892153475455,210.02116458129422,left,1,1,0.592235504488599,F07I10,2021_Oct_14_1439,t1_Paradigm,2021.1.4,60.06723191056357,
P,left,Distractor,0,22,22,22,211.51899644198693,213.51933392553383,left,1,1,0.6300946140900123,F07I10,2021_Oct_14_1439,t1_Paradigm,2021.1.4,60.06723191056357,
F,left,Distractor,0,23,23,23,215.01901585049836,217.0210080299912,left,1,1,0.6324399964196346,F07I10,2021_Oct_14_1439,t1_Paradigm,2021.1.4,60.06723191056357,
L,left,Distractor,0,24,24,24,218.518849835541,220.51916614616584,left,1,1,0.5421089321180261,F07I10,2021_Oct_14_1439,t1_Paradigm,2021.1.4,60.06723191056357,
W,left,Pretarget,0,25,25,25,222.01891255230294,224.02076389978265,left,1,1,0.5927003463693836,F07I10,2021_Oct_14_1439,t1_Paradigm,2021.1.4,60.06723191056357,
W,right,Target,0,26,26,26,225.51895505854827,227.53632423314684,right,1,1,0.6610118924454582,F07I10,2021_Oct_14_1439,t1_Paradigm,2021.1.4,60.06723191056357,
V,left,Distractor,0,27,27,27,229.0190078304522,231.01926158471633,left,1,1,0.5379757210748721,F07I10,2021_Oct_14_1439,t1_Paradigm,2021.1.4,60.06723191056357,
W,left,Lure,0,28,28,28,232.51902595575666,234.51933103831652,left,1,1,0.8620532794129758,F07I10,2021_Oct_14_1439,t1_Paradigm,2021.1.4,60.06723191056357,
R,left,Pretarget,0,29,29,29,236.01901168007498,238.02096825056196,left,1,1,0.5284726078525637,F07I10,2021_Oct_14_1439,t1_Paradigm,2021.1.4,60.06723191056357,
R,right,Target,0,30,30,30,239.51892907359797,241.5188787077077,right,1,1,0.6783268515318923,F07I10,2021_Oct_14_1439,t1_Paradigm,2021.1.4,60.06723191056357,
G,left,Distractor,0,31,31,31,243.01891255230294,245.01922276769255,left,1,1,0.4740472906842115,F07I10,2021_Oct_14_1439,t1_Paradigm,2021.1.4,60.06723191056357,
R,left,Lure,0,32,32,32,246.51913117876393,248.5193352087408,left,1,1,0.7340235064348235,F07I10,2021_Oct_14_1439,t1_Paradigm,2021.1.4,60.06723191056357,
S,left,Distractor,0,33,33,33,250.01913743440036,252.01931419621997,left,1,1,0.5301353238446609,F07I10,2021_Oct_14_1439,t1_Paradigm,2021.1.4,60.06723191056357,
R,left,Lure,0,34,34,34,253.51887999091468,255.51900959486284,left,1,1,0.5022374325071723,F07I10,2021_Oct_14_1439,t1_Paradigm,2021.1.4,60.06723191056357,
P,left,Pretarget,0,35,35,35,257.01886058240325,259.0190992589796,left,1,1,0.6020777052663107,F07I10,2021_Oct_14_1439,t1_Paradigm,2021.1.4,60.06723191056357,
P,right,Target,0,36,36,36,260.518816151347,262.5193913490648,left,0,1,1.3419722063690642,F07I10,2021_Oct_14_1439,t1_Paradigm,2021.1.4,60.06723191056357,
Y,left,Pretarget,0,37,37,37,264.0189295548007,266.0197200105604,left,1,1,0.6415677714758203,F07I10,2021_Oct_14_1439,t1_Paradigm,2021.1.4,60.06723191056357,
Y,right,Target,0,38,38,38,267.5189656450093,269.5189698154327,right,1,1,0.7583024320947516,F07I10,2021_Oct_14_1439,t1_Paradigm,2021.1.4,60.06723191056357,
J,left,Distractor,0,39,39,39,271.01905787554097,273.01937194055245,left,1,1,0.6981026816147278,F07I10,2021_Oct_14_1439,t1_Paradigm,2021.1.4,60.06723191056357,
Y,left,Lure,0,40,40,40,274.51890565506255,276.5192842012466,left,1,1,0.5739642350845315,F07I10,2021_Oct_14_1439,t1_Paradigm,2021.1.4,60.06723191056357,
T,left,Distractor,0,41,41,41,278.0193337651326,280.02110844097024,left,1,1,0.5608755195789854,F07I10,2021_Oct_14_1439,t1_Paradigm,2021.1.4,60.06723191056357,
V,left,Distractor,0,42,42,42,281.51885208115345,283.51929093808576,left,1,1,0.5180510389327537,F07I10,2021_Oct_14_1439,t1_Paradigm,2021.1.4,60.06723191056357,
N,left,Pretarget,0,43,43,43,285.0189077402747,287.02073951884176,left,1,1,0.5044458324473453,F07I10,2021_Oct_14_1439,t1_Paradigm,2021.1.4,60.06723191056357,
N,right,Target,0,44,44,44,288.5188889733663,290.5189351688332,right,1,1,0.638289497363985,F07I10,2021_Oct_14_1439,t1_Paradigm,2021.1.4,60.06723191056357,
N,right,Target,0,45,45,45,292.0188798305144,294.019012321678,right,1,1,0.6902844197129525,F07I10,2021_Oct_14_1439,t1_Paradigm,2021.1.4,60.06723191056357,
X,left,Distractor,0,46,46,46,295.5189698154327,297.5208923809241,left,1,1,0.564515978979216,F07I10,2021_Oct_14_1439,t1_Paradigm,2021.1.4,60.06723191056357,
Z,left,Distractor,0,47,47,47,299.0189962815857,301.021369894479,left,1,1,0.5197923513778733,F07I10,2021_Oct_14_1439,t1_Paradigm,2021.1.4,60.06723191056357,
H,left,Pretarget,0,48,48,48,302.51893581043714,304.5199610931513,left,1,1,0.6372298888518344,F07I10,2021_Oct_14_1439,t1_Paradigm,2021.1.4,60.06723191056357,
H,right,Target,0,49,49,49,306.0190408730432,308.01900045201,right,1,1,0.610344768957475,F07I10,2021_Oct_14_1439,t1_Paradigm,2021.1.4,60.06723191056357,
K,left,Distractor,0,50,50,50,309.5189018054407,311.52075219051494,left,1,1,0.6286477977428149,F07I10,2021_Oct_14_1439,t1_Paradigm,2021.1.4,60.06723191056357,
V,left,Pretarget,0,51,51,51,313.0190630083707,315.0206397494667,left,1,1,0.5365443032169424,F07I10,2021_Oct_14_1439,t1_Paradigm,2021.1.4,60.06723191056357,
V,right,Target,0,52,52,52,316.5190237101442,318.5189890635438,right,1,1,0.7501312881568083,F07I10,2021_Oct_14_1439,t1_Paradigm,2021.1.4,60.06723191056357,
R,left,Distractor,0,53,53,53,320.0189725422488,322.0188641112236,left,1,1,0.5305376093656378,F07I10,2021_Oct_14_1439,t1_Paradigm,2021.1.4,60.06723191056357,
V,left,Lure,0,54,54,54,323.5188325122408,325.51884598591914,left,1,1,0.6783265307303736,F07I10,2021_Oct_14_1439,t1_Paradigm,2021.1.4,60.06723191056357,
Y,left,Distractor,0,55,55,55,327.0186398707301,329.0319576387574,left,1,1,0.5411702659030198,F07I10,2021_Oct_14_1439,t1_Paradigm,2021.1.4,60.06723191056357,
Q,left,Distractor,0,56,56,56,330.5188697252561,332.5192158704522,left,1,1,0.5101108723274592,F07I10,2021_Oct_14_1439,t1_Paradigm,2021.1.4,60.06723191056357,
Z,left,Pretarget,0,57,57,57,334.0190726324263,336.01923559976603,left,1,1,0.546164829915142,F07I10,2021_Oct_14_1439,t1_Paradigm,2021.1.4,60.06723191056357,
Z,right,Target,0,58,58,58,337.5189916299587,339.5189252239761,right,1,1,0.6464484508323949,F07I10,2021_Oct_14_1439,t1_Paradigm,2021.1.4,60.06723191056357,
B,left,Distractor,0,59,59,59,341.0188570535829,343.01927954961957,left,1,1,0.6180119331866081,F07I10,2021_Oct_14_1439,t1_Paradigm,2021.1.4,60.06723191056357,
S,left,Pretarget,0,60,60,60,344.5191058354176,346.51976668723,left,1,1,0.5414695740300886,F07I10,2021_Oct_14_1439,t1_Paradigm,2021.1.4,60.06723191056357,
S,right,Target,0,61,61,61,348.01885480796955,350.0189109482935,right,1,1,0.7222163943215492,F07I10,2021_Oct_14_1439,t1_Paradigm,2021.1.4,60.06723191056357,
T,left,Distractor,0,62,62,62,351.51879241201004,353.51876803106916,left,1,1,0.5825235492620777,F07I10,2021_Oct_14_1439,t1_Paradigm,2021.1.4,60.06723191056357,
D,left,Distractor,0,63,63,63,355.0188166325497,357.02046812047683,left,1,1,0.4887332786038314,F07I10,2021_Oct_14_1439,t1_Paradigm,2021.1.4,60.06723191056357,
R,left,Distractor,0,0,0,0,445.06775367165756,447.05259995463894,None,0,1,,F07I10,2021_Oct_14_1439,t1_Paradigm,2021.1.4,60.06723191056357,
V,left,Distractor,0,1,1,1,448.5522462705985,450.55284488685174,left,1,1,0.7484522112708873,F07I10,2021_Oct_14_1439,t1_Paradigm,2021.1.4,60.06723191056357,
N,left,Pretarget,0,2,2,2,452.0523577492413,454.05268560873265,left,1,1,0.5925232637482623,F07I10,2021_Oct_14_1439,t1_Paradigm,2021.1.4,60.06723191056357,
N,right,Target,0,3,3,3,455.5523405863423,457.5523720249239,left,0,1,0.9810348361934302,F07I10,2021_Oct_14_1439,t1_Paradigm,2021.1.4,60.06723191056357,
S,left,Distractor,0,4,4,4,459.0523202154245,461.06897175628455,left,1,1,0.840149891456349,F07I10,2021_Oct_14_1439,t1_Paradigm,2021.1.4,60.06723191056357,
N,left,Lure,0,5,5,5,462.5527877841223,464.55259754862436,right,0,1,0.6526758563568364,F07I10,2021_Oct_14_1439,t1_Paradigm,2021.1.4,60.06723191056357,
Z,left,Distractor,0,6,6,6,466.05219446109913,468.05261310751484,left,1,1,0.5132290663150343,F07I10,2021_Oct_14_1439,t1_Paradigm,2021.1.4,60.06723191056357,
L,left,Pretarget,0,7,7,7,469.552259102672,471.55265561375927,left,1,1,0.6606006244728633,F07I10,2021_Oct_14_1439,t1_Paradigm,2021.1.4,60.06723191056357,
L,right,Target,0,8,8,8,473.0522287868971,475.0522592630732,None,0,1,,F07I10,2021_Oct_14_1439,t1_Paradigm,2021.1.4,60.06723191056357,
H,left,Distractor,0,9,9,9,476.55216446612667,478.5534787913084,left,1,1,0.7958487598925785,F07I10,2021_Oct_14_1439,t1_Paradigm,2021.1.4,60.06723191056357,
L,left,Lure,0,10,10,10,480.05230898736045,482.0527818492883,right,0,1,0.608394293704805,F07I10,2021_Oct_14_1439,t1_Paradigm,2021.1.4,60.06723191056357,
X,left,Pretarget,0,11,11,11,483.55241180435314,485.552660746589,left,1,1,0.628458203849732,F07I10,2021_Oct_14_1439,t1_Paradigm,2021.1.4,60.06723191056357,
X,right,Target,0,12,12,12,487.05227434076005,489.0521999147313,left,0,1,0.552944335425309,F07I10,2021_Oct_14_1439,t1_Paradigm,2021.1.4,60.06723191056357,
X,right,Target,0,13,13,13,490.55226551870965,492.55219911272616,right,1,1,0.6049139144279252,F07I10,2021_Oct_14_1439,t1_Paradigm,2021.1.4,60.06723191056357,
R,left,Distractor,0,14,14,14,494.05216109770663,496.0539797233987,left,1,1,0.43134311073208664,F07I10,2021_Oct_14_1439,t1_Paradigm,2021.1.4,60.06723191056357,
T,left,Distractor,0,15,15,15,497.5521086466042,499.5522674435206,left,1,1,0.8369739531353844,F07I10,2021_Oct_14_1439,t1_Paradigm,2021.1.4,60.06723191056357,
V,left,Pretarget,0,16,16,16,501.0520388722016,503.0524385913077,left,1,1,0.9206259229067655,F07I10,2021_Oct_14_1439,t1_Paradigm,2021.1.4,60.06723191056357,
V,right,Target,0,17,17,17,504.5521651077297,506.5521211578762,left,0,1,0.6050072677662683,F07I10,2021_Oct_14_1439,t1_Paradigm,2021.1.4,60.06723191056357,
N,left,Distractor,0,18,18,18,508.05217874180835,510.0524299296576,left,1,1,0.6407077017147458,F07I10,2021_Oct_14_1439,t1_Paradigm,2021.1.4,60.06723191056357,
B,left,Distractor,0,19,19,19,511.5526167967355,513.5523867818092,left,1,1,0.5649766504375293,F07I10,2021_Oct_14_1439,t1_Paradigm,2021.1.4,60.06723191056357,
V,left,Lure,0,20,20,20,515.0520988621483,517.0525608168127,left,1,1,0.8885162240721911,F07I10,2021_Oct_14_1439,t1_Paradigm,2021.1.4,60.06723191056357,
P,left,Distractor,0,21,21,21,518.552090681701,520.552192375887,left,1,1,0.6048673981586035,F07I10,2021_Oct_14_1439,t1_Paradigm,2021.1.4,60.06723191056357,
K,left,Pretarget,0,22,22,22,522.0521129774297,524.051995563952,left,1,1,0.4011922279978535,F07I10,2021_Oct_14_1439,t1_Paradigm,2021.1.4,60.06723191056357,
K,right,Target,0,23,23,23,525.552034541377,527.5520268421324,left,0,1,0.645082476551579,F07I10,2021_Oct_14_1439,t1_Paradigm,2021.1.4,60.06723191056357,
J,left,Pretarget,0,24,24,24,529.0522278244916,531.0524831827652,left,1,1,0.5205696542625446,F07I10,2021_Oct_14_1439,t1_Paradigm,2021.1.4,60.06723191056357,
J,right,Target,0,25,25,25,532.5520560351006,534.5521397643843,left,0,1,0.6049530522532223,F07I10,2021_Oct_14_1439,t1_Paradigm,2021.1.4,60.06723191056357,
H,left,Distractor,0,26,26,26,536.0522701703358,538.0525524759651,left,1,1,0.6725386237412749,F07I10,2021_Oct_14_1439,t1_Paradigm,2021.1.4,60.06723191056357,
J,left,Lure,0,27,27,27,539.552178581408,541.5525808669281,right,0,1,0.5647941141842239,F07I10,2021_Oct_14_1439,t1_Paradigm,2021.1.4,60.06723191056357,
V,left,Distractor,0,28,28,28,543.0522088971829,545.0535357336366,left,1,1,0.855572761228359,F07I10,2021_Oct_14_1439,t1_Paradigm,2021.1.4,60.06723191056357,
Z,left,Pretarget,0,29,29,29,546.5521943006988,548.5528448868517,left,1,1,0.7003617682466938,F07I10,2021_Oct_14_1439,t1_Paradigm,2021.1.4,60.06723191056357,
Z,right,Target,0,30,30,30,550.0522053683626,552.0521684761497,left,0,1,0.7209267708822154,F07I10,2021_Oct_14_1439,t1_Paradigm,2021.1.4,60.06723191056357,
T,left,Distractor,0,31,31,31,553.5517974688091,555.5524201452017,left,1,1,0.7727202296682663,F07I10,2021_Oct_14_1439,t1_Paradigm,2021.1.4,60.06723191056357,
Z,left,Lure,0,32,32,32,557.0520770476223,559.0526920247694,left,1,1,0.4723518529035573,F07I10,2021_Oct_14_1439,t1_Paradigm,2021.1.4,60.06723191056357,
F,left,Distractor,0,33,33,33,560.5520409574137,562.5519386216238,left,1,1,0.6531663623864006,F07I10,2021_Oct_14_1439,t1_Paradigm,2021.1.4,60.06723191056357,
Y,left,Pretarget,0,34,34,34,564.0518479951006,566.0526022002514,right,0,1,0.9287049967133498,F07I10,2021_Oct_14_1439,t1_Paradigm,2021.1.4,60.06723191056357,
Y,right,Target,0,35,35,35,567.5522722555479,569.5522363257405,left,0,1,0.9970576054265621,F07I10,2021_Oct_14_1439,t1_Paradigm,2021.1.4,60.06723191056357,
Y,right,Target,0,36,36,36,571.0523064209456,573.0522079347775,right,1,1,0.7448826490790452,F07I10,2021_Oct_14_1439,t1_Paradigm,2021.1.4,60.06723191056357,
W,left,Distractor,0,37,37,37,574.5522093783857,576.5527377390335,left,1,1,0.7484307175473077,F07I10,2021_Oct_14_1439,t1_Paradigm,2021.1.4,60.06723191056357,
Q,left,Distractor,0,38,38,38,578.0526875335436,580.0525948218092,left,1,1,0.6564828119180675,F07I10,2021_Oct_14_1439,t1_Paradigm,2021.1.4,60.06723191056357,
P,left,Pretarget,0,39,39,39,581.5520435238286,583.552627062395,left,1,1,0.4044708229112075,F07I10,2021_Oct_14_1439,t1_Paradigm,2021.1.4,60.06723191056357,
P,right,Target,0,40,40,40,585.0521944610991,587.0521245262962,left,0,1,0.6169045251981515,F07I10,2021_Oct_14_1439,t1_Paradigm,2021.1.4,60.06723191056357,
J,left,Distractor,0,41,41,41,588.5520778496266,590.5526562553632,left,1,1,0.7965930201853553,F07I10,2021_Oct_14_1439,t1_Paradigm,2021.1.4,60.06723191056357,
P,left,Lure,0,42,42,42,592.0520802556402,594.0524254384318,right,0,1,0.7368202569687128,F07I10,2021_Oct_14_1439,t1_Paradigm,2021.1.4,60.06723191056357,
L,left,Distractor,0,43,43,43,595.5519668521865,597.552268405926,left,1,1,0.4529151103761251,F07I10,2021_Oct_14_1439,t1_Paradigm,2021.1.4,60.06723191056357,
Z,left,Distractor,0,44,44,44,599.0520199448929,601.0522778695804,left,1,1,0.4568375546041352,F07I10,2021_Oct_14_1439,t1_Paradigm,2021.1.4,60.06723191056357,
F,left,Pretarget,0,45,45,45,602.5519947619478,604.551889859742,left,1,1,0.42982924679927237,F07I10,2021_Oct_14_1439,t1_Paradigm,2021.1.4,60.06723191056357,
F,right,Target,0,46,46,46,606.0521142606367,608.0519727870205,left,0,1,0.6572184105616543,F07I10,2021_Oct_14_1439,t1_Paradigm,2021.1.4,60.06723191056357,
G,left,Pretarget,0,47,47,47,609.5520871528806,611.5539189314477,left,1,1,0.6592744296231103,F07I10,2021_Oct_14_1439,t1_Paradigm,2021.1.4,60.06723191056357,
G,right,Target,0,48,48,48,613.0519981303669,615.0520584411152,left,0,1,0.6170068609899317,F07I10,2021_Oct_14_1439,t1_Paradigm,2021.1.4,60.06723191056357,
V,left,Distractor,0,49,49,49,616.5519982907681,618.5523322454947,left,1,1,0.7487807123661696,F07I10,2021_Oct_14_1439,t1_Paradigm,2021.1.4,60.06723191056357,
G,left,Lure,0,50,50,50,620.052934230167,622.052642942087,right,0,1,0.52904588076035,F07I10,2021_Oct_14_1439,t1_Paradigm,2021.1.4,60.06723191056357,
Q,left,Pretarget,0,51,51,51,623.552023313312,625.5523675336981,left,1,1,0.5166513804588249,F07I10,2021_Oct_14_1439,t1_Paradigm,2021.1.4,60.06723191056357,
Q,right,Target,0,52,52,52,627.0520918045077,629.0520501002666,right,1,1,1.241019392792623,F07I10,2021_Oct_14_1439,t1_Paradigm,2021.1.4,60.06723191056357,
Y,left,Distractor,0,53,53,53,630.5521756941907,632.5524352228886,left,1,1,1.260711172790252,F07I10,2021_Oct_14_1439,t1_Paradigm,2021.1.4,60.06723191056357,
V,left,Distractor,0,54,54,54,634.0521723257716,636.0525595336057,left,1,1,0.768426938500852,F07I10,2021_Oct_14_1439,t1_Paradigm,2021.1.4,60.06723191056357,
B,left,Distractor,0,55,55,55,637.5521862806527,639.5523874234123,left,1,1,0.4847636765043717,F07I10,2021_Oct_14_1439,t1_Paradigm,2021.1.4,60.06723191056357,
J,left,Pretarget,0,56,56,56,641.0521861202515,643.0523657692875,left,1,1,0.5528083154413252,F07I10,2021_Oct_14_1439,t1_Paradigm,2021.1.4,60.06723191056357,
J,right,Target,0,57,57,57,644.552156125279,646.5522828420089,left,0,1,0.4928469207352464,F07I10,2021_Oct_14_1439,t1_Paradigm,2021.1.4,60.06723191056357,
H,left,Distractor,0,58,58,58,648.0519670125868,650.0529560446921,left,1,1,0.5601421665487578,F07I10,2021_Oct_14_1439,t1_Paradigm,2021.1.4,60.06723191056357,
J,left,Lure,0,59,59,59,651.5519562657246,653.5520342205746,right,0,1,0.5011239292853134,F07I10,2021_Oct_14_1439,t1_Paradigm,2021.1.4,60.06723191056357,
D,left,Pretarget,0,60,60,60,655.052041759418,657.0523272730661,left,1,1,0.5848493626781419,F07I10,2021_Oct_14_1439,t1_Paradigm,2021.1.4,60.06723191056357,
D,right,Target,0,61,61,61,658.5520399950092,660.5519026918155,left,0,1,0.7334540831507184,F07I10,2021_Oct_14_1439,t1_Paradigm,2021.1.4,60.06723191056357,
R,left,Distractor,0,62,62,62,662.0521004661568,664.0522348821323,left,1,1,0.4969984174858837,F07I10,2021_Oct_14_1439,t1_Paradigm,2021.1.4,60.06723191056357,
F,left,Distractor,0,63,63,63,665.5520813784478,667.5520675839671,left,1,1,0.6610632207430172,F07I10,2021_Oct_14_1439,t1_Paradigm,2021.1.4,60.06723191056357,
F,left,Distractor,0,0,0,0,809.5957489263565,811.5854877583624,None,0,2,,F07I10,2021_Oct_14_1439,t1_Paradigm,2021.1.4,60.06723191056357,
N,left,Pretarget,0,1,1,1,813.0859149060252,815.086209402125,None,0,2,,F07I10,2021_Oct_14_1439,t1_Paradigm,2021.1.4,60.06723191056357,
V,left,Distractor,0,2,2,2,816.5853616832337,818.5851242898643,left,1,2,0.6199290450476838,F07I10,2021_Oct_14_1439,t1_Paradigm,2021.1.4,60.06723191056357,
N,right,Target,0,3,3,3,820.0852129915766,822.0851116181911,right,1,2,0.5439471267218323,F07I10,2021_Oct_14_1439,t1_Paradigm,2021.1.4,60.06723191056357,
N,left,Lure,0,4,4,4,823.5852163599957,825.5851682397188,left,1,2,0.6759801859952859,F07I10,2021_Oct_14_1439,t1_Paradigm,2021.1.4,60.06723191056357,
X,left,Distractor,0,5,5,5,827.0853567108061,829.0855742144613,left,1,2,0.4873541514498356,F07I10,2021_Oct_14_1439,t1_Paradigm,2021.1.4,60.06723191056357,
G,left,Pretarget,0,6,6,6,830.5852773123479,832.5856180039136,left,1,2,0.7636017578661267,F07I10,2021_Oct_14_1439,t1_Paradigm,2021.1.4,60.06723191056357,
H,left,Pretarget,0,7,7,7,834.0853207809978,836.0856646805823,left,1,2,0.735253139928318,F07I10,2021_Oct_14_1439,t1_Paradigm,2021.1.4,60.06723191056357,
G,right,Target,0,8,8,8,837.5853424351226,839.5857036580073,right,1,2,0.4352363619909738,F07I10,2021_Oct_14_1439,t1_Paradigm,2021.1.4,60.06723191056357,
H,right,Target,0,9,9,9,841.0852765103427,843.0857371818001,right,1,2,0.8392044884021743,F07I10,2021_Oct_14_1439,t1_Paradigm,2021.1.4,60.06723191056357,
T,left,Pretarget,0,10,10,10,844.5852593474447,846.5872746246696,left,1,2,0.6978178095705516,F07I10,2021_Oct_14_1439,t1_Paradigm,2021.1.4,60.06723191056357,
K,left,Distractor,0,11,11,11,848.0852652822778,850.0856236179461,left,1,2,0.5274033752830292,F07I10,2021_Oct_14_1439,t1_Paradigm,2021.1.4,60.06723191056357,
T,right,Target,0,12,12,12,851.5853260742297,853.5855195177446,right,1,2,0.5954614878992288,F07I10,2021_Oct_14_1439,t1_Paradigm,2021.1.4,60.06723191056357,
T,left,Lure,0,13,13,13,855.0852870968047,857.0852835679834,left,1,2,0.6638975050918816,F07I10,2021_Oct_14_1439,t1_Paradigm,2021.1.4,60.06723191056357,
J,left,Distractor,0,14,14,14,858.5854277684157,860.5855580139669,left,1,2,0.6194754312291479,F07I10,2021_Oct_14_1439,t1_Paradigm,2021.1.4,60.06723191056357,
Q,left,Pretarget,0,15,15,15,862.0854324200427,864.0863736526717,left,1,2,0.6225673194658157,F07I10,2021_Oct_14_1439,t1_Paradigm,2021.1.4,60.06723191056357,
M,left,Distractor,0,16,16,16,865.5851390467506,867.5869483691877,left,1,2,0.7060271289283264,F07I10,2021_Oct_14_1439,t1_Paradigm,2021.1.4,60.06723191056357,
Q,right,Target,0,17,17,17,869.0851895730411,871.0854208711753,right,1,2,0.9675024517291604,F07I10,2021_Oct_14_1439,t1_Paradigm,2021.1.4,60.06723191056357,
R,left,Distractor,0,18,18,18,872.5852266256552,874.5852237384388,left,1,2,0.6836248940944643,F07I10,2021_Oct_14_1439,t1_Paradigm,2021.1.4,60.06723191056357,
W,left,Distractor,0,19,19,19,876.0851513976213,878.1018048632923,left,1,2,0.5911669135239208,F07I10,2021_Oct_14_1439,t1_Paradigm,2021.1.4,60.06723191056357,
C,left,Pretarget,0,20,20,20,879.5852362497117,881.5870218328109,left,1,2,0.7538618928792857,F07I10,2021_Oct_14_1439,t1_Paradigm,2021.1.4,60.06723191056357,
T,left,Distractor,0,21,21,21,883.0852980040672,885.0855161493255,left,1,2,0.7754759175659274,F07I10,2021_Oct_14_1439,t1_Paradigm,2021.1.4,60.06723191056357,
C,right,Target,0,22,22,22,886.5854425253001,888.5873128000894,right,1,2,0.7298842001564481,F07I10,2021_Oct_14_1439,t1_Paradigm,2021.1.4,60.06723191056357,
F,left,Pretarget,0,23,23,23,890.0851728913458,892.0853842997658,left,1,2,0.6555046870762453,F07I10,2021_Oct_14_1439,t1_Paradigm,2021.1.4,60.06723191056357,
C,right,Target,0,24,24,24,893.5851704853321,895.5855326706205,right,1,2,0.6914309655257966,F07I10,2021_Oct_14_1439,t1_Paradigm,2021.1.4,60.06723191056357,
F,right,Target,0,25,25,25,897.0852181244063,899.0855235277686,right,1,2,0.9516041536135162,F07I10,2021_Oct_14_1439,t1_Paradigm,2021.1.4,60.06723191056357,
H,left,Distractor,0,26,26,26,900.5854126907288,902.5855942645758,left,1,2,0.5392990287091379,F07I10,2021_Oct_14_1439,t1_Paradigm,2021.1.4,60.06723191056357,
H,left,Lure,0,27,27,27,904.0852383349229,906.0852441093557,left,1,2,0.7517551871260366,F07I10,2021_Oct_14_1439,t1_Paradigm,2021.1.4,60.06723191056357,
P,left,Distractor,0,28,28,28,907.5852484401821,909.5857373422023,left,1,2,0.6432343370906892,F07I10,2021_Oct_14_1439,t1_Paradigm,2021.1.4,60.06723191056357,
G,left,Pretarget,0,29,29,29,911.0855430966803,913.0872141535219,left,1,2,0.597880333851208,F07I10,2021_Oct_14_1439,t1_Paradigm,2021.1.4,60.06723191056357,
K,left,Distractor,0,30,30,30,914.5852843699886,916.5855262545847,left,1,2,0.5074074751319131,F07I10,2021_Oct_14_1439,t1_Paradigm,2021.1.4,60.06723191056357,
G,right,Target,0,31,31,31,918.0852210116227,920.085447818532,left,0,2,0.8156656526116421,F07I10,2021_Oct_14_1439,t1_Paradigm,2021.1.4,60.06723191056357,
M,left,Pretarget,0,32,32,32,921.5852612722556,923.5853915178068,left,1,2,0.7394652682269225,F07I10,2021_Oct_14_1439,t1_Paradigm,2021.1.4,60.06723191056357,
B,left,Distractor,0,33,33,33,925.0851953474757,927.085358635617,left,1,2,0.5195613740470435,F07I10,2021_Oct_14_1439,t1_Paradigm,2021.1.4,60.06723191056357,
M,right,Target,0,34,34,34,928.5852952772511,930.5855759788701,right,1,2,0.7153897309417516,F07I10,2021_Oct_14_1439,t1_Paradigm,2021.1.4,60.06723191056357,
M,left,Lure,0,35,35,35,932.0852781143531,934.0851738537513,None,0,2,,F07I10,2021_Oct_14_1439,t1_Paradigm,2021.1.4,60.06723191056357,
T,left,Distractor,0,36,36,36,935.5851881294329,937.5853854225716,left,1,2,0.643641755441422,F07I10,2021_Oct_14_1439,t1_Paradigm,2021.1.4,60.06723191056357,
F,left,Distractor,0,37,37,37,939.0852126707741,941.0856402996415,left,1,2,0.5995610147474508,F07I10,2021_Oct_14_1439,t1_Paradigm,2021.1.4,60.06723191056357,
X,left,Distractor,0,38,38,38,942.5852750667345,944.5855121393033,left,1,2,0.5394430687392742,F07I10,2021_Oct_14_1439,t1_Paradigm,2021.1.4,60.06723191056357,
C,left,Distractor,0,39,39,39,946.0852104251626,948.085795246936,left,1,2,0.4313270706406911,F07I10,2021_Oct_14_1439,t1_Paradigm,2021.1.4,60.06723191056357,
R,left,Distractor,0,40,40,40,949.5851759389625,951.5853815729497,left,1,2,0.531784566159331,F07I10,2021_Oct_14_1439,t1_Paradigm,2021.1.4,60.06723191056357,
B,left,Pretarget,0,41,41,41,953.0853137233571,955.0856191267194,left,1,2,0.5832748671964509,F07I10,2021_Oct_14_1439,t1_Paradigm,2021.1.4,60.06723191056357,
H,left,Distractor,0,42,42,42,956.5852394577287,958.5855208009525,left,1,2,0.4754087737383088,F07I10,2021_Oct_14_1439,t1_Paradigm,2021.1.4,60.06723191056357,
B,right,Target,0,43,43,43,960.0852646406747,962.0862604096183,right,1,2,0.5427235884653783,F07I10,2021_Oct_14_1439,t1_Paradigm,2021.1.4,60.06723191056357,
W,left,Pretarget,0,44,44,44,963.5850880392554,965.5852359289092,left,1,2,0.6597675020675524,F07I10,2021_Oct_14_1439,t1_Paradigm,2021.1.4,60.06723191056357,
L,left,Pretarget,0,45,45,45,967.085158455262,969.0852649614772,left,1,2,0.8076812153522042,F07I10,2021_Oct_14_1439,t1_Paradigm,2021.1.4,60.06723191056357,
W,right,Target,0,46,46,46,970.5850832272281,972.585286615602,right,1,2,0.5715720156840689,F07I10,2021_Oct_14_1439,t1_Paradigm,2021.1.4,60.06723191056357,
L,right,Target,0,47,47,47,974.0851372823399,976.0852011219085,right,1,2,1.0076806379074696,F07I10,2021_Oct_14_1439,t1_Paradigm,2021.1.4,60.06723191056357,
W,right,Target,0,48,48,48,977.5850113676133,979.5982178173981,right,1,2,0.9027790743530204,F07I10,2021_Oct_14_1439,t1_Paradigm,2021.1.4,60.06723191056357,
X,left,Distractor,0,49,49,49,981.085068630744,983.0852582246371,left,1,2,0.6478679990195815,F07I10,2021_Oct_14_1439,t1_Paradigm,2021.1.4,60.06723191056357,
R,left,Distractor,0,50,50,50,984.5851653525024,986.5853488511602,left,1,2,0.7956825845340063,F07I10,2021_Oct_14_1439,t1_Paradigm,2021.1.4,60.06723191056357,
V,left,Pretarget,0,51,51,51,988.0851600592705,990.0854051518854,left,1,2,0.6554475843458931,F07I10,2021_Oct_14_1439,t1_Paradigm,2021.1.4,60.06723191056357,
Z,left,Distractor,0,52,52,52,991.5851878086323,993.5851473875991,left,1,2,0.5479905132488057,F07I10,2021_Oct_14_1439,t1_Paradigm,2021.1.4,60.06723191056357,
V,right,Target,0,53,53,53,995.0859896528564,997.085492089187,right,1,2,0.5674599775629758,F07I10,2021_Oct_14_1439,t1_Paradigm,2021.1.4,60.06723191056357,
V,left,Lure,0,54,54,54,998.5851682397188,1000.5853247910218,left,1,2,0.8277124037067551,F07I10,2021_Oct_14_1439,t1_Paradigm,2021.1.4,60.06723191056357,
N,left,Distractor,0,55,55,55,1002.0851818737974,1004.0856691718091,left,1,2,0.8314693141801399,F07I10,2021_Oct_14_1439,t1_Paradigm,2021.1.4,60.06723191056357,
B,left,Distractor,0,56,56,56,1005.5851207610449,1007.5855602595802,left,1,2,0.6434258557947032,F07I10,2021_Oct_14_1439,t1_Paradigm,2021.1.4,60.06723191056357,
V,left,Lure,0,57,57,57,1009.0852729815233,1011.0855273773905,left,1,2,0.5515103511515917,F07I10,2021_Oct_14_1439,t1_Paradigm,2021.1.4,60.06723191056357,
J,left,Distractor,0,58,58,58,1012.5854354676594,1014.5872351660419,left,1,2,0.6337437351412518,F07I10,2021_Oct_14_1439,t1_Paradigm,2021.1.4,60.06723191056357,
H,left,Distractor,0,59,59,59,1016.0851623048839,1018.085326876233,left,1,2,0.4797813029617828,F07I10,2021_Oct_14_1439,t1_Paradigm,2021.1.4,60.06723191056357,
X,left,Pretarget,0,60,60,60,1019.5852195680145,1021.5850193876595,left,1,2,0.6918614816095214,F07I10,2021_Oct_14_1439,t1_Paradigm,2021.1.4,60.06723191056357,
P,left,Distractor,0,61,61,61,1023.0851501144134,1025.0857798484467,left,1,2,0.5191536348938826,F07I10,2021_Oct_14_1439,t1_Paradigm,2021.1.4,60.06723191056357,
X,right,Target,0,62,62,62,1026.5852583850392,1028.5856510465037,left,0,2,0.3634325669700047,F07I10,2021_Oct_14_1439,t1_Paradigm,2021.1.4,60.06723191056357,
Q,left,Distractor,0,63,63,63,1030.0852319188853,1032.0855716480455,left,1,2,0.6872570126488426,F07I10,2021_Oct_14_1439,t1_Paradigm,2021.1.4,60.06723191056357,
B,left,Pretarget,0,0,0,0,1045.464159856845,1047.45285832845,left,1,2,1.1761086671358498,F07I10,2021_Oct_14_1439,t1_Paradigm,2021.1.4,60.06723191056357,
F,left,Distractor,0,1,1,1,1048.9519801333827,1050.953693215266,left,1,2,1.179405226954259,F07I10,2021_Oct_14_1439,t1_Paradigm,2021.1.4,60.06723191056357,
B,right,Target,0,2,2,2,1052.4518862988425,1054.4526465992276,right,1,2,0.6082531408901559,F07I10,2021_Oct_14_1439,t1_Paradigm,2021.1.4,60.06723191056357,
V,left,Distractor,0,3,3,3,1055.9519429203683,1057.9525036820032,left,1,2,0.8203326779348572,F07I10,2021_Oct_14_1439,t1_Paradigm,2021.1.4,60.06723191056357,
G,left,Pretarget,0,4,4,4,1059.451888544454,1061.4524066394442,left,1,2,0.5684111550490343,F07I10,2021_Oct_14_1439,t1_Paradigm,2021.1.4,60.06723191056357,
B,left,Lure,0,5,5,5,1062.9519201434377,1064.9522226595818,left,1,2,0.49271827919255884,F07I10,2021_Oct_14_1439,t1_Paradigm,2021.1.4,60.06723191056357,
G,right,Target,0,6,6,6,1066.4517634317326,1068.4516899681093,right,1,2,0.8334133733951603,F07I10,2021_Oct_14_1439,t1_Paradigm,2021.1.4,60.06723191056357,
Y,left,Pretarget,0,7,7,7,1069.9516311009702,1071.9516859580854,left,1,2,0.485232368007928,F07I10,2021_Oct_14_1439,t1_Paradigm,2021.1.4,60.06723191056357,
P,left,Distractor,0,8,8,8,1073.4517515620646,1075.4516623791496,left,1,2,0.5692840568844986,F07I10,2021_Oct_14_1439,t1_Paradigm,2021.1.4,60.06723191056357,
Y,right,Target,0,9,9,9,1076.9516959029424,1078.9520250456426,right,1,2,0.4609698032418237,F07I10,2021_Oct_14_1439,t1_Paradigm,2021.1.4,60.06723191056357,
X,left,Distractor,0,10,10,10,1080.4517072914095,1082.4522468801224,left,1,2,0.704584803808757,F07I10,2021_Oct_14_1439,t1_Paradigm,2021.1.4,60.06723191056357,
Y,right,Target,0,11,11,11,1083.951905065749,1085.9522669302369,right,1,2,0.4686748220901791,F07I10,2021_Oct_14_1439,t1_Paradigm,2021.1.4,60.06723191056357,
N,left,Distractor,0,12,12,12,1087.4518814868134,1089.4520957824498,left,1,2,0.5848384554155928,F07I10,2021_Oct_14_1439,t1_Paradigm,2021.1.4,60.06723191056357,
Y,right,Target,0,13,13,13,1090.9517276623264,1092.9525793912399,left,0,2,0.748378106043674,F07I10,2021_Oct_14_1439,t1_Paradigm,2021.1.4,60.06723191056357,
Y,left,Lure,0,14,14,14,1094.451607842835,1096.4520191108077,left,1,2,1.040837433984052,F07I10,2021_Oct_14_1439,t1_Paradigm,2021.1.4,60.06723191056357,
K,left,Distractor,0,15,15,15,1097.951611852859,1099.9520808651632,left,1,2,0.8686941985233716,F07I10,2021_Oct_14_1439,t1_Paradigm,2021.1.4,60.06723191056357,
T,left,Pretarget,0,16,16,16,1101.45166398316,1103.4520495869838,left,1,2,0.8248222998354322,F07I10,2021_Oct_14_1439,t1_Paradigm,2021.1.4,60.06723191056357,
J,left,Distractor,0,17,17,17,1104.9518011259497,1106.9519451659817,left,1,2,0.5888606690205052,F07I10,2021_Oct_14_1439,t1_Paradigm,2021.1.4,60.06723191056357,
T,right,Target,0,18,18,18,1108.4518664091265,1110.4521102185336,right,1,2,0.7848468604242953,F07I10,2021_Oct_14_1439,t1_Paradigm,2021.1.4,60.06723191056357,
S,left,Pretarget,0,19,19,19,1111.9521033212932,1113.952103962898,left,1,2,0.5969609157473315,F07I10,2021_Oct_14_1439,t1_Paradigm,2021.1.4,60.06723191056357,
R,left,Distractor,0,20,20,20,1115.4516716824037,1117.452099952874,left,1,2,1.144667519358336,F07I10,2021_Oct_14_1439,t1_Paradigm,2021.1.4,60.06723191056357,
S,right,Target,0,21,21,21,1118.9516686347852,1120.952072845117,right,1,2,0.6848330338634696,F07I10,2021_Oct_14_1439,t1_Paradigm,2021.1.4,60.06723191056357,
Q,left,Distractor,0,22,22,22,1122.4517217274915,1124.451942759968,left,1,2,0.8169023437458236,F07I10,2021_Oct_14_1439,t1_Paradigm,2021.1.4,60.06723191056357,
D,left,Distractor,0,23,23,23,1125.9518078627898,1127.9518197324578,left,1,2,0.917332250306572,F07I10,2021_Oct_14_1439,t1_Paradigm,2021.1.4,60.06723191056357,
F,left,Distractor,0,24,24,24,1129.4516886849015,1131.4521942686188,left,1,2,0.6968762561409676,F07I10,2021_Oct_14_1439,t1_Paradigm,2021.1.4,60.06723191056357,
Z,left,Distractor,0,25,25,25,1132.951729266335,1134.9523346194273,left,1,2,0.3328822859311913,F07I10,2021_Oct_14_1439,t1_Paradigm,2021.1.4,60.06723191056357,
P,left,Distractor,0,26,26,26,1136.4518109104065,1138.4528631404773,left,1,2,0.560096291883383,F07I10,2021_Oct_14_1439,t1_Paradigm,2021.1.4,60.06723191056357,
H,left,Distractor,0,27,27,27,1139.951667351579,1141.952038519319,left,1,2,0.2928596886486048,F07I10,2021_Oct_14_1439,t1_Paradigm,2021.1.4,60.06723191056357,
Z,left,Pretarget,0,28,28,28,1143.451885336437,1145.4538723830992,left,1,2,0.32702412333674147,F07I10,2021_Oct_14_1439,t1_Paradigm,2021.1.4,60.06723191056357,
J,left,Pretarget,0,29,29,29,1146.9516404042224,1148.9517757826034,left,1,2,0.557044824679906,F07I10,2021_Oct_14_1439,t1_Paradigm,2021.1.4,60.06723191056357,
Z,right,Target,0,30,30,30,1150.4516604543387,1152.452002749913,left,0,2,1.1848296654443402,F07I10,2021_Oct_14_1439,t1_Paradigm,2021.1.4,60.06723191056357,
J,right,Target,0,31,31,31,1153.9516622187493,1155.9518688151402,right,1,2,0.6930343331750919,F07I10,2021_Oct_14_1439,t1_Paradigm,2021.1.4,60.06723191056357,
V,left,Pretarget,0,32,32,32,1157.4516703991958,1159.451741296405,left,1,2,0.7450331051459216,F07I10,2021_Oct_14_1439,t1_Paradigm,2021.1.4,60.06723191056357,
Z,left,Lure,0,33,33,33,1160.9514729456569,1162.9515098378706,left,1,2,0.6693796879171714,F07I10,2021_Oct_14_1439,t1_Paradigm,2021.1.4,60.06723191056357,
V,right,Target,0,34,34,34,1164.4517044041932,1166.451722689897,right,1,2,0.43333368621460977,F07I10,2021_Oct_14_1439,t1_Paradigm,2021.1.4,60.06723191056357,
X,left,Distractor,0,35,35,35,1167.9516529154953,1169.9516740884173,left,1,2,0.7251260671073396,F07I10,2021_Oct_14_1439,t1_Paradigm,2021.1.4,60.06723191056357,
S,left,Distractor,0,36,36,36,1171.4515786498669,1173.4521066897123,left,1,2,0.4886678350267175,F07I10,2021_Oct_14_1439,t1_Paradigm,2021.1.4,60.06723191056357,
Q,left,Distractor,0,37,37,37,1174.9516323841763,1176.9519336171143,left,1,2,0.5728077444127848,F07I10,2021_Oct_14_1439,t1_Paradigm,2021.1.4,60.06723191056357,
P,left,Distractor,0,38,38,38,1178.4525301481553,1180.4525224489116,left,1,2,0.44854193954779475,F07I10,2021_Oct_14_1439,t1_Paradigm,2021.1.4,60.06723191056357,
S,left,Lure,0,39,39,39,1181.9517270207234,1183.9523974965905,left,1,2,0.4525076920253923,F07I10,2021_Oct_14_1439,t1_Paradigm,2021.1.4,60.06723191056357,
K,left,Pretarget,0,40,40,40,1185.4518121936144,1187.4522475217254,left,1,2,0.6164942196319316,F07I10,2021_Oct_14_1439,t1_Paradigm,2021.1.4,60.06723191056357,
L,left,Distractor,0,41,41,41,1188.9517222086943,1190.952052955403,left,1,2,0.6688599889184843,F07I10,2021_Oct_14_1439,t1_Paradigm,2021.1.4,60.06723191056357,
K,right,Target,0,42,42,42,1192.451695100939,1194.4519931258583,left,0,2,0.4330436813434062,F07I10,2021_Oct_14_1439,t1_Paradigm,2021.1.4,60.06723191056357,
B,left,Distractor,0,43,43,43,1195.9520580882327,1197.9536867992283,left,1,2,0.7870709796552546,F07I10,2021_Oct_14_1439,t1_Paradigm,2021.1.4,60.06723191056357,
N,left,Distractor,0,44,44,44,1199.4515780082638,1201.4518269504988,left,1,2,0.6652451936661237,F07I10,2021_Oct_14_1439,t1_Paradigm,2021.1.4,60.06723191056357,
S,left,Pretarget,0,45,45,45,1202.9515714318259,1204.9515691862125,left,1,2,0.6372818587515212,F07I10,2021_Oct_14_1439,t1_Paradigm,2021.1.4,60.06723191056357,
Z,left,Distractor,0,46,46,46,1206.451796153522,1208.4526575064901,left,1,2,0.7681664473984711,F07I10,2021_Oct_14_1439,t1_Paradigm,2021.1.4,60.06723191056357,
S,right,Target,0,47,47,47,1209.9518181284493,1211.964625500732,right,1,2,0.7601345314633363,F07I10,2021_Oct_14_1439,t1_Paradigm,2021.1.4,60.06723191056357,
C,left,Distractor,0,48,48,48,1213.4517114618338,1215.453865646261,left,1,2,0.6149694484356587,F07I10,2021_Oct_14_1439,t1_Paradigm,2021.1.4,60.06723191056357,
T,left,Pretarget,0,49,49,49,1216.951538389234,1218.9519101985788,left,1,2,0.8609862924586196,F07I10,2021_Oct_14_1439,t1_Paradigm,2021.1.4,60.06723191056357,
S,left,Lure,0,50,50,50,1220.4517801134298,1222.4520181484022,left,1,2,0.5447109559281671,F07I10,2021_Oct_14_1439,t1_Paradigm,2021.1.4,60.06723191056357,
T,right,Target,0,51,51,51,1223.951616344084,1225.952160103221,right,1,2,0.6128714043334185,F07I10,2021_Oct_14_1439,t1_Paradigm,2021.1.4,60.06723191056357,
N,left,Pretarget,0,52,52,52,1227.4518051359737,1229.4521422987182,left,1,2,0.5526405360742501,F07I10,2021_Oct_14_1439,t1_Paradigm,2021.1.4,60.06723191056357,
B,left,Distractor,0,53,53,53,1230.9516840332744,1232.9521312310553,left,1,2,0.9726022387476405,F07I10,2021_Oct_14_1439,t1_Paradigm,2021.1.4,60.06723191056357,
N,right,Target,0,54,54,54,1234.4516219581164,1236.4520062787342,right,1,2,0.6248049123751116,F07I10,2021_Oct_14_1439,t1_Paradigm,2021.1.4,60.06723191056357,
N,left,Lure,0,55,55,55,1237.9517700081706,1239.951838980569,None,0,2,,F07I10,2021_Oct_14_1439,t1_Paradigm,2021.1.4,60.06723191056357,
X,left,Distractor,0,56,56,56,1241.4518247048873,1243.4523857873228,left,1,2,0.8563985051914642,F07I10,2021_Oct_14_1439,t1_Paradigm,2021.1.4,60.06723191056357,
W,left,Distractor,0,57,57,57,1244.9517793114246,1246.9521145493582,left,1,2,0.8607983025722206,F07I10,2021_Oct_14_1439,t1_Paradigm,2021.1.4,60.06723191056357,
S,left,Distractor,0,58,58,58,1248.4517246147097,1250.452214158333,left,1,2,0.5606910585138394,F07I10,2021_Oct_14_1439,t1_Paradigm,2021.1.4,60.06723191056357,
L,left,Distractor,0,59,59,59,1251.951703602188,1253.9521960330294,left,1,2,0.7405899995155778,F07I10,2021_Oct_14_1439,t1_Paradigm,2021.1.4,60.06723191056357,
K,left,Pretarget,0,60,60,60,1255.4517473916403,1257.4528644236834,left,1,2,0.567985130192028,F07I10,2021_Oct_14_1439,t1_Paradigm,2021.1.4,60.06723191056357,
V,left,Pretarget,0,61,61,61,1258.951769045765,1260.9518242236827,left,1,2,0.4130737661416788,F07I10,2021_Oct_14_1439,t1_Paradigm,2021.1.4,60.06723191056357,
K,right,Target,0,62,62,62,1262.4520181484022,1264.451921587046,left,0,2,0.848931521317354,F07I10,2021_Oct_14_1439,t1_Paradigm,2021.1.4,60.06723191056357,
V,right,Target,0,63,63,63,1265.95159132154,1267.9519265594736,right,1,2,0.4529385289115453,F07I10,2021_Oct_14_1439,t1_Paradigm,2021.1.4,60.06723191056357,
R,left,Distractor,0,0,0,0,1318.4632090001596,1320.4516306197675,left,1,3,0.5611927926092903,F07I10,2021_Oct_14_1439,t1_Paradigm,2021.1.4,60.06723191056357,
P,left,Lure,0,1,1,1,1321.9514998930117,1323.9517244543076,left,1,3,0.3889725647040905,F07I10,2021_Oct_14_1439,t1_Paradigm,2021.1.4,60.06723191056357,
V,left,Distractor,0,2,2,2,1325.4515956523646,1327.4516193917025,left,1,3,0.4890261706932506,F07I10,2021_Oct_14_1439,t1_Paradigm,2021.1.4,60.06723191056357,
P,left,Pretarget,0,3,3,3,1328.9514751912702,1330.9517757826034,left,1,3,1.181196263683887,F07I10,2021_Oct_14_1439,t1_Paradigm,2021.1.4,60.06723191056357,
Z,left,Distractor,0,4,4,4,1332.4519347399219,1334.4521159929664,left,1,3,0.7526412418355903,F07I10,2021_Oct_14_1439,t1_Paradigm,2021.1.4,60.06723191056357,
L,left,Pretarget,0,5,5,5,1335.951579451872,1337.9522040530755,left,1,3,0.5005307666615408,F07I10,2021_Oct_14_1439,t1_Paradigm,2021.1.4,60.06723191056357,
P,right,Target,0,6,6,6,1339.4516248453328,1341.45204188774,right,1,3,0.6649535847827792,F07I10,2021_Oct_14_1439,t1_Paradigm,2021.1.4,60.06723191056357,
S,left,Distractor,0,7,7,7,1342.9516336673842,1344.9520394817246,left,1,3,0.348962478694375,F07I10,2021_Oct_14_1439,t1_Paradigm,2021.1.4,60.06723191056357,
L,right,Target,0,8,8,8,1346.451584103499,1348.4519873514255,left,0,3,0.7046961220494268,F07I10,2021_Oct_14_1439,t1_Paradigm,2021.1.4,60.06723191056357,
D,left,Distractor,0,9,9,9,1349.9516294969599,1351.9520956220495,left,1,3,0.4527383485565224,F07I10,2021_Oct_14_1439,t1_Paradigm,2021.1.4,60.06723191056357,
G,left,Distractor,0,10,10,10,1353.4516707199982,1355.4520736471222,left,1,3,0.9527073911795014,F07I10,2021_Oct_14_1439,t1_Paradigm,2021.1.4,60.06723191056357,
M,left,Pretarget,0,11,11,11,1356.9516211561113,1358.9523699076308,left,1,3,0.6202803230735299,F07I10,2021_Oct_14_1439,t1_Paradigm,2021.1.4,60.06723191056357,
Y,left,Distractor,0,12,12,12,1360.4516607751411,1362.453575641388,left,1,3,0.4953270398418681,F07I10,2021_Oct_14_1439,t1_Paradigm,2021.1.4,60.06723191056357,
V,left,Distractor,0,13,13,13,1363.9515085546627,1365.9514957225892,left,1,3,0.6293131407819601,F07I10,2021_Oct_14_1439,t1_Paradigm,2021.1.4,60.06723191056357,
M,right,Target,0,14,14,14,1367.451572875434,1369.451887902851,None,0,3,,F07I10,2021_Oct_14_1439,t1_Paradigm,2021.1.4,60.06723191056357,
S,left,Pretarget,0,15,15,15,1370.9517190006773,1372.9517052061965,left,1,3,1.1169900188924657,F07I10,2021_Oct_14_1439,t1_Paradigm,2021.1.4,60.06723191056357,
Q,left,Distractor,0,16,16,16,1374.4515205847329,1376.4516376774081,right,0,3,0.5771979177388857,F07I10,2021_Oct_14_1439,t1_Paradigm,2021.1.4,60.06723191056357,
R,left,Pretarget,0,17,17,17,1377.9513029206755,1379.9520106095588,left,1,3,0.6927946941941627,F07I10,2021_Oct_14_1439,t1_Paradigm,2021.1.4,60.06723191056357,
S,right,Target,0,18,18,18,1381.4516068804296,1383.4519312111006,left,0,3,0.8248020893188368,F07I10,2021_Oct_14_1439,t1_Paradigm,2021.1.4,60.06723191056357,
F,left,Distractor,0,19,19,19,1384.9516378378084,1386.9521835217565,left,1,3,0.8926272997887281,F07I10,2021_Oct_14_1439,t1_Paradigm,2021.1.4,60.06723191056357,
R,right,Target,0,20,20,20,1388.4515552313314,1390.4518622387022,left,0,3,0.9290030216325249,F07I10,2021_Oct_14_1439,t1_Paradigm,2021.1.4,60.06723191056357,
P,left,Distractor,0,21,21,21,1391.951595171162,1393.9519868702228,left,1,3,1.3007036146991595,F07I10,2021_Oct_14_1439,t1_Paradigm,2021.1.4,60.06723191056357,
L,left,Distractor,0,22,22,22,1395.452202288665,1397.4519013765293,right,0,3,1.0969848154854844,F07I10,2021_Oct_14_1439,t1_Paradigm,2021.1.4,60.06723191056357,
R,right,Target,0,23,23,23,1398.9515043842384,1400.9519105193813,left,0,3,0.9407754871463112,F07I10,2021_Oct_14_1439,t1_Paradigm,2021.1.4,60.06723191056357,
H,left,Pretarget,0,24,24,24,1402.4514403842695,1404.4519308902982,left,1,3,0.8489369749477191,F07I10,2021_Oct_14_1439,t1_Paradigm,2021.1.4,60.06723191056357,
G,left,Pretarget,0,25,25,25,1405.9516189104997,1407.952006118332,left,1,3,1.0607881010746496,F07I10,2021_Oct_14_1439,t1_Paradigm,2021.1.4,60.06723191056357,
T,left,Distractor,0,26,26,26,1409.4515738378395,1411.4517955119172,left,1,3,0.5690485883278598,F07I10,2021_Oct_14_1439,t1_Paradigm,2021.1.4,60.06723191056357,
H,right,Target,0,27,27,27,1412.951548975696,1414.9521822385486,right,1,3,0.3967218542093178,F07I10,2021_Oct_14_1439,t1_Paradigm,2021.1.4,60.06723191056357,
G,right,Target,0,28,28,28,1416.4514769556808,1418.4519985794886,left,0,3,1.3927204927258572,F07I10,2021_Oct_14_1439,t1_Paradigm,2021.1.4,60.06723191056357,
D,left,Distractor,0,29,29,29,1419.9515467300826,1421.9520818275705,None,0,3,,F07I10,2021_Oct_14_1439,t1_Paradigm,2021.1.4,60.06723191056357,
N,left,Pretarget,0,30,30,30,1423.4516498678786,1425.4519825393963,left,1,3,1.320650752970323,F07I10,2021_Oct_14_1439,t1_Paradigm,2021.1.4,60.06723191056357,
V,left,Distractor,0,31,31,31,1426.9515422388577,1428.95273016811,left,1,3,0.907945267355899,F07I10,2021_Oct_14_1439,t1_Paradigm,2021.1.4,60.06723191056357,
R,left,Distractor,0,32,32,32,1430.4514615571916,1432.4514705396432,left,1,3,0.48140263551613316,F07I10,2021_Oct_14_1439,t1_Paradigm,2021.1.4,60.06723191056357,
N,right,Target,0,33,33,33,1433.9515332564042,1435.9515749606453,right,1,3,0.4210341432626592,F07I10,2021_Oct_14_1439,t1_Paradigm,2021.1.4,60.06723191056357,
Z,left,Distractor,0,34,34,34,1437.4514990910084,1439.451943401571,left,1,3,0.6490629859144974,F07I10,2021_Oct_14_1439,t1_Paradigm,2021.1.4,60.06723191056357,
N,left,Lure,0,35,35,35,1440.9514613967913,1442.9515156123034,right,0,3,1.2292366616202344,F07I10,2021_Oct_14_1439,t1_Paradigm,2021.1.4,60.06723191056357,
Y,left,Pretarget,0,36,36,36,1444.4516225997213,1446.4519536672306,left,1,3,1.3447038341273583,F07I10,2021_Oct_14_1439,t1_Paradigm,2021.1.4,60.06723191056357,
Y,left,Lure,0,37,37,37,1447.9516201937058,1449.9514812865054,left,1,3,0.9813335027174617,F07I10,2021_Oct_14_1439,t1_Paradigm,2021.1.4,60.06723191056357,
B,left,Distractor,0,38,38,38,1451.4515901987343,1453.4520351509,left,1,3,0.7445849449613888,F07I10,2021_Oct_14_1439,t1_Paradigm,2021.1.4,60.06723191056357,
Y,right,Target,0,39,39,39,1454.9514305998127,1456.9518441133987,right,1,3,0.4608819035347551,F07I10,2021_Oct_14_1439,t1_Paradigm,2021.1.4,60.06723191056357,
J,left,Distractor,0,40,40,40,1458.4514705396432,1460.4510339283243,left,1,3,1.0576878719912202,F07I10,2021_Oct_14_1439,t1_Paradigm,2021.1.4,60.06723191056357,
X,left,Distractor,0,41,41,41,1461.9523689452253,1463.9518386597665,left,1,3,0.548953881205307,F07I10,2021_Oct_14_1439,t1_Paradigm,2021.1.4,60.06723191056357,
W,left,Pretarget,0,42,42,42,1465.451431401818,1467.4519498176087,left,1,3,0.7288775239485403,F07I10,2021_Oct_14_1439,t1_Paradigm,2021.1.4,60.06723191056357,
S,left,Pretarget,0,43,43,43,1468.9515310107927,1470.9518511710394,left,1,3,0.8608929391193669,F07I10,2021_Oct_14_1439,t1_Paradigm,2021.1.4,60.06723191056357,
R,left,Distractor,0,44,44,44,1472.451506148649,1474.451956554447,left,1,3,0.7046428689445747,F07I10,2021_Oct_14_1439,t1_Paradigm,2021.1.4,60.06723191056357,
W,right,Target,0,45,45,45,1475.9514893065516,1477.951827110901,None,0,3,,F07I10,2021_Oct_14_1439,t1_Paradigm,2021.1.4,60.06723191056357,
S,right,Target,0,46,46,46,1479.4515398328422,1481.4521695668755,None,0,3,,F07I10,2021_Oct_14_1439,t1_Paradigm,2021.1.4,60.06723191056357,
D,left,Distractor,0,47,47,47,1482.9515772062587,1484.9522223387794,left,1,3,1.2925449820340873,F07I10,2021_Oct_14_1439,t1_Paradigm,2021.1.4,60.06723191056357,
T,left,Distractor,0,48,48,48,1486.4516354317948,1488.4519344191194,left,1,3,0.8488500376461161,F07I10,2021_Oct_14_1439,t1_Paradigm,2021.1.4,60.06723191056357,
S,right,Target,0,49,49,49,1489.9515178579168,1491.9521193613855,left,0,3,1.3005788227801531,F07I10,2021_Oct_14_1439,t1_Paradigm,2021.1.4,60.06723191056357,
K,left,Distractor,0,50,50,50,1493.4515321335984,1495.4531781678943,left,1,3,0.7915891529191867,F07I10,2021_Oct_14_1439,t1_Paradigm,2021.1.4,60.06723191056357,
S,left,Lure,0,51,51,51,1496.9513991612312,1498.9519644140928,left,1,3,1.2287692533245718,F07I10,2021_Oct_14_1439,t1_Paradigm,2021.1.4,60.06723191056357,
T,left,Pretarget,0,52,52,52,1500.4515850659045,1502.4517846046547,left,1,3,1.3130965109921817,F07I10,2021_Oct_14_1439,t1_Paradigm,2021.1.4,60.06723191056357,
V,left,Distractor,0,53,53,53,1503.9515768854562,1505.9518245444851,None,0,3,,F07I10,2021_Oct_14_1439,t1_Paradigm,2021.1.4,60.06723191056357,
B,left,Distractor,0,54,54,54,1507.4514153617256,1509.4519450055795,left,1,3,0.360780498071108,F07I10,2021_Oct_14_1439,t1_Paradigm,2021.1.4,60.06723191056357,
T,right,Target,0,55,55,55,1510.9514177677393,1512.9538994908562,right,1,3,0.6988260897887812,F07I10,2021_Oct_14_1439,t1_Paradigm,2021.1.4,60.06723191056357,
Y,left,Pretarget,0,56,56,56,1514.4513694870602,1516.4517044041932,left,1,3,0.8971422650356544,F07I10,2021_Oct_14_1439,t1_Paradigm,2021.1.4,60.06723191056357,
T,left,Lure,0,57,57,57,1517.9514164845314,1519.9514819281085,left,1,3,1.173154723695916,F07I10,2021_Oct_14_1439,t1_Paradigm,2021.1.4,60.06723191056357,
P,left,Pretarget,0,58,58,58,1521.4514339682319,1523.4516960633446,left,1,3,0.7131097921883338,F07I10,2021_Oct_14_1439,t1_Paradigm,2021.1.4,60.06723191056357,
Y,right,Target,0,59,59,59,1524.951401086042,1526.9517854066598,right,1,3,1.1493618128370144,F07I10,2021_Oct_14_1439,t1_Paradigm,2021.1.4,60.06723191056357,
R,left,Distractor,0,60,60,60,1528.451384564747,1530.4518862988425,left,1,3,1.2650121632013906,F07I10,2021_Oct_14_1439,t1_Paradigm,2021.1.4,60.06723191056357,
P,right,Target,0,61,61,61,1531.9514713416484,1533.951926880276,left,0,3,0.7567545631645771,F07I10,2021_Oct_14_1439,t1_Paradigm,2021.1.4,60.06723191056357,
L,left,Distractor,0,62,62,62,1535.4516062388266,1537.451887902851,left,1,3,0.6489106050357805,F07I10,2021_Oct_14_1439,t1_Paradigm,2021.1.4,60.06723191056357,
V,left,Distractor,0,63,63,63,1538.9514867401376,1540.9522922735832,left,1,3,0.8764268063314375,F07I10,2021_Oct_14_1439,t1_Paradigm,2021.1.4,60.06723191056357,
H,left,Lure,0,0,0,0,1630.2174000357372,1632.2020191910087,left,1,3,0.3945416848328023,F07I10,2021_Oct_14_1439,t1_Paradigm,2021.1.4,60.06723191056357,
B,left,Distractor,0,1,1,1,1633.7015824192895,1635.702782859813,left,1,3,0.462034223783121,F07I10,2021_Oct_14_1439,t1_Paradigm,2021.1.4,60.06723191056357,
T,left,Distractor,0,2,2,2,1637.2013451863204,1639.2012803843463,left,1,3,0.41934704632876674,F07I10,2021_Oct_14_1439,t1_Paradigm,2021.1.4,60.06723191056357,
R,left,Distractor,0,3,3,3,1640.7015150508996,1642.7018429103919,left,1,3,0.5666868451025948,F07I10,2021_Oct_14_1439,t1_Paradigm,2021.1.4,60.06723191056357,
H,left,Pretarget,0,4,4,4,1644.2016326247776,1646.2017272613248,left,1,3,0.5547988909238484,F07I10,2021_Oct_14_1439,t1_Paradigm,2021.1.4,60.06723191056357,
K,left,Distractor,0,5,5,5,1647.701554188725,1649.7018544592574,left,1,3,0.7348271150713117,F07I10,2021_Oct_14_1439,t1_Paradigm,2021.1.4,60.06723191056357,
G,left,Distractor,0,6,6,6,1651.2016701585944,1653.201833125935,left,1,3,0.8188335708855448,F07I10,2021_Oct_14_1439,t1_Paradigm,2021.1.4,60.06723191056357,
H,right,Target,0,7,7,7,1654.7015711912245,1656.7017473114392,None,0,3,,F07I10,2021_Oct_14_1439,t1_Paradigm,2021.1.4,60.06723191056357,
Y,left,Pretarget,0,8,8,8,1658.2015617275702,1660.2021564942006,left,1,3,0.5063751347770449,F07I10,2021_Oct_14_1439,t1_Paradigm,2021.1.4,60.06723191056357,
S,left,Distractor,0,9,9,9,1661.7013520835608,1663.7017700883716,left,1,3,0.7028242432515981,F07I10,2021_Oct_14_1439,t1_Paradigm,2021.1.4,60.06723191056357,
P,left,Distractor,0,10,10,10,1665.2015139280938,1667.2016938979323,left,1,3,0.7228336170828698,F07I10,2021_Oct_14_1439,t1_Paradigm,2021.1.4,60.06723191056357,
Y,right,Target,0,11,11,11,1668.7015426398593,1670.7018287951105,right,1,3,1.0629406814914546,F07I10,2021_Oct_14_1439,t1_Paradigm,2021.1.4,60.06723191056357,
H,left,Lure,0,12,12,12,1672.2015642939841,1674.2020830305773,left,1,3,1.2425935674727953,F07I10,2021_Oct_14_1439,t1_Paradigm,2021.1.4,60.06723191056357,
Q,left,Distractor,0,13,13,13,1675.7015484142921,1677.7018207750643,None,0,3,,F07I10,2021_Oct_14_1439,t1_Paradigm,2021.1.4,60.06723191056357,
V,left,Pretarget,0,14,14,14,1679.2019745995512,1681.201656043313,left,1,3,0.6749298807353625,F07I10,2021_Oct_14_1439,t1_Paradigm,2021.1.4,60.06723191056357,
G,left,Distractor,0,15,15,15,1682.7015140884942,1684.7019353013238,left,1,3,0.58282638620949,F07I10,2021_Oct_14_1439,t1_Paradigm,2021.1.4,60.06723191056357,
Z,left,Pretarget,0,16,16,16,1686.2014584293738,1688.2017426598122,left,1,3,0.570804336855872,F07I10,2021_Oct_14_1439,t1_Paradigm,2021.1.4,60.06723191056357,
V,right,Target,0,17,17,17,1689.7015275621725,1691.7018233414783,left,0,3,0.7348072253553255,F07I10,2021_Oct_14_1439,t1_Paradigm,2021.1.4,60.06723191056357,
N,left,Distractor,0,18,18,18,1693.2014455972985,1695.2014481637143,left,1,3,1.379231737311784,F07I10,2021_Oct_14_1439,t1_Paradigm,2021.1.4,60.06723191056357,
Z,right,Target,0,19,19,19,1696.70157215363,1698.7036416463689,right,1,3,0.6451225767832511,F07I10,2021_Oct_14_1439,t1_Paradigm,2021.1.4,60.06723191056357,
R,left,Distractor,0,20,20,20,1700.201356735186,1702.2014712614473,None,0,3,,F07I10,2021_Oct_14_1439,t1_Paradigm,2021.1.4,60.06723191056357,
P,left,Distractor,0,21,21,21,1703.7014569857656,1705.701416885533,None,0,3,,F07I10,2021_Oct_14_1439,t1_Paradigm,2021.1.4,60.06723191056357,
Z,right,Target,0,22,22,22,1707.2014359732439,1709.201301236466,right,1,3,0.9314747998905659,F07I10,2021_Oct_14_1439,t1_Paradigm,2021.1.4,60.06723191056357,
D,left,Pretarget,0,23,23,23,1710.7013238529962,1712.7017598227121,left,1,3,0.5348896072700882,F07I10,2021_Oct_14_1439,t1_Paradigm,2021.1.4,60.06723191056357,
K,left,Distractor,0,24,24,24,1714.201508153661,1716.2018677725355,left,1,3,0.7149252098606667,F07I10,2021_Oct_14_1439,t1_Paradigm,2021.1.4,60.06723191056357,
W,left,Distractor,0,25,25,25,1717.7014893867527,1719.7026962433138,left,1,3,0.8620783019578084,F07I10,2021_Oct_14_1439,t1_Paradigm,2021.1.4,60.06723191056357,
D,right,Target,0,26,26,26,1721.2015274017722,1723.2018895870606,left,0,3,0.40267914457399456,F07I10,2021_Oct_14_1439,t1_Paradigm,2021.1.4,60.06723191056357,
G,left,Pretarget,0,27,27,27,1724.7015086348638,1726.701998178487,left,1,3,0.6147679848727421,F07I10,2021_Oct_14_1439,t1_Paradigm,2021.1.4,60.06723191056357,
V,left,Distractor,0,28,28,28,1728.2015020584258,1730.2036097265845,left,1,3,0.4889254389145208,F07I10,2021_Oct_14_1439,t1_Paradigm,2021.1.4,60.06723191056357,
D,right,Target,0,29,29,29,1731.7014890659502,1733.7014194519488,left,0,3,0.575152164337851,F07I10,2021_Oct_14_1439,t1_Paradigm,2021.1.4,60.06723191056357,
G,right,Target,0,30,30,30,1735.2016967851487,1737.2034239823115,left,0,3,0.8491859171826945,F07I10,2021_Oct_14_1439,t1_Paradigm,2021.1.4,60.06723191056357,
B,left,Pretarget,0,31,31,31,1738.7013755020944,1740.7015089556644,left,1,3,0.7271355698994739,F07I10,2021_Oct_14_1439,t1_Paradigm,2021.1.4,60.06723191056357,
N,left,Distractor,0,32,32,32,1742.2012989908544,1744.20134358231,left,1,3,0.47519127008308715,F07I10,2021_Oct_14_1439,t1_Paradigm,2021.1.4,60.06723191056357,
F,left,Distractor,0,33,33,33,1745.7014797626962,1747.7016234819257,left,1,3,0.6548438352638186,F07I10,2021_Oct_14_1439,t1_Paradigm,2021.1.4,60.06723191056357,
B,right,Target,0,34,34,34,1749.2013374870749,1751.2016021486033,right,1,3,0.9948893057171517,F07I10,2021_Oct_14_1439,t1_Paradigm,2021.1.4,60.06723191056357,
Q,left,Pretarget,0,35,35,35,1752.701356895588,1754.7015243541537,left,1,3,1.079391079591005,F07I10,2021_Oct_14_1439,t1_Paradigm,2021.1.4,60.06723191056357,
S,left,Pretarget,0,36,36,36,1756.2013432615095,1758.2016714418023,left,1,3,0.8108953290920908,F07I10,2021_Oct_14_1439,t1_Paradigm,2021.1.4,60.06723191056357,
W,left,Distractor,0,37,37,37,1759.7013661988422,1761.7015525847164,left,1,3,0.6549840256720927,F07I10,2021_Oct_14_1439,t1_Paradigm,2021.1.4,60.06723191056357,
Q,right,Target,0,38,38,38,1763.2017420182092,1765.2036199922422,left,0,3,0.592910150779062,F07I10,2021_Oct_14_1439,t1_Paradigm,2021.1.4,60.06723191056357,
S,right,Target,0,39,39,39,1766.7015657375923,1768.7033333557902,right,1,3,1.029428757767164,F07I10,2021_Oct_14_1439,t1_Paradigm,2021.1.4,60.06723191056357,
T,left,Distractor,0,40,40,40,1770.2013955522107,1772.2012534369915,left,1,3,0.7474760112399963,F07I10,2021_Oct_14_1439,t1_Paradigm,2021.1.4,60.06723191056357,
G,left,Distractor,0,41,41,41,1773.7015785696658,1775.702197717239,left,1,3,0.5903504728139524,F07I10,2021_Oct_14_1439,t1_Paradigm,2021.1.4,60.06723191056357,
D,left,Distractor,0,42,42,42,1777.2014292364056,1779.203012714339,left,1,3,0.5136477127307444,F07I10,2021_Oct_14_1439,t1_Paradigm,2021.1.4,60.06723191056357,
S,left,Lure,0,43,43,43,1780.7014354920411,1782.7023026194438,left,1,3,0.45419863858114695,F07I10,2021_Oct_14_1439,t1_Paradigm,2021.1.4,60.06723191056357,
Z,left,Pretarget,0,44,44,44,1784.201455862958,1786.2023393512554,left,1,3,0.6021575849263172,F07I10,2021_Oct_14_1439,t1_Paradigm,2021.1.4,60.06723191056357,
J,left,Distractor,0,45,45,45,1787.7015121636832,1789.70213227366,left,1,3,1.0223342248427798,F07I10,2021_Oct_14_1439,t1_Paradigm,2021.1.4,60.06723191056357,
M,left,Pretarget,0,46,46,46,1791.2015062288483,1793.2018645645167,left,1,3,1.1066887506658531,F07I10,2021_Oct_14_1439,t1_Paradigm,2021.1.4,60.06723191056357,
Z,right,Target,0,47,47,47,1794.701259692627,1796.7017348001682,right,1,3,0.7747958176423708,F07I10,2021_Oct_14_1439,t1_Paradigm,2021.1.4,60.06723191056357,
P,left,Distractor,0,48,48,48,1798.2014603541847,1800.201745867831,left,1,3,0.986867976243957,F07I10,2021_Oct_14_1439,t1_Paradigm,2021.1.4,60.06723191056357,
M,right,Target,0,49,49,49,1801.7014210559573,1803.7018230206759,left,0,3,0.7187745112660195,F07I10,2021_Oct_14_1439,t1_Paradigm,2021.1.4,60.06723191056357,
K,left,Distractor,0,50,50,50,1805.2014561837605,1807.2016153014793,left,1,3,0.7708672781809582,F07I10,2021_Oct_14_1439,t1_Paradigm,2021.1.4,60.06723191056357,
Y,left,Distractor,0,51,51,51,1808.7014900283557,1810.7016764142318,left,1,3,0.8069279726059904,F07I10,2021_Oct_14_1439,t1_Paradigm,2021.1.4,60.06723191056357,
X,left,Distractor,0,52,52,52,1812.2183470428008,1814.2031715112553,left,1,3,0.6653164116760308,F07I10,2021_Oct_14_1439,t1_Paradigm,2021.1.4,60.06723191056357,
F,left,Pretarget,0,53,53,53,1815.7013617076154,1817.7016728854105,left,1,3,0.20680619622362428,F07I10,2021_Oct_14_1439,t1_Paradigm,2021.1.4,60.06723191056357,
M,left,Lure,0,54,54,54,1819.2014555421574,1821.2015322137995,right,0,3,0.7389154138545564,F07I10,2021_Oct_14_1439,t1_Paradigm,2021.1.4,60.06723191056357,
V,left,Distractor,0,55,55,55,1822.7014037326571,1824.701484895526,left,1,3,1.1431183672211773,F07I10,2021_Oct_14_1439,t1_Paradigm,2021.1.4,60.06723191056357,
F,right,Target,0,56,56,56,1826.2011029809237,1828.2012489457647,left,0,3,1.0193315195210744,F07I10,2021_Oct_14_1439,t1_Paradigm,2021.1.4,60.06723191056357,
S,left,Distractor,0,57,57,57,1829.7014021286486,1831.7016873214943,left,1,3,0.766818758824229,F07I10,2021_Oct_14_1439,t1_Paradigm,2021.1.4,60.06723191056357,
D,left,Distractor,0,58,58,58,1833.201453938147,1835.2018607148948,left,1,3,0.6268586858222989,F07I10,2021_Oct_14_1439,t1_Paradigm,2021.1.4,60.06723191056357,
F,right,Target,0,59,59,59,1836.7014271511925,1838.701786128464,left,0,3,0.31069498833858233,F07I10,2021_Oct_14_1439,t1_Paradigm,2021.1.4,60.06723191056357,
V,left,Pretarget,0,60,60,60,1840.2014526549392,1842.2019627298832,left,1,3,1.2905325920237374,F07I10,2021_Oct_14_1439,t1_Paradigm,2021.1.4,60.06723191056357,
J,left,Distractor,0,61,61,61,1843.701391862989,1845.7034244635142,left,1,3,0.7331698527104891,F07I10,2021_Oct_14_1439,t1_Paradigm,2021.1.4,60.06723191056357,
V,left,Lure,0,62,62,62,1847.202034589498,1849.201824464286,left,1,3,1.010684947239497,F07I10,2021_Oct_14_1439,t1_Paradigm,2021.1.4,60.06723191056357,
V,right,Target,0,63,63,63,1850.701493557177,1852.701259692627,left,0,3,1.047424458382011,F07I10,2021_Oct_14_1439,t1_Paradigm,2021.1.4,60.06723191056357,
R,left,Distractor,0,0,0,0,1966.695883374412,1968.6843187884988,left,1,4,0.36019310988194775,F07I10,2021_Oct_14_1439,t1_Paradigm,2021.1.4,60.06723191056357,
F,left,Distractor,0,1,1,1,1970.1843356305963,1972.1842814150823,left,1,4,0.38027883455288247,F07I10,2021_Oct_14_1439,t1_Paradigm,2021.1.4,60.06723191056357,
P,left,Pretarget,0,2,2,2,1973.6844175954684,1975.6846136053991,left,1,4,0.5277562573191972,F07I10,2021_Oct_14_1439,t1_Paradigm,2021.1.4,60.06723191056357,
H,left,Distractor,0,3,3,3,1977.1844363623768,1979.1863133740044,left,1,4,0.7540543739887653,F07I10,2021_Oct_14_1439,t1_Paradigm,2021.1.4,60.06723191056357,
Z,left,Distractor,0,4,4,4,1980.6845401417759,1982.6844224074957,left,1,4,0.6164095279436879,F07I10,2021_Oct_14_1439,t1_Paradigm,2021.1.4,60.06723191056357,
T,left,Distractor,0,5,5,5,1984.1844822370404,1986.1845874600476,left,1,4,0.4758546883113013,F07I10,2021_Oct_14_1439,t1_Paradigm,2021.1.4,60.06723191056357,
P,right,Target,0,6,6,6,1987.684419199477,1989.6847210740198,left,0,4,0.38370146949637274,F07I10,2021_Oct_14_1439,t1_Paradigm,2021.1.4,60.06723191056357,
G,left,Distractor,0,7,7,7,1991.1845014851515,1993.1846304474966,left,1,4,1.0917929583338264,F07I10,2021_Oct_14_1439,t1_Paradigm,2021.1.4,60.06723191056357,
L,left,Distractor,0,8,8,8,1994.684425936317,1996.6850328934179,left,1,4,0.6476363800848048,F07I10,2021_Oct_14_1439,t1_Paradigm,2021.1.4,60.06723191056357,
P,left,Lure,0,9,9,9,1998.1845585878818,2000.1850622467864,None,0,4,,F07I10,2021_Oct_14_1439,t1_Paradigm,2021.1.4,60.06723191056357,
Q,left,Pretarget,0,10,10,10,2001.6846992594928,2003.6852722115982,left,1,4,1.167136801777815,F07I10,2021_Oct_14_1439,t1_Paradigm,2021.1.4,60.06723191056357,
D,left,Distractor,0,11,11,11,2005.1846224274504,2007.1853756701948,left,1,4,0.9792341754055087,F07I10,2021_Oct_14_1439,t1_Paradigm,2021.1.4,60.06723191056357,
M,left,Pretarget,0,12,12,12,2008.684596282099,2010.6854954896862,left,1,4,1.0952101396487706,F07I10,2021_Oct_14_1439,t1_Paradigm,2021.1.4,60.06723191056357,
C,left,Distractor,0,13,13,13,2012.1845492846278,2014.1850654548052,left,1,4,0.7954544944168447,F07I10,2021_Oct_14_1439,t1_Paradigm,2021.1.4,60.06723191056357,
Q,right,Target,0,14,14,14,2015.684562597904,2017.6849382568726,left,0,4,0.8956239098752121,F07I10,2021_Oct_14_1439,t1_Paradigm,2021.1.4,60.06723191056357,
R,left,Distractor,0,15,15,15,2019.1846192194316,2021.184935850857,left,1,4,0.7874206536725978,F07I10,2021_Oct_14_1439,t1_Paradigm,2021.1.4,60.06723191056357,
M,right,Target,0,16,16,16,2022.6845318009273,2024.6852160712751,left,0,4,0.7271650836701156,F07I10,2021_Oct_14_1439,t1_Paradigm,2021.1.4,60.06723191056357,
S,left,Distractor,0,17,17,17,2026.1846095953752,2028.1850651340046,left,1,4,0.6673198192347627,F07I10,2021_Oct_14_1439,t1_Paradigm,2021.1.4,60.06723191056357,
Z,left,Distractor,0,18,18,18,2029.6843120516587,2031.6847932544351,left,1,4,0.2555606990772503,F07I10,2021_Oct_14_1439,t1_Paradigm,2021.1.4,60.06723191056357,
L,left,Pretarget,0,19,19,19,2033.1843872796926,2035.1849355300565,left,1,4,0.2914555389488669,F07I10,2021_Oct_14_1439,t1_Paradigm,2021.1.4,60.06723191056357,
M,right,Target,0,20,20,20,2036.6844779062158,2038.6846373447352,left,0,4,1.2557047391092055,F07I10,2021_Oct_14_1439,t1_Paradigm,2021.1.4,60.06723191056357,
P,left,Distractor,0,21,21,21,2040.1845643623146,2042.184690758244,left,1,4,0.7479321914706816,F07I10,2021_Oct_14_1439,t1_Paradigm,2021.1.4,60.06723191056357,
F,left,Distractor,0,22,22,22,2043.68456003149,2045.7010633618938,left,1,4,0.4474938799030497,F07I10,2021_Oct_14_1439,t1_Paradigm,2021.1.4,60.06723191056357,
L,right,Target,0,23,23,23,2047.1847180264012,2049.1866932033954,right,1,4,0.9459301312817843,F07I10,2021_Oct_14_1439,t1_Paradigm,2021.1.4,60.06723191056357,
L,left,Lure,0,24,24,24,2050.684472773386,2052.6844557708882,left,1,4,1.2398250475034729,F07I10,2021_Oct_14_1439,t1_Paradigm,2021.1.4,60.06723191056357,
V,left,Pretarget,0,25,25,25,2054.184590988869,2056.1851171039034,left,1,4,0.7154423424435663,F07I10,2021_Oct_14_1439,t1_Paradigm,2021.1.4,60.06723191056357,
Z,left,Distractor,0,26,26,26,2057.6845802420066,2059.6863459353917,left,1,4,0.5422334032373328,F07I10,2021_Oct_14_1439,t1_Paradigm,2021.1.4,60.06723191056357,
H,left,Distractor,0,27,27,27,2061.1843529538946,2063.185061284381,left,1,4,0.5794557211629581,F07I10,2021_Oct_14_1439,t1_Paradigm,2021.1.4,60.06723191056357,
X,left,Distractor,0,28,28,28,2064.684404763395,2066.6850136453068,left,1,4,0.9674588226771448,F07I10,2021_Oct_14_1439,t1_Paradigm,2021.1.4,60.06723191056357,
V,right,Target,0,29,29,29,2068.18458778085,2070.185058717967,right,1,4,0.4753513502073474,F07I10,2021_Oct_14_1439,t1_Paradigm,2021.1.4,60.06723191056357,
C,left,Distractor,0,30,30,30,2071.684462828529,2073.685141966047,left,1,4,0.639205386649337,F07I10,2021_Oct_14_1439,t1_Paradigm,2021.1.4,60.06723191056357,
S,left,Pretarget,0,31,31,31,2075.18445946011,2077.1851844722914,left,1,4,0.3071879825056385,F07I10,2021_Oct_14_1439,t1_Paradigm,2021.1.4,60.06723191056357,
D,left,Distractor,0,32,32,32,2078.6842783674656,2080.6850062668636,left,1,4,0.4073820997055009,F07I10,2021_Oct_14_1439,t1_Paradigm,2021.1.4,60.06723191056357,
V,left,Distractor,0,33,33,33,2082.1845014851515,2084.185002577642,left,1,4,0.5394684120856255,F07I10,2021_Oct_14_1439,t1_Paradigm,2021.1.4,60.06723191056357,
R,left,Distractor,0,34,34,34,2085.684460903718,2087.685028402191,left,1,4,0.6873211730180628,F07I10,2021_Oct_14_1439,t1_Paradigm,2021.1.4,60.06723191056357,
S,right,Target,0,35,35,35,2089.184526828498,2091.185133464798,left,0,4,0.6111920066432504,F07I10,2021_Oct_14_1439,t1_Paradigm,2021.1.4,60.06723191056357,
Y,left,Distractor,0,36,36,36,2092.684412783441,2094.684982848328,left,1,4,0.455358337270809,F07I10,2021_Oct_14_1439,t1_Paradigm,2021.1.4,60.06723191056357,
N,left,Pretarget,0,37,37,37,2096.1847167431933,2098.1854873092398,left,1,4,0.3950639502454578,F07I10,2021_Oct_14_1439,t1_Paradigm,2021.1.4,60.06723191056357,
Z,left,Pretarget,0,38,38,38,2099.684314297272,2101.6846521016214,left,1,4,0.8319040006881551,F07I10,2021_Oct_14_1439,t1_Paradigm,2021.1.4,60.06723191056357,
P,left,Pretarget,0,39,39,39,2103.1843879212975,2105.184604783348,left,1,4,0.6277200387903576,F07I10,2021_Oct_14_1439,t1_Paradigm,2021.1.4,60.06723191056357,
M,left,Distractor,0,40,40,40,2106.684417916271,2108.684634778321,left,1,4,0.6319279966664908,F07I10,2021_Oct_14_1439,t1_Paradigm,2021.1.4,60.06723191056357,
N,right,Target,0,41,41,41,2110.184355199508,2112.1848931842123,right,1,4,0.6676172025509004,F07I10,2021_Oct_14_1439,t1_Paradigm,2021.1.4,60.06723191056357,
Z,right,Target,0,42,42,42,2113.684435881174,2115.6850319310124,right,1,4,0.6874353784769482,F07I10,2021_Oct_14_1439,t1_Paradigm,2021.1.4,60.06723191056357,
P,right,Target,0,43,43,43,2117.1844716505802,2119.1847164223927,right,1,4,0.6438358405594045,F07I10,2021_Oct_14_1439,t1_Paradigm,2021.1.4,60.06723191056357,
X,left,Pretarget,0,44,44,44,2120.6844249739115,2122.684833354666,left,1,4,0.6477621344092768,F07I10,2021_Oct_14_1439,t1_Paradigm,2021.1.4,60.06723191056357,
Z,left,Lure,0,45,45,45,2124.184453044072,2126.1848402519063,left,1,4,0.9874755749497126,F07I10,2021_Oct_14_1439,t1_Paradigm,2021.1.4,60.06723191056357,
R,left,Pretarget,0,46,46,46,2127.684378457643,2129.6865842911666,left,1,4,0.7018672913309274,F07I10,2021_Oct_14_1439,t1_Paradigm,2021.1.4,60.06723191056357,
K,left,Distractor,0,47,47,47,2131.184321515315,2133.1845133548213,left,1,4,0.7877761021227343,F07I10,2021_Oct_14_1439,t1_Paradigm,2021.1.4,60.06723191056357,
X,right,Target,0,48,48,48,2134.6844256155146,2136.6846999010977,right,1,4,0.5836479597492144,F07I10,2021_Oct_14_1439,t1_Paradigm,2021.1.4,60.06723191056357,
B,left,Distractor,0,49,49,49,2138.1843568035183,2140.184637825938,left,1,4,0.6677878691334627,F07I10,2021_Oct_14_1439,t1_Paradigm,2021.1.4,60.06723191056357,
R,right,Target,0,50,50,50,2141.684363059154,2143.6845417457844,right,1,4,0.5277431044451077,F07I10,2021_Oct_14_1439,t1_Paradigm,2021.1.4,60.06723191056357,
Y,left,Pretarget,0,51,51,51,2145.184169776039,2147.1864416947446,left,1,4,0.5941901501646498,F07I10,2021_Oct_14_1439,t1_Paradigm,2021.1.4,60.06723191056357,
W,left,Pretarget,0,52,52,52,2148.6843787784437,2150.684560673093,left,1,4,0.8397620420182648,F07I10,2021_Oct_14_1439,t1_Paradigm,2021.1.4,60.06723191056357,
Z,left,Distractor,0,53,53,53,2152.184373806016,2154.184700703101,left,1,4,0.6037417044644826,F07I10,2021_Oct_14_1439,t1_Paradigm,2021.1.4,60.06723191056357,
Q,left,Distractor,0,54,54,54,2155.684341244627,2157.684651139216,left,1,4,0.6716368497382064,F07I10,2021_Oct_14_1439,t1_Paradigm,2021.1.4,60.06723191056357,
Y,right,Target,0,55,55,55,2159.184317024088,2161.184639429948,left,0,4,1.2357890394196147,F07I10,2021_Oct_14_1439,t1_Paradigm,2021.1.4,60.06723191056357,
W,right,Target,0,56,56,56,2162.6849507681436,2164.684482718243,left,0,4,0.8238438541902724,F07I10,2021_Oct_14_1439,t1_Paradigm,2021.1.4,60.06723191056357,
H,left,Pretarget,0,57,57,57,2166.1842993799855,2168.1846384675428,left,1,4,0.7798385019323177,F07I10,2021_Oct_14_1439,t1_Paradigm,2021.1.4,60.06723191056357,
M,left,Distractor,0,58,58,58,2169.6844214450903,2171.6847037507196,left,1,4,0.6395925944816554,F07I10,2021_Oct_14_1439,t1_Paradigm,2021.1.4,60.06723191056357,
R,left,Pretarget,0,59,59,59,2173.1844758210045,2175.1848636704417,left,1,4,0.6595641136937047,F07I10,2021_Oct_14_1439,t1_Paradigm,2021.1.4,60.06723191056357,
J,left,Distractor,0,60,60,60,2176.6844124626386,2178.68530365018,left,1,4,0.3432188423612388,F07I10,2021_Oct_14_1439,t1_Paradigm,2021.1.4,60.06723191056357,
H,right,Target,0,61,61,61,2180.1843231193234,2182.1846724725383,left,0,4,0.571570411675566,F07I10,2021_Oct_14_1439,t1_Paradigm,2021.1.4,60.06723191056357,
Z,left,Distractor,0,62,62,62,2183.684314938877,2185.684808332122,left,1,4,1.1036411330842384,F07I10,2021_Oct_14_1439,t1_Paradigm,2021.1.4,60.06723191056357,
R,right,Target,0,63,63,63,2187.184509184397,2189.1849627982137,left,0,4,0.41937238967511803,F07I10,2021_Oct_14_1439,t1_Paradigm,2021.1.4,60.06723191056357,
J,left,Pretarget,0,0,0,0,2210.0214176939553,2212.0200873286794,left,1,4,0.5603808431260404,F07I10,2021_Oct_14_1439,t1_Paradigm,2021.1.4,60.06723191056357,
G,left,Pretarget,0,1,1,1,2213.517581705826,2215.517898658054,left,1,4,0.4383590472061769,F07I10,2021_Oct_14_1439,t1_Paradigm,2021.1.4,60.06723191056357,
Z,left,Distractor,0,2,2,2,2217.017580262216,2219.0179007432653,left,1,4,0.6827045135851222,F07I10,2021_Oct_14_1439,t1_Paradigm,2021.1.4,60.06723191056357,
F,left,Distractor,0,3,3,3,2220.517702327321,2222.5178553498044,left,1,4,0.6064653121775336,F07I10,2021_Oct_14_1439,t1_Paradigm,2021.1.4,60.06723191056357,
J,right,Target,0,4,4,4,2224.0177490039896,2226.0178657758643,right,1,4,0.49863514852586377,F07I10,2021_Oct_14_1439,t1_Paradigm,2021.1.4,60.06723191056357,
G,right,Target,0,5,5,5,2227.51755636248,2229.5195212738145,right,1,4,0.5328682348099392,F07I10,2021_Oct_14_1439,t1_Paradigm,2021.1.4,60.06723191056357,
H,left,Distractor,0,6,6,6,2231.017794237052,2233.0179809437286,left,1,4,0.7145761774481798,F07I10,2021_Oct_14_1439,t1_Paradigm,2021.1.4,60.06723191056357,
P,left,Distractor,0,7,7,7,2234.5176327133195,2236.5178534249935,left,1,4,0.7828800242768921,F07I10,2021_Oct_14_1439,t1_Paradigm,2021.1.4,60.06723191056357,
G,left,Lure,0,8,8,8,2238.01776632729,2240.017841074121,left,1,4,1.1705603991285898,F07I10,2021_Oct_14_1439,t1_Paradigm,2021.1.4,60.06723191056357,
S,left,Distractor,0,9,9,9,2241.518707078718,2243.51804013167,left,1,4,1.062537112764403,F07I10,2021_Oct_14_1439,t1_Paradigm,2021.1.4,60.06723191056357,
R,left,Pretarget,0,10,10,10,2245.0177214150317,2247.018551329418,left,1,4,1.1459949974159827,F07I10,2021_Oct_14_1439,t1_Paradigm,2021.1.4,60.06723191056357,
T,left,Pretarget,0,11,11,11,2248.5177655252864,2250.518142467461,left,1,4,1.2941287807698245,F07I10,2021_Oct_14_1439,t1_Paradigm,2021.1.4,60.06723191056357,
X,left,Distractor,0,12,12,12,2252.0177066581455,2254.0182042218166,left,1,4,0.8982981141016353,F07I10,2021_Oct_14_1439,t1_Paradigm,2021.1.4,60.06723191056357,
F,left,Pretarget,0,13,13,13,2255.517812041555,2257.518386918471,left,1,4,0.6141510829147592,F07I10,2021_Oct_14_1439,t1_Paradigm,2021.1.4,60.06723191056357,
R,right,Target,0,14,14,14,2259.017711149372,2261.0181519311154,right,1,4,0.8425850983057899,F07I10,2021_Oct_14_1439,t1_Paradigm,2021.1.4,60.06723191056357,
T,right,Target,0,15,15,15,2262.517635600536,2264.520326807262,right,1,4,1.2759428446588572,F07I10,2021_Oct_14_1439,t1_Paradigm,2021.1.4,60.06723191056357,
C,left,Distractor,0,16,16,16,2266.0176771443766,2268.01783914931,left,1,4,0.5466383334460261,F07I10,2021_Oct_14_1439,t1_Paradigm,2021.1.4,60.06723191056357,
F,right,Target,0,17,17,17,2269.517575610591,2271.5178864675836,right,1,4,0.9024595557093562,F07I10,2021_Oct_14_1439,t1_Paradigm,2021.1.4,60.06723191056357,
M,left,Distractor,0,18,18,18,2273.0176120216,2275.017996983821,left,1,4,0.9062421303297015,F07I10,2021_Oct_14_1439,t1_Paradigm,2021.1.4,60.06723191056357,
N,left,Distractor,0,19,19,19,2276.5177498059948,2278.517835139288,left,1,4,0.8306560814889963,F07I10,2021_Oct_14_1439,t1_Paradigm,2021.1.4,60.06723191056357,
R,left,Lure,0,20,20,20,2280.0176466682005,2282.0180925827717,left,1,4,0.5941644860158704,F07I10,2021_Oct_14_1439,t1_Paradigm,2021.1.4,60.06723191056357,
F,right,Target,0,21,21,21,2283.5177231794423,2285.5183105676297,left,0,4,0.2622202246966481,F07I10,2021_Oct_14_1439,t1_Paradigm,2021.1.4,60.06723191056357,
P,left,Distractor,0,22,22,22,2287.0177002421096,2289.0183258057186,left,1,4,0.9219030350741377,F07I10,2021_Oct_14_1439,t1_Paradigm,2021.1.4,60.06723191056357,
L,left,Pretarget,0,23,23,23,2290.517777715757,2292.5183054348,left,1,4,0.7340764387408854,F07I10,2021_Oct_14_1439,t1_Paradigm,2021.1.4,60.06723191056357,
T,left,Distractor,0,24,24,24,2294.0176453849926,2296.0197902661657,left,1,4,0.6884645108129916,F07I10,2021_Oct_14_1439,t1_Paradigm,2021.1.4,60.06723191056357,
F,left,Distractor,0,25,25,25,2297.5177979262735,2299.5198286019877,left,1,4,1.0126841843721195,F07I10,2021_Oct_14_1439,t1_Paradigm,2021.1.4,60.06723191056357,
V,left,Distractor,0,26,26,26,2301.017598547922,2303.01770569574,left,1,4,0.6830673404801928,F07I10,2021_Oct_14_1439,t1_Paradigm,2021.1.4,60.06723191056357,
L,right,Target,0,27,27,27,2304.517422267305,2306.5175258863037,left,0,4,0.6226398206836166,F07I10,2021_Oct_14_1439,t1_Paradigm,2021.1.4,60.06723191056357,
S,left,Pretarget,0,28,28,28,2308.0174464878455,2310.01782182601,left,1,4,0.8185400371949072,F07I10,2021_Oct_14_1439,t1_Paradigm,2021.1.4,60.06723191056357,
W,left,Distractor,0,29,29,29,2311.517734086705,2313.518137655432,left,1,4,0.7262325126903306,F07I10,2021_Oct_14_1439,t1_Paradigm,2021.1.4,60.06723191056357,
Q,left,Distractor,0,30,30,30,2315.0175651845293,2317.018159630359,left,1,4,0.47412299992174667,F07I10,2021_Oct_14_1439,t1_Paradigm,2021.1.4,60.06723191056357,
L,right,Target,0,31,31,31,2318.5179419663036,2320.518285865888,right,1,4,0.4939835216919164,F07I10,2021_Oct_14_1439,t1_Paradigm,2021.1.4,60.06723191056357,
S,right,Target,0,32,32,32,2322.017602718346,2324.018187860922,left,0,4,1.0102355038470705,F07I10,2021_Oct_14_1439,t1_Paradigm,2021.1.4,60.06723191056357,
Z,left,Pretarget,0,33,33,33,2325.517767129295,2327.5182614849473,left,1,4,0.646195017370701,F07I10,2021_Oct_14_1439,t1_Paradigm,2021.1.4,60.06723191056357,
F,left,Distractor,0,34,34,34,2329.017545936418,2331.0182510588875,left,1,4,0.5219625758963957,F07I10,2021_Oct_14_1439,t1_Paradigm,2021.1.4,60.06723191056357,
V,left,Distractor,0,35,35,35,2332.5176493950166,2334.518142467461,left,1,4,0.39832425945132854,F07I10,2021_Oct_14_1439,t1_Paradigm,2021.1.4,60.06723191056357,
M,left,Distractor,0,36,36,36,2336.0176716907445,2338.0181169637126,left,1,4,0.6262449918813218,F07I10,2021_Oct_14_1439,t1_Paradigm,2021.1.4,60.06723191056357,
Z,right,Target,0,37,37,37,2339.517646828601,2341.5182008533975,left,0,4,0.7580746627827466,F07I10,2021_Oct_14_1439,t1_Paradigm,2021.1.4,60.06723191056357,
H,left,Pretarget,0,38,38,38,2343.0176691243305,2345.0182366228037,left,1,4,0.5539587108778505,F07I10,2021_Oct_14_1439,t1_Paradigm,2021.1.4,60.06723191056357,
L,left,Distractor,0,39,39,39,2346.518203099011,2348.5197034892662,left,1,4,0.5246409505489282,F07I10,2021_Oct_14_1439,t1_Paradigm,2021.1.4,60.06723191056357,
G,left,Distractor,0,40,40,40,2350.0178526229884,2352.0191871586867,left,1,4,0.8814993251926353,F07I10,2021_Oct_14_1439,t1_Paradigm,2021.1.4,60.06723191056357,
K,left,Distractor,0,41,41,41,2353.5175833098347,2355.517720933829,left,1,4,0.5026179035030509,F07I10,2021_Oct_14_1439,t1_Paradigm,2021.1.4,60.06723191056357,
H,right,Target,0,42,42,42,2357.0176023975455,2359.0175876406593,left,0,4,0.6506435766314098,F07I10,2021_Oct_14_1439,t1_Paradigm,2021.1.4,60.06723191056357,
B,left,Distractor,0,43,43,43,2360.5173625981606,2362.517921755787,left,1,4,0.4782574941709754,F07I10,2021_Oct_14_1439,t1_Paradigm,2021.1.4,60.06723191056357,
Z,left,Distractor,0,44,44,44,2364.017596623111,2366.01823951002,left,1,4,0.5302068626569962,F07I10,2021_Oct_14_1439,t1_Paradigm,2021.1.4,60.06723191056357,
T,left,Pretarget,0,45,45,45,2367.5176234100654,2369.5181289937827,left,1,4,0.5662495921806112,F07I10,2021_Oct_14_1439,t1_Paradigm,2021.1.4,60.06723191056357,
H,right,Target,0,46,46,46,2371.0176617458874,2373.018215770684,left,0,4,0.6181056073273794,F07I10,2021_Oct_14_1439,t1_Paradigm,2021.1.4,60.06723191056357,
F,left,Distractor,0,47,47,47,2374.5176250140757,2376.518256031315,left,1,4,0.6539539309305837,F07I10,2021_Oct_14_1439,t1_Paradigm,2021.1.4,60.06723191056357,
R,left,Distractor,0,48,48,48,2378.0175764125943,2380.018225715541,left,1,4,0.8340857740749925,F07I10,2021_Oct_14_1439,t1_Paradigm,2021.1.4,60.06723191056357,
T,right,Target,0,49,49,49,2381.5177100265664,2383.518196362171,right,1,4,0.5021155278045626,F07I10,2021_Oct_14_1439,t1_Paradigm,2021.1.4,60.06723191056357,
H,right,Target,0,50,50,50,2385.017785575401,2387.0180171943375,right,1,4,0.4742099372215307,F07I10,2021_Oct_14_1439,t1_Paradigm,2021.1.4,60.06723191056357,
Y,left,Pretarget,0,51,51,51,2388.517619881246,2390.518095309588,left,1,4,0.7022108701148682,F07I10,2021_Oct_14_1439,t1_Paradigm,2021.1.4,60.06723191056357,
H,left,Distractor,0,52,52,52,2392.0175924526866,2394.0183976653316,left,1,4,0.6099517866896349,F07I10,2021_Oct_14_1439,t1_Paradigm,2021.1.4,60.06723191056357,
S,left,Distractor,0,53,53,53,2395.517496372533,2397.518206307028,left,1,4,0.8860938492980495,F07I10,2021_Oct_14_1439,t1_Paradigm,2021.1.4,60.06723191056357,
Q,left,Distractor,0,54,54,54,2399.0176447433896,2401.018286347091,left,1,4,0.5700449988762557,F07I10,2021_Oct_14_1439,t1_Paradigm,2021.1.4,60.06723191056357,
Y,right,Target,0,55,55,55,2402.5176593398737,2404.5182958107453,right,1,4,0.4460862013820588,F07I10,2021_Oct_14_1439,t1_Paradigm,2021.1.4,60.06723191056357,
R,left,Distractor,0,56,56,56,2406.017664953906,2408.018236943606,left,1,4,0.49818185550975613,F07I10,2021_Oct_14_1439,t1_Paradigm,2021.1.4,60.06723191056357,
H,left,Pretarget,0,57,57,57,2409.5176195604436,2411.5181771140597,left,1,4,0.5825450429856573,F07I10,2021_Oct_14_1439,t1_Paradigm,2021.1.4,60.06723191056357,
J,left,Distractor,0,58,58,58,2413.0178394701124,2415.0305380905684,left,1,4,0.8616708836070757,F07I10,2021_Oct_14_1439,t1_Paradigm,2021.1.4,60.06723191056357,
V,left,Distractor,0,59,59,59,2416.5175804226183,2418.517831931269,left,1,4,1.0223037486648536,F07I10,2021_Oct_14_1439,t1_Paradigm,2021.1.4,60.06723191056357,
Y,left,Lure,0,60,60,60,2420.017750608,2422.0185917504514,right,0,4,1.0897783227119362,F07I10,2021_Oct_14_1439,t1_Paradigm,2021.1.4,60.06723191056357,
H,right,Target,0,61,61,61,2423.517735369911,2425.5185636802908,right,1,4,1.1099275661508727,F07I10,2021_Oct_14_1439,t1_Paradigm,2021.1.4,60.06723191056357,
L,left,Distractor,0,62,62,62,2427.017681314799,2429.0183209936895,left,1,4,0.6981033232186746,F07I10,2021_Oct_14_1439,t1_Paradigm,2021.1.4,60.06723191056357,
P,left,Distractor,0,63,63,63,2430.517634958933,2432.5183442518246,left,1,4,0.9579027771487745,F07I10,2021_Oct_14_1439,t1_Paradigm,2021.1.4,60.06723191056357,
