Letter,CorrAnswer,Stimulus,finaln_nback_run.thisRepN,finaln_nback_run.thisTrialN,finaln_nback_run.thisN,finaln_nback_run.thisIndex,finaln_fixcross.started,finaln_nback_trial.started,finaln_trial_resp.keys,finaln_trial_resp.corr,finaln_level,finaln_money,finaln_trial_resp.rt,Participant,date,expName,psychopyVersion,frameRate,
F,left,Distractor,0,0,0,0,2243.363073181041,2245.361393140687,None,0,1,2.9699999999999998,,F30T02,2021_Sep_22_0840,t1_Paradigm,2021.1.4,60.03202670812918,
T,left,Pretarget,0,1,1,1,2246.8612078774895,2248.861134093022,None,0,1,2.9699999999999998,,F30T02,2021_Sep_22_0840,t1_Paradigm,2021.1.4,60.03202670812918,
B,left,Distractor,0,2,2,2,2250.361157030362,2252.3614486394217,left,1,1,2.9699999999999998,0.9817530998261645,F30T02,2021_Sep_22_0840,t1_Paradigm,2021.1.4,60.03202670812918,
T,right,Target,0,3,3,3,2253.860801742092,2255.861218143167,right,1,1,2.9699999999999998,1.2256204071163666,F30T02,2021_Sep_22_0840,t1_Paradigm,2021.1.4,60.03202670812918,
Z,left,Distractor,0,4,4,4,2257.3612452509406,2259.360927656904,left,1,1,2.9699999999999998,0.7822761355200782,F30T02,2021_Sep_22_0840,t1_Paradigm,2021.1.4,60.03202670812918,
T,right,Target,0,5,5,5,2260.8611847797292,2262.8612733211194,None,0,1,2.9699999999999998,,F30T02,2021_Sep_22_0840,t1_Paradigm,2021.1.4,60.03202670812918,
L,left,Distractor,0,6,6,6,2264.361258083023,2266.361395707092,left,1,1,2.9699999999999998,0.9174993351334706,F30T02,2021_Sep_22_0840,t1_Paradigm,2021.1.4,60.03202670812918,
T,right,Target,0,7,7,7,2267.861301230878,2269.861294173257,right,1,1,2.9699999999999998,1.4015838639170397,F30T02,2021_Sep_22_0840,t1_Paradigm,2021.1.4,60.03202670812918,
Z,left,Lure,0,8,8,8,2271.3613180730026,2273.3613427747623,left,1,1,2.9699999999999998,0.893595732311951,F30T02,2021_Sep_22_0840,t1_Paradigm,2021.1.4,60.03202670812918,
J,left,Distractor,0,9,9,9,2274.8614228148654,2276.8619290405186,left,1,1,2.9699999999999998,0.9131935299374163,F30T02,2021_Sep_22_0840,t1_Paradigm,2021.1.4,60.03202670812918,
D,left,Pretarget,0,10,10,10,2278.361324168247,2280.3611162884918,left,1,1,2.9699999999999998,0.8215981267858297,F30T02,2021_Sep_22_0840,t1_Paradigm,2021.1.4,60.03202670812918,
H,left,Distractor,0,11,11,11,2281.8613246494497,2283.8614125492168,left,1,1,2.9699999999999998,0.7619449843768962,F30T02,2021_Sep_22_0840,t1_Paradigm,2021.1.4,60.03202670812918,
D,right,Target,0,12,12,12,2285.361557712138,2287.361503817374,right,1,1,2.9699999999999998,1.0531803192861844,F30T02,2021_Sep_22_0840,t1_Paradigm,2021.1.4,60.03202670812918,
S,left,Distractor,0,13,13,13,2288.861098804802,2290.8611142032896,left,1,1,2.9699999999999998,0.7216288275376428,F30T02,2021_Sep_22_0840,t1_Paradigm,2021.1.4,60.03202670812918,
R,left,Pretarget,0,14,14,14,2292.3612747647276,2294.361360418872,left,1,1,2.9699999999999998,0.8374114225443918,F30T02,2021_Sep_22_0840,t1_Paradigm,2021.1.4,60.03202670812918,
Z,left,Distractor,0,15,15,15,2295.8614760680066,2297.8611716268642,left,1,1,2.9699999999999998,1.337655071693007,F30T02,2021_Sep_22_0840,t1_Paradigm,2021.1.4,60.03202670812918,
R,right,Target,0,16,16,16,2299.361057902541,2301.3610867747047,right,1,1,2.9699999999999998,0.9897378630412277,F30T02,2021_Sep_22_0840,t1_Paradigm,2021.1.4,60.03202670812918,
T,left,Distractor,0,17,17,17,2302.8613278574485,2304.861460027896,left,1,1,2.9699999999999998,0.7212679251970258,F30T02,2021_Sep_22_0840,t1_Paradigm,2021.1.4,60.03202670812918,
M,left,Distractor,0,18,18,18,2306.361242363724,2308.360797090456,left,1,1,2.9699999999999998,0.646386950800661,F30T02,2021_Sep_22_0840,t1_Paradigm,2021.1.4,60.03202670812918,
R,left,Lure,0,19,19,19,2309.8618844490265,2311.8619585543056,left,1,1,2.9699999999999998,1.2409229860058986,F30T02,2021_Sep_22_0840,t1_Paradigm,2021.1.4,60.03202670812918,
J,left,Distractor,0,20,20,20,2313.361306524137,2315.361638233444,None,0,1,2.9699999999999998,,F30T02,2021_Sep_22_0840,t1_Paradigm,2021.1.4,60.03202670812918,
K,left,Distractor,0,21,21,21,2316.86125920582,2318.8609874864633,left,1,1,2.9699999999999998,0.9301007607136853,F30T02,2021_Sep_22_0840,t1_Paradigm,2021.1.4,60.03202670812918,
Z,left,Distractor,0,22,22,22,2320.361261932645,2322.3613446995732,left,1,1,2.9699999999999998,0.6458419081172906,F30T02,2021_Sep_22_0840,t1_Paradigm,2021.1.4,60.03202670812918,
W,left,Pretarget,0,23,23,23,2323.8611902333796,2325.861528679554,left,1,1,2.9699999999999998,0.5852148106787354,F30T02,2021_Sep_22_0840,t1_Paradigm,2021.1.4,60.03202670812918,
Q,left,Distractor,0,24,24,24,2327.361120458925,2329.3616908449912,left,1,1,2.9699999999999998,0.5891103100439068,F30T02,2021_Sep_22_0840,t1_Paradigm,2021.1.4,60.03202670812918,
W,right,Target,0,25,25,25,2330.861611446482,2332.862105160835,right,1,1,2.9699999999999998,1.2007678718073294,F30T02,2021_Sep_22_0840,t1_Paradigm,2021.1.4,60.03202670812918,
D,left,Pretarget,0,26,26,26,2334.3614601883164,2336.361069772218,left,1,1,2.9699999999999998,0.9501794406387489,F30T02,2021_Sep_22_0840,t1_Paradigm,2021.1.4,60.03202670812918,
W,right,Target,0,27,27,27,2337.8614096619713,2339.861350313615,left,0,1,2.9699999999999998,0.6818294828117359,F30T02,2021_Sep_22_0840,t1_Paradigm,2021.1.4,60.03202670812918,
D,right,Target,0,28,28,28,2341.3614098223916,2343.361525631917,right,1,1,2.9699999999999998,0.541287385072792,F30T02,2021_Sep_22_0840,t1_Paradigm,2021.1.4,60.03202670812918,
L,left,Pretarget,0,29,29,29,2344.861606955237,2346.8613737321575,left,1,1,2.9699999999999998,0.5774725738156121,F30T02,2021_Sep_22_0840,t1_Paradigm,2021.1.4,60.03202670812918,
P,left,Distractor,0,30,30,30,2348.3617874064075,2350.3615105542412,left,1,1,2.9699999999999998,0.917662623396609,F30T02,2021_Sep_22_0840,t1_Paradigm,2021.1.4,60.03202670812918,
L,right,Target,0,31,31,31,2351.8616419226746,2353.8614773512236,right,1,1,2.9699999999999998,0.8093293729180004,F30T02,2021_Sep_22_0840,t1_Paradigm,2021.1.4,60.03202670812918,
R,left,Distractor,0,32,32,32,2355.361394423875,2357.361304599297,None,0,1,2.9699999999999998,,F30T02,2021_Sep_22_0840,t1_Paradigm,2021.1.4,60.03202670812918,
V,left,Distractor,0,33,33,33,2358.8620547949104,2360.861266584281,left,1,1,2.9699999999999998,0.7055720430216752,F30T02,2021_Sep_22_0840,t1_Paradigm,2021.1.4,60.03202670812918,
L,left,Lure,0,34,34,34,2362.361290804809,2364.3611900729884,right,0,1,2.9699999999999998,1.1095824536751024,F30T02,2021_Sep_22_0840,t1_Paradigm,2021.1.4,60.03202670812918,
H,left,Distractor,0,35,35,35,2365.8610038473853,2367.861419927649,left,1,1,2.9699999999999998,0.8573515159660019,F30T02,2021_Sep_22_0840,t1_Paradigm,2021.1.4,60.03202670812918,
K,left,Pretarget,0,36,36,36,2369.3608294914593,2371.3614791156433,left,1,1,2.9699999999999998,0.6372845132427756,F30T02,2021_Sep_22_0840,t1_Paradigm,2021.1.4,60.03202670812918,
F,left,Distractor,0,37,37,37,2372.86163229862,2374.8616281281866,left,1,1,2.9699999999999998,0.8652105247310828,F30T02,2021_Sep_22_0840,t1_Paradigm,2021.1.4,60.03202670812918,
K,right,Target,0,38,38,38,2376.3613286594627,2378.361458584288,right,1,1,2.9699999999999998,1.2373582335421816,F30T02,2021_Sep_22_0840,t1_Paradigm,2021.1.4,60.03202670812918,
S,left,Pretarget,0,39,39,39,2379.8610157170624,2381.8613041180943,left,1,1,2.9699999999999998,0.7139183500839863,F30T02,2021_Sep_22_0840,t1_Paradigm,2021.1.4,60.03202670812918,
W,left,Distractor,0,40,40,40,2383.3614563386946,2385.3613771005766,left,1,1,2.9699999999999998,0.28537171497009695,F30T02,2021_Sep_22_0840,t1_Paradigm,2021.1.4,60.03202670812918,
S,right,Target,0,41,41,41,2386.861878033,2388.861418644432,right,1,1,2.9699999999999998,1.2977565991459414,F30T02,2021_Sep_22_0840,t1_Paradigm,2021.1.4,60.03202670812918,
F,left,Pretarget,0,42,42,42,2390.3622926696553,2392.3620103638386,left,1,1,2.9699999999999998,1.0611894634494092,F30T02,2021_Sep_22_0840,t1_Paradigm,2021.1.4,60.03202670812918,
Y,left,Distractor,0,43,43,43,2393.8612098023004,2395.861348388804,left,1,1,2.9699999999999998,1.0499556170252617,F30T02,2021_Sep_22_0840,t1_Paradigm,2021.1.4,60.03202670812918,
F,right,Target,0,44,44,44,2397.3611474063073,2399.3612314564525,right,1,1,2.9699999999999998,0.830018218344776,F30T02,2021_Sep_22_0840,t1_Paradigm,2021.1.4,60.03202670812918,
F,left,Lure,0,45,45,45,2400.8619053011644,2402.8617304640356,left,1,1,2.9699999999999998,1.0571011620631907,F30T02,2021_Sep_22_0840,t1_Paradigm,2021.1.4,60.03202670812918,
B,left,Pretarget,0,46,46,46,2404.361273802322,2406.3617068851017,left,1,1,2.9699999999999998,0.5493764089187607,F30T02,2021_Sep_22_0840,t1_Paradigm,2021.1.4,60.03202670812918,
W,left,Distractor,0,47,47,47,2407.861543115636,2409.8781536045135,left,1,1,2.9699999999999998,0.47261874249670655,F30T02,2021_Sep_22_0840,t1_Paradigm,2021.1.4,60.03202670812918,
B,right,Target,0,48,48,48,2411.361126233358,2413.3617973512737,None,0,1,2.9699999999999998,,F30T02,2021_Sep_22_0840,t1_Paradigm,2021.1.4,60.03202670812918,
R,left,Pretarget,0,49,49,49,2414.8615100730385,2416.8612624138477,left,1,1,2.9699999999999998,0.8500904822140001,F30T02,2021_Sep_22_0840,t1_Paradigm,2021.1.4,60.03202670812918,
N,left,Distractor,0,50,50,50,2418.3613880078483,2420.36121156672,left,1,1,2.9699999999999998,0.7736722243425902,F30T02,2021_Sep_22_0840,t1_Paradigm,2021.1.4,60.03202670812918,
R,right,Target,0,51,51,51,2421.861318874988,2423.8614176820265,left,0,1,2.9699999999999998,0.34576238130102865,F30T02,2021_Sep_22_0840,t1_Paradigm,2021.1.4,60.03202670812918,
V,left,Distractor,0,52,52,52,2425.3620215918927,2427.3609241280647,left,1,1,2.9699999999999998,0.6219190571282525,F30T02,2021_Sep_22_0840,t1_Paradigm,2021.1.4,60.03202670812918,
G,left,Distractor,0,53,53,53,2428.8613041180943,2430.8611299225886,left,1,1,2.9699999999999998,0.6737693311297335,F30T02,2021_Sep_22_0840,t1_Paradigm,2021.1.4,60.03202670812918,
H,left,Distractor,0,54,54,54,2432.3612458925345,2434.3608965390886,None,0,1,2.9699999999999998,,F30T02,2021_Sep_22_0840,t1_Paradigm,2021.1.4,60.03202670812918,
V,left,Lure,0,55,55,55,2435.8610400980106,2437.861208198301,left,1,1,2.9699999999999998,1.369588670815574,F30T02,2021_Sep_22_0840,t1_Paradigm,2021.1.4,60.03202670812918,
L,left,Distractor,0,56,56,56,2439.3614229752566,2441.361773291108,left,1,1,2.9699999999999998,0.8771016945829615,F30T02,2021_Sep_22_0840,t1_Paradigm,2021.1.4,60.03202670812918,
K,left,Distractor,0,57,57,57,2442.8616935718164,2444.861438213353,left,1,1,2.9699999999999998,0.6573542107071262,F30T02,2021_Sep_22_0840,t1_Paradigm,2021.1.4,60.03202670812918,
D,left,Pretarget,0,58,58,58,2446.36129272962,2448.361908348772,left,1,1,2.9699999999999998,0.5972875544684939,F30T02,2021_Sep_22_0840,t1_Paradigm,2021.1.4,60.03202670812918,
T,left,Pretarget,0,59,59,59,2449.8617683186894,2451.8615482484747,left,1,1,2.9699999999999998,0.5212933968869038,F30T02,2021_Sep_22_0840,t1_Paradigm,2021.1.4,60.03202670812918,
D,right,Target,0,60,60,60,2453.361254874995,2455.361708489101,right,1,1,2.9699999999999998,0.893090469064191,F30T02,2021_Sep_22_0840,t1_Paradigm,2021.1.4,60.03202670812918,
T,right,Target,0,61,61,61,2456.8613945842953,2458.8616399978637,right,1,1,2.9699999999999998,0.9455621366505511,F30T02,2021_Sep_22_0840,t1_Paradigm,2021.1.4,60.03202670812918,
T,left,Lure,0,62,62,62,2460.362359396473,2462.3611134012754,left,1,1,2.9699999999999998,1.1417643535824027,F30T02,2021_Sep_22_0840,t1_Paradigm,2021.1.4,60.03202670812918,
F,left,Distractor,0,63,63,63,2463.8616406394576,2465.861128318589,left,1,1,2.9699999999999998,1.2096069308463484,F30T02,2021_Sep_22_0840,t1_Paradigm,2021.1.4,60.03202670812918,
