Letter,CorrAnswer,Stimulus,nback_run.thisRepN,nback_run.thisTrialN,nback_run.thisN,nback_run.thisIndex,fixcross.started,nback_trial.started,trial_resp.keys,trial_resp.corr,currentlevel,trial_resp.rt,Participant,date,expName,psychopyVersion,frameRate,
H,left,Distractor,0,0,0,0,35.13491715447162,37.128756150981644,None,0,1,,F30T02,2021_Sep_22_0840,t1_Paradigm,2021.1.4,60.03202670812918,
Q,left,Pretarget,0,1,1,1,38.62910694803577,40.62834889275837,left,1,1,1.0503101033100393,F30T02,2021_Sep_22_0840,t1_Paradigm,2021.1.4,60.03202670812918,
Q,right,Target,0,2,2,2,42.12805744408979,44.127940351347206,right,1,1,1.3745498745993245,F30T02,2021_Sep_22_0840,t1_Paradigm,2021.1.4,60.03202670812918,
T,left,Distractor,0,3,3,3,45.62770632625325,47.627794546831865,left,1,1,0.8508697104116436,F30T02,2021_Sep_22_0840,t1_Paradigm,2021.1.4,60.03202670812918,
Q,left,Lure,0,4,4,4,49.128040441602934,51.127982697216794,left,1,1,0.80653871584218,F30T02,2021_Sep_22_0840,t1_Paradigm,2021.1.4,60.03202670812918,
L,left,Distractor,0,5,5,5,52.627919338818174,54.62798895285232,left,1,1,0.7788140397169627,F30T02,2021_Sep_22_0840,t1_Paradigm,2021.1.4,60.03202670812918,
V,left,Pretarget,0,6,6,6,56.12760254679597,58.12787073731306,left,1,1,0.7186155338131357,F30T02,2021_Sep_22_0840,t1_Paradigm,2021.1.4,60.03202670812918,
V,right,Target,0,7,7,7,59.62776310820482,61.62788084257045,right,1,1,0.690611439087661,F30T02,2021_Sep_22_0840,t1_Paradigm,2021.1.4,60.03202670812918,
K,left,Distractor,0,8,8,8,63.12829900806537,65.12785341398558,left,1,1,0.6309220460534561,F30T02,2021_Sep_22_0840,t1_Paradigm,2021.1.4,60.03202670812918,
G,left,Pretarget,0,9,9,9,66.62828441156307,68.6281689228199,left,1,1,0.6503055479261093,F30T02,2021_Sep_22_0840,t1_Paradigm,2021.1.4,60.03202670812918,
G,right,Target,0,10,10,10,70.1283317298512,72.12795992026804,right,1,1,0.8148516595247202,F30T02,2021_Sep_22_0840,t1_Paradigm,2021.1.4,60.03202670812918,
G,right,Target,0,11,11,11,73.62775637136656,75.62831424616161,right,1,1,0.5942097795195878,F30T02,2021_Sep_22_0840,t1_Paradigm,2021.1.4,60.03202670812918,
P,left,Pretarget,0,12,12,12,77.1285736146092,79.1280048325716,left,1,1,0.5344443563953973,F30T02,2021_Sep_22_0840,t1_Paradigm,2021.1.4,60.03202670812918,
P,right,Target,0,13,13,13,80.62836589527433,82.62848972488428,right,1,1,0.5539641991490498,F30T02,2021_Sep_22_0840,t1_Paradigm,2021.1.4,60.03202670812918,
G,left,Lure,0,14,14,14,84.12831151933642,86.12778604557388,left,1,1,0.5747566636127885,F30T02,2021_Sep_22_0840,t1_Paradigm,2021.1.4,60.03202670812918,
Y,left,Distractor,0,15,15,15,87.62788790022023,89.627729103202,left,1,1,0.8673297431087121,F30T02,2021_Sep_22_0840,t1_Paradigm,2021.1.4,60.03202670812918,
B,left,Distractor,0,16,16,16,91.12835611082846,93.12765195031534,left,1,1,0.9348964306409471,F30T02,2021_Sep_22_0840,t1_Paradigm,2021.1.4,60.03202670812918,
T,left,Pretarget,0,17,17,17,94.62762291773106,96.62804830123787,left,1,1,0.8104865059431177,F30T02,2021_Sep_22_0840,t1_Paradigm,2021.1.4,60.03202670812918,
T,right,Target,0,18,18,18,98.12834841155563,100.1283435995283,right,1,1,0.6382372953521553,F30T02,2021_Sep_22_0840,t1_Paradigm,2021.1.4,60.03202670812918,
S,left,Distractor,0,19,19,19,101.6275282810966,103.62763895781245,left,1,1,0.5472109950205777,F30T02,2021_Sep_22_0840,t1_Paradigm,2021.1.4,60.03202670812918,
T,left,Lure,0,20,20,20,105.12798558443319,107.12801830624812,left,1,1,0.5666756598220672,F30T02,2021_Sep_22_0840,t1_Paradigm,2021.1.4,60.03202670812918,
J,left,Distractor,0,21,21,21,108.62803514837287,110.62798414082499,left,1,1,0.5385031440237071,F30T02,2021_Sep_22_0840,t1_Paradigm,2021.1.4,60.03202670812918,
P,left,Distractor,0,22,22,22,112.12813154936885,114.12760928363423,left,1,1,0.5909504306328017,F30T02,2021_Sep_22_0840,t1_Paradigm,2021.1.4,60.03202670812918,
F,left,Distractor,0,23,23,23,115.62844641660922,117.62797066714847,left,1,1,0.7065771158668213,F30T02,2021_Sep_22_0840,t1_Paradigm,2021.1.4,60.03202670812918,
L,left,Distractor,0,24,24,24,119.1283140857413,121.12798654683866,left,1,1,0.5345806972763967,F30T02,2021_Sep_22_0840,t1_Paradigm,2021.1.4,60.03202670812918,
W,left,Pretarget,0,25,25,25,122.62843711333699,124.63184210637701,left,1,1,0.7269544624723494,F30T02,2021_Sep_22_0840,t1_Paradigm,2021.1.4,60.03202670812918,
W,right,Target,0,26,26,26,126.12828874238767,128.1283070280915,right,1,1,0.862574494240107,F30T02,2021_Sep_22_0840,t1_Paradigm,2021.1.4,60.03202670812918,
V,left,Distractor,0,27,27,27,129.62808647670317,131.62797483758186,left,1,1,0.6425758223631419,F30T02,2021_Sep_22_0840,t1_Paradigm,2021.1.4,60.03202670812918,
W,left,Lure,0,28,28,28,133.12829868725385,135.12802793030278,left,1,1,0.6467626100056805,F30T02,2021_Sep_22_0840,t1_Paradigm,2021.1.4,60.03202670812918,
R,left,Pretarget,0,29,29,29,136.62779583001975,138.62775059693377,left,1,1,0.5388277956808452,F30T02,2021_Sep_22_0840,t1_Paradigm,2021.1.4,60.03202670812918,
R,right,Target,0,30,30,30,140.12826756943832,142.1276574039366,right,1,1,0.734844909835374,F30T02,2021_Sep_22_0840,t1_Paradigm,2021.1.4,60.03202670812918,
G,left,Distractor,0,31,31,31,143.62844834142015,145.6280925719184,left,1,1,0.5147958720626775,F30T02,2021_Sep_22_0840,t1_Paradigm,2021.1.4,60.03202670812918,
R,left,Lure,0,32,32,32,147.12805263206246,149.12796697791782,left,1,1,0.6791385951510165,F30T02,2021_Sep_22_0840,t1_Paradigm,2021.1.4,60.03202670812918,
S,left,Distractor,0,33,33,33,150.62756581493886,152.6277759402874,left,1,1,0.6990186985931359,F30T02,2021_Sep_22_0840,t1_Paradigm,2021.1.4,60.03202670812918,
R,left,Lure,0,34,34,34,154.127978206001,156.127903459128,left,1,1,0.5106645831547212,F30T02,2021_Sep_22_0840,t1_Paradigm,2021.1.4,60.03202670812918,
P,left,Pretarget,0,35,35,35,157.62817983009154,159.62795591025497,left,1,1,0.7545796899648849,F30T02,2021_Sep_22_0840,t1_Paradigm,2021.1.4,60.03202670812918,
P,right,Target,0,36,36,36,161.12842091283528,163.12833718350157,right,1,1,0.47012194007402286,F30T02,2021_Sep_22_0840,t1_Paradigm,2021.1.4,60.03202670812918,
Y,left,Pretarget,0,37,37,37,164.62821479749982,166.62791035635746,left,1,1,0.5546131816809066,F30T02,2021_Sep_22_0840,t1_Paradigm,2021.1.4,60.03202670812918,
Y,right,Target,0,38,38,38,168.12845299302717,170.12854762963252,right,1,1,0.6059979718993418,F30T02,2021_Sep_22_0840,t1_Paradigm,2021.1.4,60.03202670812918,
J,left,Distractor,0,39,39,39,171.62798189523164,173.62803226112737,left,1,1,0.6105924989387859,F30T02,2021_Sep_22_0840,t1_Paradigm,2021.1.4,60.03202670812918,
Y,left,Lure,0,40,40,40,175.1276779352629,177.1280577649013,left,1,1,0.678905692853732,F30T02,2021_Sep_22_0840,t1_Paradigm,2021.1.4,60.03202670812918,
T,left,Distractor,0,41,41,41,178.62846053187968,180.62801974985632,left,1,1,0.618486154358834,F30T02,2021_Sep_22_0840,t1_Paradigm,2021.1.4,60.03202670812918,
V,left,Distractor,0,42,42,42,182.1277247723774,184.12777706311317,left,1,1,0.5427168790192809,F30T02,2021_Sep_22_0840,t1_Paradigm,2021.1.4,60.03202670812918,
N,left,Pretarget,0,43,43,43,185.62845956947422,187.6279122811684,left,1,1,0.6266534538881388,F30T02,2021_Sep_22_0840,t1_Paradigm,2021.1.4,60.03202670812918,
N,right,Target,0,44,44,44,189.1284007022914,191.12751175981248,right,1,1,0.8709467863081954,F30T02,2021_Sep_22_0840,t1_Paradigm,2021.1.4,60.03202670812918,
N,right,Target,0,45,45,45,192.6284724015568,194.62839861708926,right,1,1,0.5540947655681521,F30T02,2021_Sep_22_0840,t1_Paradigm,2021.1.4,60.03202670812918,
X,left,Distractor,0,46,46,46,196.12833814590704,198.12785405560862,left,1,1,0.5107085330528207,F30T02,2021_Sep_22_0840,t1_Paradigm,2021.1.4,60.03202670812918,
Z,left,Distractor,0,47,47,47,199.62842588525382,201.62771338390303,left,1,1,0.5632757996208966,F30T02,2021_Sep_22_0840,t1_Paradigm,2021.1.4,60.03202670812918,
H,left,Pretarget,0,48,48,48,203.12842380005168,205.1275723913859,left,1,1,0.5992303317179903,F30T02,2021_Sep_22_0840,t1_Paradigm,2021.1.4,60.03202670812918,
H,right,Target,0,49,49,49,206.62818400052493,208.62835402559722,right,1,1,0.5382615800772328,F30T02,2021_Sep_22_0840,t1_Paradigm,2021.1.4,60.03202670812918,
K,left,Distractor,0,50,50,50,210.12755859689787,212.12786047163536,left,1,1,0.5586450219561812,F30T02,2021_Sep_22_0840,t1_Paradigm,2021.1.4,60.03202670812918,
V,left,Pretarget,0,51,51,51,213.6278054540744,215.62791196035687,left,1,1,0.4831192354031373,F30T02,2021_Sep_22_0840,t1_Paradigm,2021.1.4,60.03202670812918,
V,right,Target,0,52,52,52,217.12815849675098,219.12838851183187,right,1,1,0.5501395970059093,F30T02,2021_Sep_22_0840,t1_Paradigm,2021.1.4,60.03202670812918,
R,left,Distractor,0,53,53,53,220.62803803558927,222.6279725919594,left,1,1,0.5545993871928658,F30T02,2021_Sep_22_0840,t1_Paradigm,2021.1.4,60.03202670812918,
V,left,Lure,0,54,54,54,224.128082466661,226.12790602553287,left,1,1,0.52665432007052,F30T02,2021_Sep_22_0840,t1_Paradigm,2021.1.4,60.03202670812918,
Y,left,Distractor,0,55,55,55,227.6282921108068,229.62784972478403,left,1,1,0.4665626412606798,F30T02,2021_Sep_22_0840,t1_Paradigm,2021.1.4,60.03202670812918,
Q,left,Distractor,0,56,56,56,231.12827366468264,233.12802728870884,left,1,1,0.5989124168700073,F30T02,2021_Sep_22_0840,t1_Paradigm,2021.1.4,60.03202670812918,
Z,left,Pretarget,0,57,57,57,234.62781636134605,236.6277923012094,left,1,1,0.7471742952766363,F30T02,2021_Sep_22_0840,t1_Paradigm,2021.1.4,60.03202670812918,
Z,right,Target,0,58,58,58,238.12768755931756,240.12839428626467,right,1,1,1.182690675923368,F30T02,2021_Sep_22_0840,t1_Paradigm,2021.1.4,60.03202670812918,
B,left,Distractor,0,59,59,59,241.62828248675214,243.62796617590357,None,0,1,,F30T02,2021_Sep_22_0840,t1_Paradigm,2021.1.4,60.03202670812918,
S,left,Pretarget,0,60,60,60,245.12753325354424,247.12797916840645,None,0,1,,F30T02,2021_Sep_22_0840,t1_Paradigm,2021.1.4,60.03202670812918,
S,right,Target,0,61,61,61,248.62777786509832,250.62819202055107,right,1,1,0.6669808388105594,F30T02,2021_Sep_22_0840,t1_Paradigm,2021.1.4,60.03202670812918,
T,left,Distractor,0,62,62,62,252.12836445166613,254.12799777492182,left,1,1,1.2148838038847316,F30T02,2021_Sep_22_0840,t1_Paradigm,2021.1.4,60.03202670812918,
D,left,Distractor,0,63,63,63,255.6281236897339,257.6277996796416,left,1,1,0.7388247801573016,F30T02,2021_Sep_22_0840,t1_Paradigm,2021.1.4,60.03202670812918,
R,left,Distractor,0,0,0,0,273.91313706876826,275.9114381010877,None,0,1,,F30T02,2021_Sep_22_0840,t1_Paradigm,2021.1.4,60.03202670812918,
V,left,Distractor,0,1,1,1,277.41137442187755,279.4113840459322,left,1,1,0.5232506102474872,F30T02,2021_Sep_22_0840,t1_Paradigm,2021.1.4,60.03202670812918,
N,left,Pretarget,0,2,2,2,280.9114660108753,282.91135982537526,right,0,1,0.47952304434147663,F30T02,2021_Sep_22_0840,t1_Paradigm,2021.1.4,60.03202670812918,
N,right,Target,0,3,3,3,284.41115595569136,286.4113410584687,right,1,1,0.46721386941499077,F30T02,2021_Sep_22_0840,t1_Paradigm,2021.1.4,60.03202670812918,
S,left,Distractor,0,4,4,4,287.911203594791,289.9111785722198,left,1,1,0.43943690255400725,F30T02,2021_Sep_22_0840,t1_Paradigm,2021.1.4,60.03202670812918,
N,left,Lure,0,5,5,5,291.41136383541743,293.4114058604755,left,1,1,0.5231553320481908,F30T02,2021_Sep_22_0840,t1_Paradigm,2021.1.4,60.03202670812918,
Z,left,Distractor,0,6,6,6,294.91145767000853,296.91156481788494,left,1,1,0.4472189188527409,F30T02,2021_Sep_22_0840,t1_Paradigm,2021.1.4,60.03202670812918,
L,left,Pretarget,0,7,7,7,298.4114161261532,300.41150755473063,left,1,1,0.5793672307918314,F30T02,2021_Sep_22_0840,t1_Paradigm,2021.1.4,60.03202670812918,
L,right,Target,0,8,8,8,301.9113457101048,303.91111184540205,None,0,1,,F30T02,2021_Sep_22_0840,t1_Paradigm,2021.1.4,60.03202670812918,
H,left,Distractor,0,9,9,9,305.411299995787,307.41129101335537,left,1,1,0.7634505084424745,F30T02,2021_Sep_22_0840,t1_Paradigm,2021.1.4,60.03202670812918,
L,left,Lure,0,10,10,10,308.91121129403473,310.9112574895262,left,1,1,0.7193383008416276,F30T02,2021_Sep_22_0840,t1_Paradigm,2021.1.4,60.03202670812918,
X,left,Pretarget,0,11,11,11,312.41104463735246,314.4113266223576,left,1,1,0.5958323963277508,F30T02,2021_Sep_22_0840,t1_Paradigm,2021.1.4,60.03202670812918,
X,right,Target,0,12,12,12,315.9112135396572,317.91140794570674,right,1,1,0.6314247428672388,F30T02,2021_Sep_22_0840,t1_Paradigm,2021.1.4,60.03202670812918,
X,right,Target,0,13,13,13,319.41119092309964,321.4113327176019,right,1,1,0.5711441116582137,F30T02,2021_Sep_22_0840,t1_Paradigm,2021.1.4,60.03202670812918,
R,left,Distractor,0,14,14,14,322.91119974516914,324.91119846195215,left,1,1,0.7999818426033016,F30T02,2021_Sep_22_0840,t1_Paradigm,2021.1.4,60.03202670812918,
T,left,Distractor,0,15,15,15,326.4113131486811,328.41143024142366,left,1,1,0.9473611945577431,F30T02,2021_Sep_22_0840,t1_Paradigm,2021.1.4,60.03202670812918,
V,left,Pretarget,0,16,16,16,329.9112812288804,331.91127737925854,left,1,1,0.871199578337837,F30T02,2021_Sep_22_0840,t1_Paradigm,2021.1.4,60.03202670812918,
V,right,Target,0,17,17,17,333.41119252709905,335.41124417624087,right,1,1,0.683364520635223,F30T02,2021_Sep_22_0840,t1_Paradigm,2021.1.4,60.03202670812918,
N,left,Distractor,0,18,18,18,336.9111185822403,338.9110467225837,left,1,1,0.4962836685590446,F30T02,2021_Sep_22_0840,t1_Paradigm,2021.1.4,60.03202670812918,
B,left,Distractor,0,19,19,19,340.4112477050512,342.4112201160751,left,1,1,0.6113505541870836,F30T02,2021_Sep_22_0840,t1_Paradigm,2021.1.4,60.03202670812918,
V,left,Lure,0,20,20,20,343.9114172489499,345.91129694817937,left,1,1,0.9032092075212859,F30T02,2021_Sep_22_0840,t1_Paradigm,2021.1.4,60.03202670812918,
P,left,Distractor,0,21,21,21,347.41110430654953,349.41146552967257,left,1,1,0.6832615431922022,F30T02,2021_Sep_22_0840,t1_Paradigm,2021.1.4,60.03202670812918,
K,left,Pretarget,0,22,22,22,350.91113654716173,352.9116899307119,left,1,1,0.6069071249221452,F30T02,2021_Sep_22_0840,t1_Paradigm,2021.1.4,60.03202670812918,
K,right,Target,0,23,23,23,354.4112829933001,356.41132726398064,right,1,1,0.7231471836566925,F30T02,2021_Sep_22_0840,t1_Paradigm,2021.1.4,60.03202670812918,
J,left,Pretarget,0,24,24,24,357.9112911737466,359.9115025823121,left,1,1,0.8870382174791303,F30T02,2021_Sep_22_0840,t1_Paradigm,2021.1.4,60.03202670812918,
J,right,Target,0,25,25,25,361.4112518754846,363.4111447276082,right,1,1,0.7476554983877577,F30T02,2021_Sep_22_0840,t1_Paradigm,2021.1.4,60.03202670812918,
H,left,Distractor,0,26,26,26,364.9115420409653,366.91140954970615,left,1,1,0.6551304108579643,F30T02,2021_Sep_22_0840,t1_Paradigm,2021.1.4,60.03202670812918,
J,left,Lure,0,27,27,27,368.411391103582,370.4113240559527,left,1,1,0.6911875995865557,F30T02,2021_Sep_22_0840,t1_Paradigm,2021.1.4,60.03202670812918,
V,left,Distractor,0,28,28,28,371.9111259606725,373.9111185822403,left,1,1,0.5999373794475105,F30T02,2021_Sep_22_0840,t1_Paradigm,2021.1.4,60.03202670812918,
Z,left,Pretarget,0,29,29,29,375.41116622133995,377.4116949031304,left,1,1,0.7150995432748459,F30T02,2021_Sep_22_0840,t1_Paradigm,2021.1.4,60.03202670812918,
Z,right,Target,0,30,30,30,378.91139222637867,380.91148878782406,right,1,1,0.7350165389361791,F30T02,2021_Sep_22_0840,t1_Paradigm,2021.1.4,60.03202670812918,
T,left,Distractor,0,31,31,31,382.41146649207803,384.4113269431691,left,1,1,0.7871741412964184,F30T02,2021_Sep_22_0840,t1_Paradigm,2021.1.4,60.03202670812918,
Z,left,Lure,0,32,32,32,385.9114602364425,387.91205917386105,left,1,1,0.438422847277252,F30T02,2021_Sep_22_0840,t1_Paradigm,2021.1.4,60.03202670812918,
F,left,Distractor,0,33,33,33,389.4113734594721,391.4116685973713,left,1,1,0.6994424781005364,F30T02,2021_Sep_22_0840,t1_Paradigm,2021.1.4,60.03202670812918,
Y,left,Pretarget,0,34,34,34,392.91112531907856,394.91155198580236,left,1,1,0.9269851311400998,F30T02,2021_Sep_22_0840,t1_Paradigm,2021.1.4,60.03202670812918,
Y,right,Target,0,35,35,35,396.4114687376714,398.4112489882682,right,1,1,0.8033217127958778,F30T02,2021_Sep_22_0840,t1_Paradigm,2021.1.4,60.03202670812918,
Y,right,Target,0,36,36,36,399.91129951458424,401.9113120258844,right,1,1,0.5351985620218329,F30T02,2021_Sep_22_0840,t1_Paradigm,2021.1.4,60.03202670812918,
W,left,Distractor,0,37,37,37,403.4115126875695,405.41156818633317,left,1,1,0.7152894580794964,F30T02,2021_Sep_22_0840,t1_Paradigm,2021.1.4,60.03202670812918,
Q,left,Distractor,0,38,38,38,406.9113312739937,408.9112536399043,left,1,1,0.7512253836612217,F30T02,2021_Sep_22_0840,t1_Paradigm,2021.1.4,60.03202670812918,
P,left,Pretarget,0,39,39,39,410.4111829030444,412.41152680286905,left,1,1,0.6429582184064202,F30T02,2021_Sep_22_0840,t1_Paradigm,2021.1.4,60.03202670812918,
P,right,Target,0,40,40,40,413.9114971286617,415.91143168503186,right,1,1,0.8870728641049936,F30T02,2021_Sep_22_0840,t1_Paradigm,2021.1.4,60.03202670812918,
J,left,Distractor,0,41,41,41,417.4110497701913,419.41106067746296,left,1,1,0.6355184979329351,F30T02,2021_Sep_22_0840,t1_Paradigm,2021.1.4,60.03202670812918,
P,left,Lure,0,42,42,42,420.9111856298696,422.9115510233969,left,1,1,0.7189177293621469,F30T02,2021_Sep_22_0840,t1_Paradigm,2021.1.4,60.03202670812918,
L,left,Distractor,0,43,43,43,424.4117006775632,426.41125251710764,left,1,1,0.6753181634412613,F30T02,2021_Sep_22_0840,t1_Paradigm,2021.1.4,60.03202670812918,
Z,left,Distractor,0,44,44,44,427.9114348930598,429.91122188049485,left,1,1,0.9032252476317808,F30T02,2021_Sep_22_0840,t1_Paradigm,2021.1.4,60.03202670812918,
F,left,Pretarget,0,45,45,45,431.41152519884054,433.41124834667426,left,1,1,0.5713064375158865,F30T02,2021_Sep_22_0840,t1_Paradigm,2021.1.4,60.03202670812918,
F,right,Target,0,46,46,46,434.9110656499106,436.9114470835484,right,1,1,0.5590434580808505,F30T02,2021_Sep_22_0840,t1_Paradigm,2021.1.4,60.03202670812918,
G,left,Pretarget,0,47,47,47,438.41139174517593,440.41148124897154,left,1,1,0.5954907421255484,F30T02,2021_Sep_22_0840,t1_Paradigm,2021.1.4,60.03202670812918,
G,right,Target,0,48,48,48,441.91132325393846,443.91161037178244,right,1,1,0.5509108051483054,F30T02,2021_Sep_22_0840,t1_Paradigm,2021.1.4,60.03202670812918,
V,left,Distractor,0,49,49,49,445.41136832663324,447.41145205596695,left,1,1,0.5710433798376471,F30T02,2021_Sep_22_0840,t1_Paradigm,2021.1.4,60.03202670812918,
G,left,Lure,0,50,50,50,448.91136977024144,450.9112199556839,left,1,1,0.7834682359534781,F30T02,2021_Sep_22_0840,t1_Paradigm,2021.1.4,60.03202670812918,
Q,left,Pretarget,0,51,51,51,452.4114908730262,454.41104880778585,left,1,1,0.6755497825506609,F30T02,2021_Sep_22_0840,t1_Paradigm,2021.1.4,60.03202670812918,
Q,right,Target,0,52,52,52,455.91132742437185,457.91115130405524,right,1,1,0.4393345667049289,F30T02,2021_Sep_22_0840,t1_Paradigm,2021.1.4,60.03202670812918,
Y,left,Distractor,0,53,53,53,459.4117635547591,461.4114013692597,left,1,1,0.41120920883258805,F30T02,2021_Sep_22_0840,t1_Paradigm,2021.1.4,60.03202670812918,
V,left,Distractor,0,54,54,54,462.91112788548344,464.91098127895384,left,1,1,0.607536859344691,F30T02,2021_Sep_22_0840,t1_Paradigm,2021.1.4,60.03202670812918,
B,left,Distractor,0,55,55,55,466.4113208479248,468.41158550963155,left,1,1,0.45087702470482327,F30T02,2021_Sep_22_0840,t1_Paradigm,2021.1.4,60.03202670812918,
J,left,Pretarget,0,56,56,56,469.9116347527597,471.9113986424345,left,1,1,0.9837767192220781,F30T02,2021_Sep_22_0840,t1_Paradigm,2021.1.4,60.03202670812918,
J,right,Target,0,57,57,57,473.4115088379476,475.41177446203073,right,1,1,0.8427761953207664,F30T02,2021_Sep_22_0840,t1_Paradigm,2021.1.4,60.03202670812918,
H,left,Distractor,0,58,58,58,476.9112873241247,478.9112603767426,left,1,1,0.8475949630083051,F30T02,2021_Sep_22_0840,t1_Paradigm,2021.1.4,60.03202670812918,
J,left,Lure,0,59,59,59,480.41187134425854,482.41168688307516,left,1,1,0.9792392949166242,F30T02,2021_Sep_22_0840,t1_Paradigm,2021.1.4,60.03202670812918,
D,left,Pretarget,0,60,60,60,483.91157797077904,485.9120816299983,left,1,1,0.726453690440394,F30T02,2021_Sep_22_0840,t1_Paradigm,2021.1.4,60.03202670812918,
D,right,Target,0,61,61,61,487.41117327898974,489.4116872038867,right,1,1,0.9228965089423582,F30T02,2021_Sep_22_0840,t1_Paradigm,2021.1.4,60.03202670812918,
R,left,Distractor,0,62,62,62,490.9114057000843,492.91161935424316,left,1,1,0.5909404857666232,F30T02,2021_Sep_22_0840,t1_Paradigm,2021.1.4,60.03202670812918,
F,left,Distractor,0,63,63,63,494.4113532489282,496.41151942440774,left,1,1,0.49951414528186433,F30T02,2021_Sep_22_0840,t1_Paradigm,2021.1.4,60.03202670812918,
F,left,Distractor,0,0,0,0,581.7300444278808,583.7279909739154,None,0,2,,F30T02,2021_Sep_22_0840,t1_Paradigm,2021.1.4,60.03202670812918,
N,left,Pretarget,0,1,1,1,585.2278519062384,587.227951996465,None,0,2,,F30T02,2021_Sep_22_0840,t1_Paradigm,2021.1.4,60.03202670812918,
V,left,Distractor,0,2,2,2,588.7277651292679,590.7280201668909,left,1,2,0.7108149109990336,F30T02,2021_Sep_22_0840,t1_Paradigm,2021.1.4,60.03202670812918,
N,right,Target,0,3,3,3,592.2278304124775,594.2276260615909,right,1,2,0.9390472884697374,F30T02,2021_Sep_22_0840,t1_Paradigm,2021.1.4,60.03202670812918,
N,left,Lure,0,4,4,4,595.7280426230573,597.7281690190721,left,1,2,0.8309004240145441,F30T02,2021_Sep_22_0840,t1_Paradigm,2021.1.4,60.03202670812918,
X,left,Distractor,0,5,5,5,599.2280755052634,601.2278557558602,right,0,2,0.7227789029129781,F30T02,2021_Sep_22_0840,t1_Paradigm,2021.1.4,60.03202670812918,
G,left,Pretarget,0,6,6,6,602.7275623823807,604.7279499112628,left,1,2,0.6468947804532945,F30T02,2021_Sep_22_0840,t1_Paradigm,2021.1.4,60.03202670812918,
H,left,Pretarget,0,7,7,7,606.2277518159826,608.2280200064997,left,1,2,0.6504916131088976,F30T02,2021_Sep_22_0840,t1_Paradigm,2021.1.4,60.03202670812918,
G,right,Target,0,8,8,8,609.7281786431267,611.7282973398687,right,1,2,0.7023219973780215,F30T02,2021_Sep_22_0840,t1_Paradigm,2021.1.4,60.03202670812918,
H,right,Target,0,9,9,9,613.2281310040271,615.2279754150077,right,1,2,0.914935164299095,F30T02,2021_Sep_22_0840,t1_Paradigm,2021.1.4,60.03202670812918,
T,left,Pretarget,0,10,10,10,616.7277818109724,618.7280493598955,left,1,2,0.6945172041596379,F30T02,2021_Sep_22_0840,t1_Paradigm,2021.1.4,60.03202670812918,
K,left,Distractor,0,11,11,11,620.22793691876,622.2275638259889,left,1,2,0.7950655510940123,F30T02,2021_Sep_22_0840,t1_Paradigm,2021.1.4,60.03202670812918,
T,right,Target,0,12,12,12,623.7279903323215,625.7280240165419,right,1,2,0.6865054935624357,F30T02,2021_Sep_22_0840,t1_Paradigm,2021.1.4,60.03202670812918,
T,left,Lure,0,13,13,13,627.2276462721056,629.2277187733853,left,1,2,0.7068449855432846,F30T02,2021_Sep_22_0840,t1_Paradigm,2021.1.4,60.03202670812918,
J,left,Distractor,0,14,14,14,630.7280018811871,632.7279800666438,left,1,2,0.9828755862254184,F30T02,2021_Sep_22_0840,t1_Paradigm,2021.1.4,60.03202670812918,
Q,left,Pretarget,0,15,15,15,634.2278201468289,636.2280469538819,left,1,2,0.8904752907110378,F30T02,2021_Sep_22_0840,t1_Paradigm,2021.1.4,60.03202670812918,
M,left,Distractor,0,16,16,16,637.7279877658875,639.7281481669343,left,1,2,0.5903919142438099,F30T02,2021_Sep_22_0840,t1_Paradigm,2021.1.4,60.03202670812918,
Q,right,Target,0,17,17,17,641.2280360466102,643.2283395253471,right,1,2,1.058268881548429,F30T02,2021_Sep_22_0840,t1_Paradigm,2021.1.4,60.03202670812918,
R,left,Distractor,0,18,18,18,644.7278639363067,646.7278908836888,left,1,2,1.0470728897489607,F30T02,2021_Sep_22_0840,t1_Paradigm,2021.1.4,60.03202670812918,
W,left,Distractor,0,19,19,19,648.2279234450834,650.227891685674,None,0,2,,F30T02,2021_Sep_22_0840,t1_Paradigm,2021.1.4,60.03202670812918,
C,left,Pretarget,0,20,20,20,651.727719896182,653.7281334100408,left,1,2,0.9104420107032638,F30T02,2021_Sep_22_0840,t1_Paradigm,2021.1.4,60.03202670812918,
T,left,Distractor,0,21,21,21,655.2281265127822,657.2275885277486,left,1,2,0.7710150209022686,F30T02,2021_Sep_22_0840,t1_Paradigm,2021.1.4,60.03202670812918,
C,right,Target,0,22,22,22,658.7278164575982,660.7280564175453,right,1,2,0.8544755255570635,F30T02,2021_Sep_22_0840,t1_Paradigm,2021.1.4,60.03202670812918,
F,left,Pretarget,0,23,23,23,662.2279122170003,664.2285121168534,left,1,2,0.9221230551775079,F30T02,2021_Sep_22_0840,t1_Paradigm,2021.1.4,60.03202670812918,
C,right,Target,0,24,24,24,665.7289774402452,667.7284680065641,right,1,2,0.8463550630840473,F30T02,2021_Sep_22_0840,t1_Paradigm,2021.1.4,60.03202670812918,
F,right,Target,0,25,25,25,669.228042462637,671.2280739012349,right,1,2,0.8185094445943832,F30T02,2021_Sep_22_0840,t1_Paradigm,2021.1.4,60.03202670812918,
H,left,Distractor,0,26,26,26,672.7277818109724,674.7282152145635,left,1,2,0.8542997259937692,F30T02,2021_Sep_22_0840,t1_Paradigm,2021.1.4,60.03202670812918,
H,left,Lure,0,27,27,27,676.2279888887133,678.2278939312964,None,0,2,,F30T02,2021_Sep_22_0840,t1_Paradigm,2021.1.4,60.03202670812918,
P,left,Distractor,0,28,28,28,679.7279646681563,681.7278777307947,left,1,2,0.9267563992762007,F30T02,2021_Sep_22_0840,t1_Paradigm,2021.1.4,60.03202670812918,
G,left,Pretarget,0,29,29,29,683.2279269738938,685.228283064178,left,1,2,1.4582724745268933,F30T02,2021_Sep_22_0840,t1_Paradigm,2021.1.4,60.03202670812918,
K,left,Distractor,0,30,30,30,686.7278944124992,688.7281523373385,left,1,2,1.4147008183936123,F30T02,2021_Sep_22_0840,t1_Paradigm,2021.1.4,60.03202670812918,
G,right,Target,0,31,31,31,690.2279462220322,692.2274483372457,right,1,2,0.9390745566633996,F30T02,2021_Sep_22_0840,t1_Paradigm,2021.1.4,60.03202670812918,
M,left,Pretarget,0,32,32,32,693.7279659513442,695.7284445880214,left,1,2,0.9581151211168617,F30T02,2021_Sep_22_0840,t1_Paradigm,2021.1.4,60.03202670812918,
B,left,Distractor,0,33,33,33,697.2283417709696,699.2278936104849,None,0,2,,F30T02,2021_Sep_22_0840,t1_Paradigm,2021.1.4,60.03202670812918,
M,right,Target,0,34,34,34,700.7279354751518,702.7279537608847,right,1,2,0.7266426428686827,F30T02,2021_Sep_22_0840,t1_Paradigm,2021.1.4,60.03202670812918,
M,left,Lure,0,35,35,35,704.2281396656763,706.2280549739371,left,1,2,1.4505379369365983,F30T02,2021_Sep_22_0840,t1_Paradigm,2021.1.4,60.03202670812918,
T,left,Distractor,0,36,36,36,707.7278783723887,709.7278533498466,left,1,2,0.6706918770214543,F30T02,2021_Sep_22_0840,t1_Paradigm,2021.1.4,60.03202670812918,
F,left,Distractor,0,37,37,37,711.2280238561216,713.2279526380589,left,1,2,0.818544732814189,F30T02,2021_Sep_22_0840,t1_Paradigm,2021.1.4,60.03202670812918,
X,left,Distractor,0,38,38,38,714.7280127884587,716.728049680707,None,0,2,,F30T02,2021_Sep_22_0840,t1_Paradigm,2021.1.4,60.03202670812918,
C,left,Distractor,0,39,39,39,718.2280937909673,720.2282878762344,left,1,2,0.7943857715290505,F30T02,2021_Sep_22_0840,t1_Paradigm,2021.1.4,60.03202670812918,
R,left,Distractor,0,40,40,40,721.7275007883727,723.7278697107395,None,0,2,,F30T02,2021_Sep_22_0840,t1_Paradigm,2021.1.4,60.03202670812918,
B,left,Pretarget,0,41,41,41,725.2282346230932,727.2283382421301,left,1,2,1.1701219721580856,F30T02,2021_Sep_22_0840,t1_Paradigm,2021.1.4,60.03202670812918,
H,left,Distractor,0,42,42,42,728.7281629238278,730.7282665428938,left,1,2,1.254298506944906,F30T02,2021_Sep_22_0840,t1_Paradigm,2021.1.4,60.03202670812918,
B,right,Target,0,43,43,43,732.2280578611535,734.2284104225982,left,0,2,0.6501807559106965,F30T02,2021_Sep_22_0840,t1_Paradigm,2021.1.4,60.03202670812918,
W,left,Pretarget,0,44,44,44,735.7277606380521,737.728334873711,left,1,2,0.9421459155273624,F30T02,2021_Sep_22_0840,t1_Paradigm,2021.1.4,60.03202670812918,
L,left,Pretarget,0,45,45,45,739.2282683072845,741.2277826129866,None,0,2,,F30T02,2021_Sep_22_0840,t1_Paradigm,2021.1.4,60.03202670812918,
W,right,Target,0,46,46,46,742.72856103917,744.7276031242218,right,1,2,0.551008649810683,F30T02,2021_Sep_22_0840,t1_Paradigm,2021.1.4,60.03202670812918,
L,right,Target,0,47,47,47,746.2280219313106,748.2276247783739,right,1,2,0.8589664335304406,F30T02,2021_Sep_22_0840,t1_Paradigm,2021.1.4,60.03202670812918,
W,right,Target,0,48,48,48,749.7278908836888,751.7282928486529,right,1,2,0.8305321432417259,F30T02,2021_Sep_22_0840,t1_Paradigm,2021.1.4,60.03202670812918,
X,left,Distractor,0,49,49,49,753.2280841669126,755.2278336205054,left,1,2,0.7867436249507591,F30T02,2021_Sep_22_0840,t1_Paradigm,2021.1.4,60.03202670812918,
R,left,Distractor,0,50,50,50,756.7277138009376,758.727580347273,left,1,2,0.5670288628898561,F30T02,2021_Sep_22_0840,t1_Paradigm,2021.1.4,60.03202670812918,
V,left,Pretarget,0,51,51,51,760.2277370590891,762.2278214300168,left,1,2,0.5226901690475643,F30T02,2021_Sep_22_0840,t1_Paradigm,2021.1.4,60.03202670812918,
Z,left,Distractor,0,52,52,52,763.7282039864804,765.727973008994,left,1,2,1.038650231756037,F30T02,2021_Sep_22_0840,t1_Paradigm,2021.1.4,60.03202670812918,
V,right,Target,0,53,53,53,767.228117209539,769.2282756857458,None,0,2,,F30T02,2021_Sep_22_0840,t1_Paradigm,2021.1.4,60.03202670812918,
V,left,Lure,0,54,54,54,770.7281638862332,772.7285636055749,left,1,2,1.3179982464935165,F30T02,2021_Sep_22_0840,t1_Paradigm,2021.1.4,60.03202670812918,
N,left,Distractor,0,55,55,55,774.228100848617,776.2280652395857,left,1,2,0.6185506355541293,F30T02,2021_Sep_22_0840,t1_Paradigm,2021.1.4,60.03202670812918,
B,left,Distractor,0,56,56,56,777.7279499112628,779.7283101719513,left,1,2,1.1828359992359765,F30T02,2021_Sep_22_0840,t1_Paradigm,2021.1.4,60.03202670812918,
V,left,Lure,0,57,57,57,781.2280155152839,783.2279622621427,left,1,2,1.2831090980325826,F30T02,2021_Sep_22_0840,t1_Paradigm,2021.1.4,60.03202670812918,
J,left,Distractor,0,58,58,58,784.7277834149718,786.7282283674285,left,1,2,0.5667847325094044,F30T02,2021_Sep_22_0840,t1_Paradigm,2021.1.4,60.03202670812918,
H,left,Distractor,0,59,59,59,788.2282330190646,790.2282067133056,None,0,2,,F30T02,2021_Sep_22_0840,t1_Paradigm,2021.1.4,60.03202670812918,
X,left,Pretarget,0,60,60,60,791.7282957358693,793.7285084276227,left,1,2,0.9260275370033924,F30T02,2021_Sep_22_0840,t1_Paradigm,2021.1.4,60.03202670812918,
P,left,Distractor,0,61,61,61,795.2284101018158,797.228222111793,left,1,2,0.8023082991421688,F30T02,2021_Sep_22_0840,t1_Paradigm,2021.1.4,60.03202670812918,
X,right,Target,0,62,62,62,798.7284516456712,800.7284843674861,None,0,2,,F30T02,2021_Sep_22_0840,t1_Paradigm,2021.1.4,60.03202670812918,
Q,left,Distractor,0,63,63,63,802.2279712446034,804.2279247283004,left,1,2,0.5706337155716028,F30T02,2021_Sep_22_0840,t1_Paradigm,2021.1.4,60.03202670812918,
B,left,Pretarget,0,0,0,0,812.9643884053221,814.9614463296602,None,0,2,,F30T02,2021_Sep_22_0840,t1_Paradigm,2021.1.4,60.03202670812918,
F,left,Distractor,0,1,1,1,816.4613403045805,818.4612601040571,None,0,2,,F30T02,2021_Sep_22_0840,t1_Paradigm,2021.1.4,60.03202670812918,
B,right,Target,0,2,2,2,819.9612368459057,821.9611171867582,right,1,2,0.8216016555961687,F30T02,2021_Sep_22_0840,t1_Paradigm,2021.1.4,60.03202670812918,
V,left,Distractor,0,3,3,3,823.4610400338424,825.4612909010611,left,1,2,0.8573537615884561,F30T02,2021_Sep_22_0840,t1_Paradigm,2021.1.4,60.03202670812918,
G,left,Pretarget,0,4,4,4,826.9616949512565,828.9613969261409,left,1,2,0.8455325266113505,F30T02,2021_Sep_22_0840,t1_Paradigm,2021.1.4,60.03202670812918,
B,left,Lure,0,5,5,5,830.4613637231232,832.4612848058168,left,1,2,0.5933028721192386,F30T02,2021_Sep_22_0840,t1_Paradigm,2021.1.4,60.03202670812918,
G,right,Target,0,6,6,6,833.9609673722007,835.9613529762719,left,0,2,0.789224387233844,F30T02,2021_Sep_22_0840,t1_Paradigm,2021.1.4,60.03202670812918,
Y,left,Pretarget,0,7,7,7,837.4614602845395,839.461627743236,left,1,2,0.5369219106796663,F30T02,2021_Sep_22_0840,t1_Paradigm,2021.1.4,60.03202670812918,
P,left,Distractor,0,8,8,8,840.9613199336454,842.9613141592126,left,1,2,0.6692216411756817,F30T02,2021_Sep_22_0840,t1_Paradigm,2021.1.4,60.03202670812918,
Y,right,Target,0,9,9,9,844.4613958033442,846.4611118935281,None,0,2,,F30T02,2021_Sep_22_0840,t1_Paradigm,2021.1.4,60.03202670812918,
X,left,Distractor,0,10,10,10,847.9613975677348,849.9613709411642,left,1,2,1.1092215513344854,F30T02,2021_Sep_22_0840,t1_Paradigm,2021.1.4,60.03202670812918,
Y,right,Target,0,11,11,11,851.4620284249831,853.461072434875,right,1,2,0.5216684144979808,F30T02,2021_Sep_22_0840,t1_Paradigm,2021.1.4,60.03202670812918,
N,left,Distractor,0,12,12,12,854.9610992218368,856.9614995828015,left,1,2,0.8133089224284049,F30T02,2021_Sep_22_0840,t1_Paradigm,2021.1.4,60.03202670812918,
Y,right,Target,0,13,13,13,858.4616174775583,860.4611885652121,right,1,2,0.5773952605377417,F30T02,2021_Sep_22_0840,t1_Paradigm,2021.1.4,60.03202670812918,
Y,left,Lure,0,14,14,14,861.9613831316528,863.9615627808089,left,1,2,0.6770748755079694,F30T02,2021_Sep_22_0840,t1_Paradigm,2021.1.4,60.03202670812918,
K,left,Distractor,0,15,15,15,865.461629668047,867.4615565251734,left,1,2,1.0652700656210072,F30T02,2021_Sep_22_0840,t1_Paradigm,2021.1.4,60.03202670812918,
T,left,Pretarget,0,16,16,16,868.9612384499342,870.9614373471995,left,1,2,1.3570921474893112,F30T02,2021_Sep_22_0840,t1_Paradigm,2021.1.4,60.03202670812918,
J,left,Distractor,0,17,17,17,872.4613447957963,874.4613544198801,left,1,2,0.5773984685656615,F30T02,2021_Sep_22_0840,t1_Paradigm,2021.1.4,60.03202670812918,
T,right,Target,0,18,18,18,875.961424515117,877.961602881056,right,1,2,0.6133696823671926,F30T02,2021_Sep_22_0840,t1_Paradigm,2021.1.4,60.03202670812918,
S,left,Pretarget,0,19,19,19,879.4616088159091,881.4615613372007,left,1,2,1.2089675723400433,F30T02,2021_Sep_22_0840,t1_Paradigm,2021.1.4,60.03202670812918,
R,left,Distractor,0,20,20,20,882.9613208960509,884.9611313020287,left,1,2,0.7978722482803278,F30T02,2021_Sep_22_0840,t1_Paradigm,2021.1.4,60.03202670812918,
S,right,Target,0,21,21,21,886.461431091564,888.4612280238653,left,0,2,0.6093490701459814,F30T02,2021_Sep_22_0840,t1_Paradigm,2021.1.4,60.03202670812918,
Q,left,Distractor,0,22,22,22,889.9618476530304,891.9612169562024,left,1,2,0.8533966682152823,F30T02,2021_Sep_22_0840,t1_Paradigm,2021.1.4,60.03202670812918,
D,left,Distractor,0,23,23,23,893.4617377783288,895.4609255075338,left,1,2,1.4177538915828336,F30T02,2021_Sep_22_0840,t1_Paradigm,2021.1.4,60.03202670812918,
F,left,Distractor,0,24,24,24,896.961424515117,898.961393076519,left,1,2,0.8932611357595306,F30T02,2021_Sep_22_0840,t1_Paradigm,2021.1.4,60.03202670812918,
Z,left,Distractor,0,25,25,25,900.4621198535897,902.4613951617212,left,1,2,0.7531976746977307,F30T02,2021_Sep_22_0840,t1_Paradigm,2021.1.4,60.03202670812918,
P,left,Distractor,0,26,26,26,903.9616834023909,905.9624757834536,left,1,2,0.7240678855450824,F30T02,2021_Sep_22_0840,t1_Paradigm,2021.1.4,60.03202670812918,
H,left,Distractor,0,27,27,27,907.4608677631477,909.4609306403436,left,1,2,0.5696055449952837,F30T02,2021_Sep_22_0840,t1_Paradigm,2021.1.4,60.03202670812918,
Z,left,Pretarget,0,28,28,28,910.9621267508192,912.9621081443038,None,0,2,,F30T02,2021_Sep_22_0840,t1_Paradigm,2021.1.4,60.03202670812918,
J,left,Pretarget,0,29,29,29,914.4619215979183,916.4624329563812,left,1,2,0.7200950729020406,F30T02,2021_Sep_22_0840,t1_Paradigm,2021.1.4,60.03202670812918,
Z,right,Target,0,30,30,30,917.9615037532349,919.9620638736233,left,0,2,0.8684657032135874,F30T02,2021_Sep_22_0840,t1_Paradigm,2021.1.4,60.03202670812918,
J,right,Target,0,31,31,31,921.461505838437,923.4619517532992,left,0,2,0.7129803248972166,F30T02,2021_Sep_22_0840,t1_Paradigm,2021.1.4,60.03202670812918,
V,left,Pretarget,0,32,32,32,924.9610899185645,926.9616012770566,left,1,2,0.7814041955280118,F30T02,2021_Sep_22_0840,t1_Paradigm,2021.1.4,60.03202670812918,
Z,left,Lure,0,33,33,33,928.4617384199228,930.4617441943556,left,1,2,0.6248688320629299,F30T02,2021_Sep_22_0840,t1_Paradigm,2021.1.4,60.03202670812918,
V,right,Target,0,34,34,34,931.9616551717918,933.962190911232,left,0,2,1.3485177501570433,F30T02,2021_Sep_22_0840,t1_Paradigm,2021.1.4,60.03202670812918,
X,left,Distractor,0,35,35,35,935.4617714625492,937.4614355827798,left,1,2,0.8891218268254306,F30T02,2021_Sep_22_0840,t1_Paradigm,2021.1.4,60.03202670812918,
S,left,Distractor,0,36,36,36,938.961875562818,940.9612086153356,left,1,2,0.8297227596631274,F30T02,2021_Sep_22_0840,t1_Paradigm,2021.1.4,60.03202670812918,
Q,left,Distractor,0,37,37,37,942.4610820589296,944.4613348509301,left,1,2,0.513500794157153,F30T02,2021_Sep_22_0840,t1_Paradigm,2021.1.4,60.03202670812918,
P,left,Distractor,0,38,38,38,945.9615858785401,947.9616943096626,left,1,2,0.6928804720519111,F30T02,2021_Sep_22_0840,t1_Paradigm,2021.1.4,60.03202670812918,
S,left,Lure,0,39,39,39,949.4620512019319,951.4614936479484,left,1,2,0.473110211227322,F30T02,2021_Sep_22_0840,t1_Paradigm,2021.1.4,60.03202670812918,
K,left,Pretarget,0,40,40,40,952.9620654776227,954.9613597131101,left,1,2,0.717193418298848,F30T02,2021_Sep_22_0840,t1_Paradigm,2021.1.4,60.03202670812918,
L,left,Distractor,0,41,41,41,956.4617259086517,958.4617249462462,left,1,2,0.7847848075616639,F30T02,2021_Sep_22_0840,t1_Paradigm,2021.1.4,60.03202670812918,
K,right,Target,0,42,42,42,959.9612339586893,961.9613892268972,left,0,2,0.7251765774853993,F30T02,2021_Sep_22_0840,t1_Paradigm,2021.1.4,60.03202670812918,
B,left,Distractor,0,43,43,43,963.4612498384085,965.4616479537508,left,1,2,0.8249431297881529,F30T02,2021_Sep_22_0840,t1_Paradigm,2021.1.4,60.03202670812918,
N,left,Distractor,0,44,44,44,966.9613263497013,968.961302610347,left,1,2,0.8136624463077169,F30T02,2021_Sep_22_0840,t1_Paradigm,2021.1.4,60.03202670812918,
S,left,Pretarget,0,45,45,45,970.4613156028208,972.4612209662155,right,0,2,1.2013235009508207,F30T02,2021_Sep_22_0840,t1_Paradigm,2021.1.4,60.03202670812918,
Z,left,Distractor,0,46,46,46,973.9614796930691,975.9623012671364,left,1,2,1.18830599510693,F30T02,2021_Sep_22_0840,t1_Paradigm,2021.1.4,60.03202670812918,
S,right,Target,0,47,47,47,977.46140029456,979.4612722945458,right,1,2,1.241361201624386,F30T02,2021_Sep_22_0840,t1_Paradigm,2021.1.4,60.03202670812918,
C,left,Distractor,0,48,48,48,980.9617113121494,982.9613731867867,left,1,2,0.6852553279604763,F30T02,2021_Sep_22_0840,t1_Paradigm,2021.1.4,60.03202670812918,
T,left,Pretarget,0,49,49,49,984.4616989612696,986.4618320941227,left,1,2,0.7847931484284345,F30T02,2021_Sep_22_0840,t1_Paradigm,2021.1.4,60.03202670812918,
S,left,Lure,0,50,50,50,987.9621299588471,989.9622662997281,left,1,2,0.8202857255528215,F30T02,2021_Sep_22_0840,t1_Paradigm,2021.1.4,60.03202670812918,
T,right,Target,0,51,51,51,991.4621599538368,993.4621840139735,right,1,2,0.6644577306287829,F30T02,2021_Sep_22_0840,t1_Paradigm,2021.1.4,60.03202670812918,
N,left,Pretarget,0,52,52,52,994.9616218083829,996.9616012770566,left,1,2,0.8133079600229394,F30T02,2021_Sep_22_0840,t1_Paradigm,2021.1.4,60.03202670812918,
B,left,Distractor,0,53,53,53,998.4617474023835,1000.4614663797838,left,1,2,1.121146726218285,F30T02,2021_Sep_22_0840,t1_Paradigm,2021.1.4,60.03202670812918,
N,right,Target,0,54,54,54,1001.9612936278863,1003.9611460589222,right,1,2,0.9495301372662652,F30T02,2021_Sep_22_0840,t1_Paradigm,2021.1.4,60.03202670812918,
N,left,Lure,0,55,55,55,1005.4613967657497,1007.4623684751568,left,1,2,1.16022875753697,F30T02,2021_Sep_22_0840,t1_Paradigm,2021.1.4,60.03202670812918,
X,left,Distractor,0,56,56,56,1008.9615631016204,1010.9615015076124,left,1,2,0.6850750372104812,F30T02,2021_Sep_22_0840,t1_Paradigm,2021.1.4,60.03202670812918,
W,left,Distractor,0,57,57,57,1012.4612254574313,1014.4615497883351,None,0,2,,F30T02,2021_Sep_22_0840,t1_Paradigm,2021.1.4,60.03202670812918,
S,left,Distractor,0,58,58,58,1015.9627773373795,1017.9617703397234,left,1,2,0.9490810143761337,F30T02,2021_Sep_22_0840,t1_Paradigm,2021.1.4,60.03202670812918,
L,left,Distractor,0,59,59,59,1019.461460605351,1021.4608552518766,left,1,2,0.857848117564572,F30T02,2021_Sep_22_0840,t1_Paradigm,2021.1.4,60.03202670812918,
K,left,Pretarget,0,60,60,60,1022.961210219335,1024.9617459587753,left,1,2,0.8291883034107741,F30T02,2021_Sep_22_0840,t1_Paradigm,2021.1.4,60.03202670812918,
V,left,Pretarget,0,61,61,61,1026.461779803387,1028.4616864499985,None,0,2,,F30T02,2021_Sep_22_0840,t1_Paradigm,2021.1.4,60.03202670812918,
K,right,Target,0,62,62,62,1029.9613677331654,1031.9612618684769,right,1,2,1.0933219598373398,F30T02,2021_Sep_22_0840,t1_Paradigm,2021.1.4,60.03202670812918,
V,right,Target,0,63,63,63,1033.4618766856147,1035.4612687657063,left,0,2,1.2894311441632453,F30T02,2021_Sep_22_0840,t1_Paradigm,2021.1.4,60.03202670812918,
R,left,Distractor,0,0,0,0,1116.3970403443964,1118.3944280532305,None,0,3,,F30T02,2021_Sep_22_0840,t1_Paradigm,2021.1.4,60.03202670812918,
P,left,Lure,0,1,1,1,1119.8951144092425,1121.8946229404828,None,0,3,,F30T02,2021_Sep_22_0840,t1_Paradigm,2021.1.4,60.03202670812918,
V,left,Distractor,0,2,2,2,1123.3948521535494,1125.3945204442425,left,1,3,0.956196724815527,F30T02,2021_Sep_22_0840,t1_Paradigm,2021.1.4,60.03202670812918,
P,left,Pretarget,0,3,3,3,1126.894668173598,1128.8943983790523,None,0,3,,F30T02,2021_Sep_22_0840,t1_Paradigm,2021.1.4,60.03202670812918,
Z,left,Distractor,0,4,4,4,1130.3948685144715,1132.3943087148655,left,1,3,1.1883075991354417,F30T02,2021_Sep_22_0840,t1_Paradigm,2021.1.4,60.03202670812918,
L,left,Pretarget,0,5,5,5,1133.89497967239,1135.8944429705443,left,1,3,0.7286989840504248,F30T02,2021_Sep_22_0840,t1_Paradigm,2021.1.4,60.03202670812918,
P,right,Target,0,6,6,6,1137.39443158207,1139.3943475319247,left,0,3,0.4924314774980303,F30T02,2021_Sep_22_0840,t1_Paradigm,2021.1.4,60.03202670812918,
S,left,Distractor,0,7,7,7,1140.8942549805215,1142.8943849053758,None,0,3,,F30T02,2021_Sep_22_0840,t1_Paradigm,2021.1.4,60.03202670812918,
L,right,Target,0,8,8,8,1144.3946911109379,1146.3945983991434,left,0,3,1.012660773965763,F30T02,2021_Sep_22_0840,t1_Paradigm,2021.1.4,60.03202670812918,
D,left,Distractor,0,9,9,9,1147.895219632308,1149.894468313898,left,1,3,0.8722200496704318,F30T02,2021_Sep_22_0840,t1_Paradigm,2021.1.4,60.03202670812918,
G,left,Distractor,0,10,10,10,1151.3946041735762,1153.394518840214,left,1,3,0.8761935039365198,F30T02,2021_Sep_22_0840,t1_Paradigm,2021.1.4,60.03202670812918,
M,left,Pretarget,0,11,11,11,1154.894871562079,1156.8946104292118,left,1,3,1.248338646342745,F30T02,2021_Sep_22_0840,t1_Paradigm,2021.1.4,60.03202670812918,
Y,left,Distractor,0,12,12,12,1158.394400785066,1160.3945865294663,left,1,3,1.3803852639975958,F30T02,2021_Sep_22_0840,t1_Paradigm,2021.1.4,60.03202670812918,
V,left,Distractor,0,13,13,13,1161.8950168854208,1163.894542419177,right,0,3,1.1601851284503937,F30T02,2021_Sep_22_0840,t1_Paradigm,2021.1.4,60.03202670812918,
M,right,Target,0,14,14,14,1165.3947629705945,1167.3946959229652,right,1,3,1.0039355996414088,F30T02,2021_Sep_22_0840,t1_Paradigm,2021.1.4,60.03202670812918,
S,left,Pretarget,0,15,15,15,1168.8945648753142,1170.8946591911372,None,0,3,,F30T02,2021_Sep_22_0840,t1_Paradigm,2021.1.4,60.03202670812918,
Q,left,Distractor,0,16,16,16,1172.3944607750454,1174.3943359830591,left,1,3,0.6127691408910323,F30T02,2021_Sep_22_0840,t1_Paradigm,2021.1.4,60.03202670812918,
R,left,Pretarget,0,17,17,17,1175.8945231710677,1177.8949543290073,left,1,3,0.7756223800242878,F30T02,2021_Sep_22_0840,t1_Paradigm,2021.1.4,60.03202670812918,
S,right,Target,0,18,18,18,1179.3953561335802,1181.395848885557,None,0,3,,F30T02,2021_Sep_22_0840,t1_Paradigm,2021.1.4,60.03202670812918,
F,left,Distractor,0,19,19,19,1182.894568724936,1184.894694479357,left,1,3,1.2643023982818704,F30T02,2021_Sep_22_0840,t1_Paradigm,2021.1.4,60.03202670812918,
R,right,Target,0,20,20,20,1186.3948114117084,1188.3951248353114,left,0,3,1.3478588227008004,F30T02,2021_Sep_22_0840,t1_Paradigm,2021.1.4,60.03202670812918,
P,left,Distractor,0,21,21,21,1189.894832745049,1191.8947676222306,None,0,3,,F30T02,2021_Sep_22_0840,t1_Paradigm,2021.1.4,60.03202670812918,
L,left,Distractor,0,22,22,22,1193.3949419781275,1195.3947270407516,left,1,3,1.180280810862314,F30T02,2021_Sep_22_0840,t1_Paradigm,2021.1.4,60.03202670812918,
R,right,Target,0,23,23,23,1196.8949604242516,1198.894571932964,right,1,3,1.0560476481041405,F30T02,2021_Sep_22_0840,t1_Paradigm,2021.1.4,60.03202670812918,
H,left,Pretarget,0,24,24,24,1200.3953115421173,1202.3951963741565,left,1,3,0.5797852358664386,F30T02,2021_Sep_22_0840,t1_Paradigm,2021.1.4,60.03202670812918,
G,left,Pretarget,0,25,25,25,1203.894465747493,1205.8946973665734,left,1,3,1.0320179700502194,F30T02,2021_Sep_22_0840,t1_Paradigm,2021.1.4,60.03202670812918,
T,left,Distractor,0,26,26,26,1207.3946461986343,1209.394971812726,left,1,3,0.6997655257873703,F30T02,2021_Sep_22_0840,t1_Paradigm,2021.1.4,60.03202670812918,
H,right,Target,0,27,27,27,1210.8952311812027,1212.8945674417482,left,0,3,0.8165599304775242,F30T02,2021_Sep_22_0840,t1_Paradigm,2021.1.4,60.03202670812918,
G,right,Target,0,28,28,28,1214.3945977575204,1216.3944620582624,left,0,3,0.42019551602425054,F30T02,2021_Sep_22_0840,t1_Paradigm,2021.1.4,60.03202670812918,
D,left,Distractor,0,29,29,29,1217.8947079530335,1219.8948122136935,left,1,3,0.7597234301210847,F30T02,2021_Sep_22_0840,t1_Paradigm,2021.1.4,60.03202670812918,
N,left,Pretarget,0,30,30,30,1221.394296524406,1223.3944787399669,None,0,3,,F30T02,2021_Sep_22_0840,t1_Paradigm,2021.1.4,60.03202670812918,
V,left,Distractor,0,31,31,31,1224.894736504415,1226.8949360433035,left,1,3,0.8480258001654875,F30T02,2021_Sep_22_0840,t1_Paradigm,2021.1.4,60.03202670812918,
R,left,Distractor,0,32,32,32,1228.3955229506537,1230.3946452362288,right,0,3,1.3482838854542933,F30T02,2021_Sep_22_0840,t1_Paradigm,2021.1.4,60.03202670812918,
N,right,Target,0,33,33,33,1231.8946364141884,1233.8948638628353,right,1,3,1.0001206215529237,F30T02,2021_Sep_22_0840,t1_Paradigm,2021.1.4,60.03202670812918,
Z,left,Distractor,0,34,34,34,1235.3953734569077,1237.3946417074185,left,1,3,1.0680616851022933,F30T02,2021_Sep_22_0840,t1_Paradigm,2021.1.4,60.03202670812918,
N,left,Lure,0,35,35,35,1238.895237276418,1240.8951294869476,None,0,3,,F30T02,2021_Sep_22_0840,t1_Paradigm,2021.1.4,60.03202670812918,
Y,left,Pretarget,0,36,36,36,1242.3947212663188,1244.3946221384977,left,1,3,0.7240842464671005,F30T02,2021_Sep_22_0840,t1_Paradigm,2021.1.4,60.03202670812918,
Y,left,Lure,0,37,37,37,1245.894556855259,1247.8947945695836,left,1,3,1.4320995179296006,F30T02,2021_Sep_22_0840,t1_Paradigm,2021.1.4,60.03202670812918,
B,left,Distractor,0,38,38,38,1249.3944011058775,1251.3946959229652,right,0,3,0.7961447292182129,F30T02,2021_Sep_22_0840,t1_Paradigm,2021.1.4,60.03202670812918,
Y,right,Target,0,39,39,39,1252.8947323339817,1254.8946713815967,right,1,3,1.0239821993163787,F30T02,2021_Sep_22_0840,t1_Paradigm,2021.1.4,60.03202670812918,
J,left,Distractor,0,40,40,40,1256.39477451946,1258.3949833615916,left,1,3,1.4276384445256554,F30T02,2021_Sep_22_0840,t1_Paradigm,2021.1.4,60.03202670812918,
X,left,Distractor,0,41,41,41,1259.8951779280615,1261.8952270107693,left,1,3,0.8873981573851779,F30T02,2021_Sep_22_0840,t1_Paradigm,2021.1.4,60.03202670812918,
W,left,Pretarget,0,42,42,42,1263.3948495871446,1265.3952922939789,left,1,3,0.8434421803976875,F30T02,2021_Sep_22_0840,t1_Paradigm,2021.1.4,60.03202670812918,
S,left,Pretarget,0,43,43,43,1266.8946251861053,1268.8951734368165,left,1,3,0.6074964383151382,F30T02,2021_Sep_22_0840,t1_Paradigm,2021.1.4,60.03202670812918,
R,left,Distractor,0,44,44,44,1270.3945971159264,1272.395033406734,None,0,3,,F30T02,2021_Sep_22_0840,t1_Paradigm,2021.1.4,60.03202670812918,
W,right,Target,0,45,45,45,1273.8947647350142,1275.8946357725654,None,0,3,,F30T02,2021_Sep_22_0840,t1_Paradigm,2021.1.4,60.03202670812918,
S,right,Target,0,46,46,46,1277.3952335872164,1279.3943472111132,left,0,3,0.6203079892438836,F30T02,2021_Sep_22_0840,t1_Paradigm,2021.1.4,60.03202670812918,
D,left,Distractor,0,47,47,47,1280.8945841234527,1282.8948398026987,left,1,3,0.5438342326087877,F30T02,2021_Sep_22_0840,t1_Paradigm,2021.1.4,60.03202670812918,
T,left,Distractor,0,48,48,48,1284.3948880833923,1286.3956284945307,None,0,3,,F30T02,2021_Sep_22_0840,t1_Paradigm,2021.1.4,60.03202670812918,
S,right,Target,0,49,49,49,1287.8952090458479,1289.8947833415295,left,0,3,1.0482611405604985,F30T02,2021_Sep_22_0840,t1_Paradigm,2021.1.4,60.03202670812918,
K,left,Distractor,0,50,50,50,1291.3944790607784,1293.39482231898,None,0,3,,F30T02,2021_Sep_22_0840,t1_Paradigm,2021.1.4,60.03202670812918,
S,left,Lure,0,51,51,51,1294.894545627205,1296.8946739480307,None,0,3,,F30T02,2021_Sep_22_0840,t1_Paradigm,2021.1.4,60.03202670812918,
T,left,Pretarget,0,52,52,52,1298.3945833214384,1300.3947844643262,left,1,3,0.9643293777189683,F30T02,2021_Sep_22_0840,t1_Paradigm,2021.1.4,60.03202670812918,
V,left,Distractor,0,53,53,53,1301.8942177674908,1303.8946428302152,None,0,3,,F30T02,2021_Sep_22_0840,t1_Paradigm,2021.1.4,60.03202670812918,
B,left,Distractor,0,54,54,54,1305.3943407950865,1307.3950035721355,left,1,3,0.5076782368123531,F30T02,2021_Sep_22_0840,t1_Paradigm,2021.1.4,60.03202670812918,
T,right,Target,0,55,55,55,1308.8948680332687,1310.895055060857,left,0,3,0.09598846652079374,F30T02,2021_Sep_22_0840,t1_Paradigm,2021.1.4,60.03202670812918,
Y,left,Pretarget,0,56,56,56,1312.3947382688348,1314.3948329054401,left,1,3,0.3238381271075923,F30T02,2021_Sep_22_0840,t1_Paradigm,2021.1.4,60.03202670812918,
T,left,Lure,0,57,57,57,1315.8960335071315,1317.8947589605523,left,1,3,0.4239405592379626,F30T02,2021_Sep_22_0840,t1_Paradigm,2021.1.4,60.03202670812918,
P,left,Pretarget,0,58,58,58,1319.3951950909686,1321.394699130993,left,1,3,1.1001078857225366,F30T02,2021_Sep_22_0840,t1_Paradigm,2021.1.4,60.03202670812918,
Y,right,Target,0,59,59,59,1322.8944259680284,1324.8949989204993,left,0,3,1.0875917935045436,F30T02,2021_Sep_22_0840,t1_Paradigm,2021.1.4,60.03202670812918,
R,left,Distractor,0,60,60,60,1326.3947799731104,1328.3944078427157,left,1,3,0.7563158706761897,F30T02,2021_Sep_22_0840,t1_Paradigm,2021.1.4,60.03202670812918,
P,right,Target,0,61,61,61,1329.8947336171987,1331.8947316923877,left,0,3,0.6319970537442714,F30T02,2021_Sep_22_0840,t1_Paradigm,2021.1.4,60.03202670812918,
L,left,Distractor,0,62,62,62,1333.3945454667846,1335.3943876321719,left,1,3,0.3003124291135464,F30T02,2021_Sep_22_0840,t1_Paradigm,2021.1.4,60.03202670812918,
V,left,Distractor,0,63,63,63,1336.8954243040353,1338.8951840232767,left,1,3,0.33541298611089587,F30T02,2021_Sep_22_0840,t1_Paradigm,2021.1.4,60.03202670812918,
H,left,Lure,0,0,0,0,1349.8330770659668,1351.827885205479,left,1,3,1.0027277798799332,F30T02,2021_Sep_22_0840,t1_Paradigm,2021.1.4,60.03202670812918,
B,left,Distractor,0,1,1,1,1353.3277916916704,1355.3277262480697,None,0,3,,F30T02,2021_Sep_22_0840,t1_Paradigm,2021.1.4,60.03202670812918,
T,left,Distractor,0,2,2,2,1356.8279522531084,1358.827769075142,left,1,3,0.5472754762449767,F30T02,2021_Sep_22_0840,t1_Paradigm,2021.1.4,60.03202670812918,
R,left,Distractor,0,3,3,3,1360.3275424284802,1362.3281737669313,None,0,3,,F30T02,2021_Sep_22_0840,t1_Paradigm,2021.1.4,60.03202670812918,
H,left,Pretarget,0,4,4,4,1363.8283356115571,1365.8279102280503,right,0,3,0.9866992259339895,F30T02,2021_Sep_22_0840,t1_Paradigm,2021.1.4,60.03202670812918,
K,left,Distractor,0,5,5,5,1367.3278122229967,1369.3275279923982,left,1,3,0.943091640016064,F30T02,2021_Sep_22_0840,t1_Paradigm,2021.1.4,60.03202670812918,
G,left,Distractor,0,6,6,6,1370.8282576566562,1372.8278759022069,left,1,3,0.6268122509063687,F30T02,2021_Sep_22_0840,t1_Paradigm,2021.1.4,60.03202670812918,
H,right,Target,0,7,7,7,1374.3276758821448,1376.3276521427906,right,1,3,0.9510667791182641,F30T02,2021_Sep_22_0840,t1_Paradigm,2021.1.4,60.03202670812918,
Y,left,Pretarget,0,8,8,8,1377.8276712305087,1379.8278358019597,left,1,3,0.8587668946420308,F30T02,2021_Sep_22_0840,t1_Paradigm,2021.1.4,60.03202670812918,
S,left,Distractor,0,9,9,9,1381.3279103884415,1383.327987380937,left,1,3,0.7026267593028024,F30T02,2021_Sep_22_0840,t1_Paradigm,2021.1.4,60.03202670812918,
P,left,Distractor,0,10,10,10,1384.8282268596813,1386.8278059673612,left,1,3,0.866983597719809,F30T02,2021_Sep_22_0840,t1_Paradigm,2021.1.4,60.03202670812918,
Y,right,Target,0,11,11,11,1388.327744212962,1390.327731701691,right,1,3,1.0953683561529033,F30T02,2021_Sep_22_0840,t1_Paradigm,2021.1.4,60.03202670812918,
H,left,Lure,0,12,12,12,1391.8286801529757,1393.8280690250685,left,1,3,0.9385991280141752,F30T02,2021_Sep_22_0840,t1_Paradigm,2021.1.4,60.03202670812918,
Q,left,Distractor,0,13,13,13,1395.327761857101,1397.3288201830583,left,1,3,0.973905319115147,F30T02,2021_Sep_22_0840,t1_Paradigm,2021.1.4,60.03202670812918,
V,left,Pretarget,0,14,14,14,1398.8291735465464,1400.8284719524381,left,1,3,0.7381709855690133,F30T02,2021_Sep_22_0840,t1_Paradigm,2021.1.4,60.03202670812918,
G,left,Distractor,0,15,15,15,1402.3280958120304,1404.328180824581,left,1,3,0.6147789657989051,F30T02,2021_Sep_22_0840,t1_Paradigm,2021.1.4,60.03202670812918,
Z,left,Pretarget,0,16,16,16,1405.8279115112382,1407.8279092656448,left,1,3,0.7311274556268472,F30T02,2021_Sep_22_0840,t1_Paradigm,2021.1.4,60.03202670812918,
V,right,Target,0,17,17,17,1409.3280415964837,1411.3278847242764,None,0,3,,F30T02,2021_Sep_22_0840,t1_Paradigm,2021.1.4,60.03202670812918,
N,left,Distractor,0,18,18,18,1412.8280032606272,1414.828129656642,left,1,3,0.6425803136080503,F30T02,2021_Sep_22_0840,t1_Paradigm,2021.1.4,60.03202670812918,
Z,right,Target,0,19,19,19,1416.3286171153595,1418.327743571368,right,1,3,1.0473029048298486,F30T02,2021_Sep_22_0840,t1_Paradigm,2021.1.4,60.03202670812918,
R,left,Distractor,0,20,20,20,1419.8279391002143,1421.8285640226386,left,1,3,0.7143729266244918,F30T02,2021_Sep_22_0840,t1_Paradigm,2021.1.4,60.03202670812918,
P,left,Distractor,0,21,21,21,1423.3281574060093,1425.3279078220367,left,1,3,1.1187788862443995,F30T02,2021_Sep_22_0840,t1_Paradigm,2021.1.4,60.03202670812918,
Z,right,Target,0,22,22,22,1426.8282708095503,1428.8279320425645,right,1,3,0.9791369590675458,F30T02,2021_Sep_22_0840,t1_Paradigm,2021.1.4,60.03202670812918,
D,left,Pretarget,0,23,23,23,1430.3276158921653,1432.3278933859256,left,1,3,0.679334284417564,F30T02,2021_Sep_22_0840,t1_Paradigm,2021.1.4,60.03202670812918,
K,left,Distractor,0,24,24,24,1433.8277405237604,1435.827949365892,left,1,3,0.5868027808319312,F30T02,2021_Sep_22_0840,t1_Paradigm,2021.1.4,60.03202670812918,
W,left,Distractor,0,25,25,25,1437.327523180371,1439.3277811052103,left,1,3,0.7029523733945098,F30T02,2021_Sep_22_0840,t1_Paradigm,2021.1.4,60.03202670812918,
D,right,Target,0,26,26,26,1440.827680533781,1442.8280148095218,left,0,3,0.41873907469562255,F30T02,2021_Sep_22_0840,t1_Paradigm,2021.1.4,60.03202670812918,
G,left,Pretarget,0,27,27,27,1444.328096132842,1446.3280720726762,left,1,3,0.9346599995624274,F30T02,2021_Sep_22_0840,t1_Paradigm,2021.1.4,60.03202670812918,
V,left,Distractor,0,28,28,28,1447.8280433609034,1449.8275525337376,left,1,3,0.7794267716235481,F30T02,2021_Sep_22_0840,t1_Paradigm,2021.1.4,60.03202670812918,
D,right,Target,0,29,29,29,1451.3277406841516,1453.327628724248,right,1,3,0.9591394420713186,F30T02,2021_Sep_22_0840,t1_Paradigm,2021.1.4,60.03202670812918,
G,right,Target,0,30,30,30,1454.8282945489045,1456.8278768646123,right,1,3,1.0428652499977034,F30T02,2021_Sep_22_0840,t1_Paradigm,2021.1.4,60.03202670812918,
B,left,Pretarget,0,31,31,31,1458.3279010851693,1460.3278965939535,left,1,3,0.6952980363566894,F30T02,2021_Sep_22_0840,t1_Paradigm,2021.1.4,60.03202670812918,
N,left,Distractor,0,32,32,32,1461.8277360325155,1463.827660323237,left,1,3,1.371075267525157,F30T02,2021_Sep_22_0840,t1_Paradigm,2021.1.4,60.03202670812918,
F,left,Distractor,0,33,33,33,1465.3283104285947,1467.3280438421061,left,1,3,0.734605912322877,F30T02,2021_Sep_22_0840,t1_Paradigm,2021.1.4,60.03202670812918,
B,right,Target,0,34,34,34,1468.828069987474,1470.827854408475,left,0,3,0.7389386649010703,F30T02,2021_Sep_22_0840,t1_Paradigm,2021.1.4,60.03202670812918,
Q,left,Pretarget,0,35,35,35,1472.3282148295839,1474.3278821578715,left,1,3,0.9029342801659368,F30T02,2021_Sep_22_0840,t1_Paradigm,2021.1.4,60.03202670812918,
S,left,Pretarget,0,36,36,36,1475.8280841027445,1477.8276757217245,left,1,3,0.8750379749399144,F30T02,2021_Sep_22_0840,t1_Paradigm,2021.1.4,60.03202670812918,
W,left,Distractor,0,37,37,37,1479.3282305488829,1481.3277705187502,left,1,3,1.3909990000538528,F30T02,2021_Sep_22_0840,t1_Paradigm,2021.1.4,60.03202670812918,
Q,right,Target,0,38,38,38,1482.8280144887103,1484.827844463609,right,1,3,1.4429731036361773,F30T02,2021_Sep_22_0840,t1_Paradigm,2021.1.4,60.03202670812918,
S,right,Target,0,39,39,39,1486.328227982478,1488.3276896766329,right,1,3,1.047387596569024,F30T02,2021_Sep_22_0840,t1_Paradigm,2021.1.4,60.03202670812918,
T,left,Distractor,0,40,40,40,1489.8281094461272,1491.8277924936847,left,1,3,1.0030046320753172,F30T02,2021_Sep_22_0840,t1_Paradigm,2021.1.4,60.03202670812918,
G,left,Distractor,0,41,41,41,1493.3275838119444,1495.3277326640964,left,1,3,1.135015961510362,F30T02,2021_Sep_22_0840,t1_Paradigm,2021.1.4,60.03202670812918,
D,left,Distractor,0,42,42,42,1496.8281764937565,1498.82796316038,left,1,3,0.6588074440078344,F30T02,2021_Sep_22_0840,t1_Paradigm,2021.1.4,60.03202670812918,
S,left,Lure,0,43,43,43,1500.3276787693612,1502.3279049347911,right,0,3,0.9029073328129016,F30T02,2021_Sep_22_0840,t1_Paradigm,2021.1.4,60.03202670812918,
Z,left,Pretarget,0,44,44,44,1503.8275823683362,1505.82763080945,left,1,3,0.6672916960087605,F30T02,2021_Sep_22_0840,t1_Paradigm,2021.1.4,60.03202670812918,
J,left,Distractor,0,45,45,45,1507.32822477445,1509.3276271202194,left,1,3,1.391088824631879,F30T02,2021_Sep_22_0840,t1_Paradigm,2021.1.4,60.03202670812918,
M,left,Pretarget,0,46,46,46,1510.8283365739626,1512.8278082129837,left,1,3,0.7069588702870533,F30T02,2021_Sep_22_0840,t1_Paradigm,2021.1.4,60.03202670812918,
Z,right,Target,0,47,47,47,1514.3283267895167,1516.3278783082205,right,1,3,1.094912496424513,F30T02,2021_Sep_22_0840,t1_Paradigm,2021.1.4,60.03202670812918,
P,left,Distractor,0,48,48,48,1517.8282993609319,1519.8279426290537,left,1,3,0.7151373979286291,F30T02,2021_Sep_22_0840,t1_Paradigm,2021.1.4,60.03202670812918,
M,right,Target,0,49,49,49,1521.3281124937348,1523.3280403132667,left,0,3,0.6067855409346521,F30T02,2021_Sep_22_0840,t1_Paradigm,2021.1.4,60.03202670812918,
K,left,Distractor,0,50,50,50,1524.8277915312792,1526.8279426290537,left,1,3,0.7228433841082733,F30T02,2021_Sep_22_0840,t1_Paradigm,2021.1.4,60.03202670812918,
Y,left,Distractor,0,51,51,51,1528.3278776666266,1530.3278192806465,left,1,3,0.5509149755816907,F30T02,2021_Sep_22_0840,t1_Paradigm,2021.1.4,60.03202670812918,
X,left,Distractor,0,52,52,52,1531.8283195714757,1533.8277831904124,left,1,3,1.1955968634283636,F30T02,2021_Sep_22_0840,t1_Paradigm,2021.1.4,60.03202670812918,
F,left,Pretarget,0,53,53,53,1535.3277788595879,1537.328058278188,left,1,3,0.9586630510166287,F30T02,2021_Sep_22_0840,t1_Paradigm,2021.1.4,60.03202670812918,
M,left,Lure,0,54,54,54,1538.8283032105537,1540.8277475814102,left,1,3,1.1070442678174004,F30T02,2021_Sep_22_0840,t1_Paradigm,2021.1.4,60.03202670812918,
V,left,Distractor,0,55,55,55,1542.3279299573624,1544.327911992441,left,1,3,0.6632928983890451,F30T02,2021_Sep_22_0840,t1_Paradigm,2021.1.4,60.03202670812918,
F,right,Target,0,56,56,56,1545.8282198020315,1547.828129015048,right,1,3,0.8586055311898235,F30T02,2021_Sep_22_0840,t1_Paradigm,2021.1.4,60.03202670812918,
S,left,Distractor,0,57,57,57,1549.3279318821733,1551.3277987493202,left,1,3,0.5429234755574726,F30T02,2021_Sep_22_0840,t1_Paradigm,2021.1.4,60.03202670812918,
D,left,Distractor,0,58,58,58,1552.828159812052,1554.828022187954,left,1,3,0.8669287405500654,F30T02,2021_Sep_22_0840,t1_Paradigm,2021.1.4,60.03202670812918,
F,right,Target,0,59,59,59,1556.327956583933,1558.3281503483886,right,1,3,0.9025791522872169,F30T02,2021_Sep_22_0840,t1_Paradigm,2021.1.4,60.03202670812918,
V,left,Pretarget,0,60,60,60,1559.8277575262473,1561.8277722831408,left,1,3,0.7633693455136381,F30T02,2021_Sep_22_0840,t1_Paradigm,2021.1.4,60.03202670812918,
J,left,Distractor,0,61,61,61,1563.3281750501483,1565.3278632305446,left,1,3,1.0069851439620834,F30T02,2021_Sep_22_0840,t1_Paradigm,2021.1.4,60.03202670812918,
V,left,Lure,0,62,62,62,1566.8284033008094,1568.82796316038,left,1,3,0.4347823855059687,F30T02,2021_Sep_22_0840,t1_Paradigm,2021.1.4,60.03202670812918,
V,right,Target,0,63,63,63,1570.3278430200007,1572.3283736266021,left,0,3,0.5504183740122244,F30T02,2021_Sep_22_0840,t1_Paradigm,2021.1.4,60.03202670812918,
R,left,Distractor,0,0,0,0,1636.9804846484913,1638.9777562270174,None,0,4,,F30T02,2021_Sep_22_0840,t1_Paradigm,2021.1.4,60.03202670812918,
F,left,Distractor,0,1,1,1,1640.4783129789867,1642.4776604675862,None,0,4,,F30T02,2021_Sep_22_0840,t1_Paradigm,2021.1.4,60.03202670812918,
P,left,Pretarget,0,2,2,2,1643.9783548436535,1645.9778139713744,None,0,4,,F30T02,2021_Sep_22_0840,t1_Paradigm,2021.1.4,60.03202670812918,
H,left,Distractor,0,3,3,3,1647.4778917658841,1649.4778067533334,None,0,4,,F30T02,2021_Sep_22_0840,t1_Paradigm,2021.1.4,60.03202670812918,
Z,left,Distractor,0,4,4,4,1650.9783471444098,1652.9779400465777,left,1,4,0.8131350477051456,F30T02,2021_Sep_22_0840,t1_Paradigm,2021.1.4,60.03202670812918,
T,left,Distractor,0,5,5,5,1654.478182091756,1656.4777438761375,left,1,4,0.7049532158125658,F30T02,2021_Sep_22_0840,t1_Paradigm,2021.1.4,60.03202670812918,
P,right,Target,0,6,6,6,1657.977961861121,1659.9775691994,right,1,4,0.8532619313336909,F30T02,2021_Sep_22_0840,t1_Paradigm,2021.1.4,60.03202670812918,
G,left,Distractor,0,7,7,7,1661.4779960265441,1663.4775084074354,left,1,4,0.7613271196023561,F30T02,2021_Sep_22_0840,t1_Paradigm,2021.1.4,60.03202670812918,
L,left,Distractor,0,8,8,8,1664.9778832646261,1666.9780147934798,left,1,4,0.6207301647518761,F30T02,2021_Sep_22_0840,t1_Paradigm,2021.1.4,60.03202670812918,
P,left,Lure,0,9,9,9,1668.4780024426,1670.4777175703784,right,0,4,0.945347520057112,F30T02,2021_Sep_22_0840,t1_Paradigm,2021.1.4,60.03202670812918,
Q,left,Pretarget,0,10,10,10,1671.9778948134917,1673.9784684075858,left,1,4,0.6285740958119277,F30T02,2021_Sep_22_0840,t1_Paradigm,2021.1.4,60.03202670812918,
D,left,Distractor,0,11,11,11,1675.4787450993608,1677.4775202771125,left,1,4,1.1932306274829898,F30T02,2021_Sep_22_0840,t1_Paradigm,2021.1.4,60.03202670812918,
M,left,Pretarget,0,12,12,12,1678.9784982421552,1680.9777113147138,left,1,4,1.245241623284528,F30T02,2021_Sep_22_0840,t1_Paradigm,2021.1.4,60.03202670812918,
C,left,Distractor,0,13,13,13,1682.4783992747252,1684.47813493383,left,1,4,0.7365939226874616,F30T02,2021_Sep_22_0840,t1_Paradigm,2021.1.4,60.03202670812918,
Q,right,Target,0,14,14,14,1685.9787706031057,1687.9777629638556,right,1,4,0.8690498837677296,F30T02,2021_Sep_22_0840,t1_Paradigm,2021.1.4,60.03202670812918,
R,left,Distractor,0,15,15,15,1689.4779456606193,1691.478193961404,left,1,4,0.5045148077479098,F30T02,2021_Sep_22_0840,t1_Paradigm,2021.1.4,60.03202670812918,
M,right,Target,0,16,16,16,1692.978007094207,1694.978595124383,right,1,4,0.8284453258675057,F30T02,2021_Sep_22_0840,t1_Paradigm,2021.1.4,60.03202670812918,
S,left,Distractor,0,17,17,17,1696.4783498712059,1698.4779617007298,left,1,4,0.5768774860189296,F30T02,2021_Sep_22_0840,t1_Paradigm,2021.1.4,60.03202670812918,
Z,left,Distractor,0,18,18,18,1699.9782255604223,1701.9781514551432,left,1,4,0.9648580595385283,F30T02,2021_Sep_22_0840,t1_Paradigm,2021.1.4,60.03202670812918,
L,left,Pretarget,0,19,19,19,1703.4778847082343,1705.4779812696506,right,0,4,1.1291228277259506,F30T02,2021_Sep_22_0840,t1_Paradigm,2021.1.4,60.03202670812918,
M,right,Target,0,20,20,20,1706.9783667133306,1708.9775647081842,right,1,4,0.8931626495323144,F30T02,2021_Sep_22_0840,t1_Paradigm,2021.1.4,60.03202670812918,
P,left,Distractor,0,21,21,21,1710.478483004059,1712.478360457695,left,1,4,0.6243808921135496,F30T02,2021_Sep_22_0840,t1_Paradigm,2021.1.4,60.03202670812918,
F,left,Distractor,0,22,22,22,1713.9779916957195,1715.9777308836638,left,1,4,0.43692149364505894,F30T02,2021_Sep_22_0840,t1_Paradigm,2021.1.4,60.03202670812918,
L,right,Target,0,23,23,23,1717.4784951945476,1719.4783655905048,left,0,4,0.6168298533302732,F30T02,2021_Sep_22_0840,t1_Paradigm,2021.1.4,60.03202670812918,
L,left,Lure,0,24,24,24,1720.9783712045464,1722.97799714937,right,0,4,0.9726657399733085,F30T02,2021_Sep_22_0840,t1_Paradigm,2021.1.4,60.03202670812918,
V,left,Pretarget,0,25,25,25,1724.4778048285225,1726.4788884978625,left,1,4,0.847998532030033,F30T02,2021_Sep_22_0840,t1_Paradigm,2021.1.4,60.03202670812918,
Z,left,Distractor,0,26,26,26,1727.9785893499502,1729.9783384827315,left,1,4,0.8523524574993644,F30T02,2021_Sep_22_0840,t1_Paradigm,2021.1.4,60.03202670812918,
H,left,Distractor,0,27,27,27,1731.4785330492014,1733.4781455203192,left,1,4,0.6810380641254596,F30T02,2021_Sep_22_0840,t1_Paradigm,2021.1.4,60.03202670812918,
X,left,Distractor,0,28,28,28,1734.9787965880823,1736.9779586531222,left,1,4,0.17283820317243226,F30T02,2021_Sep_22_0840,t1_Paradigm,2021.1.4,60.03202670812918,
V,right,Target,0,29,29,29,1738.4777570290025,1740.4780345227919,left,0,4,0.5291312327317428,F30T02,2021_Sep_22_0840,t1_Paradigm,2021.1.4,60.03202670812918,
C,left,Distractor,0,30,30,30,1741.9777629638556,1743.977992658125,left,1,4,0.6768095722072758,F30T02,2021_Sep_22_0840,t1_Paradigm,2021.1.4,60.03202670812918,
S,left,Pretarget,0,31,31,31,1745.4783986331313,1747.4780839263112,left,1,4,0.69705539001734,F30T02,2021_Sep_22_0840,t1_Paradigm,2021.1.4,60.03202670812918,
D,left,Distractor,0,32,32,32,1748.9780956355971,1750.9781004476245,left,1,4,0.5725626983621623,F30T02,2021_Sep_22_0840,t1_Paradigm,2021.1.4,60.03202670812918,
V,left,Distractor,0,33,33,33,1752.4780383724137,1754.477985440084,right,0,4,0.9451973846880719,F30T02,2021_Sep_22_0840,t1_Paradigm,2021.1.4,60.03202670812918,
R,left,Distractor,0,34,34,34,1755.9784597459075,1757.977961861121,left,1,4,0.7087146199482959,F30T02,2021_Sep_22_0840,t1_Paradigm,2021.1.4,60.03202670812918,
S,right,Target,0,35,35,35,1759.4778725177457,1761.4785965679912,left,0,4,0.39208555661025457,F30T02,2021_Sep_22_0840,t1_Paradigm,2021.1.4,60.03202670812918,
Y,left,Distractor,0,36,36,36,1762.9785110742378,1764.9784841268847,left,1,4,1.0521576023602393,F30T02,2021_Sep_22_0840,t1_Paradigm,2021.1.4,60.03202670812918,
N,left,Pretarget,0,37,37,37,1766.4783935002924,1768.4787954652857,left,1,4,0.3999198636447545,F30T02,2021_Sep_22_0840,t1_Paradigm,2021.1.4,60.03202670812918,
Z,left,Pretarget,0,38,38,38,1769.9779746932036,1771.9775201166922,left,1,4,0.45319000753806904,F30T02,2021_Sep_22_0840,t1_Paradigm,2021.1.4,60.03202670812918,
P,left,Pretarget,0,39,39,39,1773.4780662822013,1775.4780935503659,left,1,4,0.20074124523671344,F30T02,2021_Sep_22_0840,t1_Paradigm,2021.1.4,60.03202670812918,
M,left,Distractor,0,40,40,40,1776.9782842671848,1778.9779137408186,left,1,4,0.5728876708308235,F30T02,2021_Sep_22_0840,t1_Paradigm,2021.1.4,60.03202670812918,
N,right,Target,0,41,41,41,1780.478104778449,1782.4785811695037,left,0,4,0.4167661420360673,F30T02,2021_Sep_22_0840,t1_Paradigm,2021.1.4,60.03202670812918,
Z,right,Target,0,42,42,42,1783.9780359664,1785.9781225829502,left,0,4,0.4365304359525908,F30T02,2021_Sep_22_0840,t1_Paradigm,2021.1.4,60.03202670812918,
P,right,Target,0,43,43,43,1787.4781869037834,1789.478770121903,left,0,4,0.5839842139685061,F30T02,2021_Sep_22_0840,t1_Paradigm,2021.1.4,60.03202670812918,
X,left,Pretarget,0,44,44,44,1790.9784138712275,1792.9780016405857,left,1,4,0.8451129175373353,F30T02,2021_Sep_22_0840,t1_Paradigm,2021.1.4,60.03202670812918,
Z,left,Lure,0,45,45,45,1794.478091625555,1796.478076547879,left,1,4,0.5129740371776279,F30T02,2021_Sep_22_0840,t1_Paradigm,2021.1.4,60.03202670812918,
R,left,Pretarget,0,46,46,46,1797.9781055804633,1799.9777491693676,left,1,4,0.7569077505031601,F30T02,2021_Sep_22_0840,t1_Paradigm,2021.1.4,60.03202670812918,
K,left,Distractor,0,47,47,47,1801.4780704526347,1803.478092908772,left,1,4,0.6327442017500289,F30T02,2021_Sep_22_0840,t1_Paradigm,2021.1.4,60.03202670812918,
X,right,Target,0,48,48,48,1804.9788703725499,1806.9786025028443,right,1,4,1.052106915623881,F30T02,2021_Sep_22_0840,t1_Paradigm,2021.1.4,60.03202670812918,
B,left,Distractor,0,49,49,49,1808.477672016481,1810.4785975303967,left,1,4,0.6720694010437,F30T02,2021_Sep_22_0840,t1_Paradigm,2021.1.4,60.03202670812918,
R,right,Target,0,50,50,50,1811.9788440667908,1813.9776429838967,right,1,4,1.0134974257089198,F30T02,2021_Sep_22_0840,t1_Paradigm,2021.1.4,60.03202670812918,
Y,left,Pretarget,0,51,51,51,1815.4782106431376,1817.478813430178,left,1,4,0.8558575407951139,F30T02,2021_Sep_22_0840,t1_Paradigm,2021.1.4,60.03202670812918,
W,left,Pretarget,0,52,52,52,1818.9780122270458,1820.9780080566125,left,1,4,0.6207019341527484,F30T02,2021_Sep_22_0840,t1_Paradigm,2021.1.4,60.03202670812918,
Z,left,Distractor,0,53,53,53,1822.4782959764707,1824.4781974902435,right,0,4,0.8648698329634499,F30T02,2021_Sep_22_0840,t1_Paradigm,2021.1.4,60.03202670812918,
Q,left,Distractor,0,54,54,54,1825.978250903776,1827.9782887584297,left,1,4,0.5648345767986029,F30T02,2021_Sep_22_0840,t1_Paradigm,2021.1.4,60.03202670812918,
Y,right,Target,0,55,55,55,1829.4779392445926,1831.478727455251,left,0,4,0.9519736865186132,F30T02,2021_Sep_22_0840,t1_Paradigm,2021.1.4,60.03202670812918,
W,right,Target,0,56,56,56,1832.978336878732,1834.9785219815094,left,0,4,1.340255813964177,F30T02,2021_Sep_22_0840,t1_Paradigm,2021.1.4,60.03202670812918,
H,left,Pretarget,0,57,57,57,1836.4785683374212,1838.4777037758613,right,0,4,0.897445998591138,F30T02,2021_Sep_22_0840,t1_Paradigm,2021.1.4,60.03202670812918,
M,left,Distractor,0,58,58,58,1839.9777934400481,1841.9786294501973,left,1,4,1.3806207327288575,F30T02,2021_Sep_22_0840,t1_Paradigm,2021.1.4,60.03202670812918,
R,left,Pretarget,0,59,59,59,1843.478123705776,1845.477476648026,left,1,4,0.6173161892511416,F30T02,2021_Sep_22_0840,t1_Paradigm,2021.1.4,60.03202670812918,
J,left,Distractor,0,60,60,60,1846.9790224327298,1848.9775342319917,left,1,4,0.6532829118077643,F30T02,2021_Sep_22_0840,t1_Paradigm,2021.1.4,60.03202670812918,
H,right,Target,0,61,61,61,1850.4776546931535,1852.4776469939097,None,0,4,,F30T02,2021_Sep_22_0840,t1_Paradigm,2021.1.4,60.03202670812918,
Z,left,Distractor,0,62,62,62,1853.9780677258095,1855.9782964576734,left,1,4,0.3406491172790993,F30T02,2021_Sep_22_0840,t1_Paradigm,2021.1.4,60.03202670812918,
R,right,Target,0,63,63,63,1857.477927054104,1859.478887535457,left,0,4,0.5678170735482126,F30T02,2021_Sep_22_0840,t1_Paradigm,2021.1.4,60.03202670812918,
J,left,Pretarget,0,0,0,0,1876.396663722786,1878.3944983088877,None,0,4,,F30T02,2021_Sep_22_0840,t1_Paradigm,2021.1.4,60.03202670812918,
G,left,Pretarget,0,1,1,1,1879.8950736673723,1881.8945157926064,None,0,4,,F30T02,2021_Sep_22_0840,t1_Paradigm,2021.1.4,60.03202670812918,
Z,left,Distractor,0,2,2,2,1883.394537125947,1885.394459171046,None,0,4,,F30T02,2021_Sep_22_0840,t1_Paradigm,2021.1.4,60.03202670812918,
F,left,Distractor,0,3,3,3,1886.8946582287317,1888.8946559831093,left,1,4,0.592091523547424,F30T02,2021_Sep_22_0840,t1_Paradigm,2021.1.4,60.03202670812918,
J,right,Target,0,4,4,4,1890.3948925746372,1892.3943581183848,None,0,4,,F30T02,2021_Sep_22_0840,t1_Paradigm,2021.1.4,60.03202670812918,
G,right,Target,0,5,5,5,1893.894620374078,1895.894409286324,None,0,4,,F30T02,2021_Sep_22_0840,t1_Paradigm,2021.1.4,60.03202670812918,
H,left,Distractor,0,6,6,6,1897.394447301369,1899.3946506898792,left,1,4,1.3882619169016834,F30T02,2021_Sep_22_0840,t1_Paradigm,2021.1.4,60.03202670812918,
P,left,Distractor,0,7,7,7,1900.8949530458194,1902.894586369046,left,1,4,0.8966706200153567,F30T02,2021_Sep_22_0840,t1_Paradigm,2021.1.4,60.03202670812918,
G,left,Lure,0,8,8,8,1904.3944530758017,1906.3945396923518,left,1,4,0.4842532706388738,F30T02,2021_Sep_22_0840,t1_Paradigm,2021.1.4,60.03202670812918,
S,left,Distractor,0,9,9,9,1907.8947644142027,1909.894963311468,left,1,4,0.4877362186089158,F30T02,2021_Sep_22_0840,t1_Paradigm,2021.1.4,60.03202670812918,
R,left,Pretarget,0,10,10,10,1911.3945865294663,1913.3947270407516,left,1,4,0.41257807120564394,F30T02,2021_Sep_22_0840,t1_Paradigm,2021.1.4,60.03202670812918,
T,left,Pretarget,0,11,11,11,1914.8944471409777,1916.8946101084002,left,1,4,0.2721665398858022,F30T02,2021_Sep_22_0840,t1_Paradigm,2021.1.4,60.03202670812918,
X,left,Distractor,0,12,12,12,1918.395063562115,1920.395163973153,left,1,4,0.6121057222480886,F30T02,2021_Sep_22_0840,t1_Paradigm,2021.1.4,60.03202670812918,
F,left,Pretarget,0,13,13,13,1921.8949780683615,1923.8949767851736,left,1,4,0.3438545714598149,F30T02,2021_Sep_22_0840,t1_Paradigm,2021.1.4,60.03202670812918,
R,right,Target,0,14,14,14,1925.394426449231,1927.394161466742,left,0,4,0.4129537304106634,F30T02,2021_Sep_22_0840,t1_Paradigm,2021.1.4,60.03202670812918,
T,right,Target,0,15,15,15,1928.8948064392607,1930.8946399429988,left,0,4,0.3361261290847324,F30T02,2021_Sep_22_0840,t1_Paradigm,2021.1.4,60.03202670812918,
C,left,Distractor,0,16,16,16,1932.3947453264846,1934.3945769054117,left,1,4,0.5644380654848646,F30T02,2021_Sep_22_0840,t1_Paradigm,2021.1.4,60.03202670812918,
F,right,Target,0,17,17,17,1935.894800023234,1937.8949886548507,right,1,4,0.9837882680585608,F30T02,2021_Sep_22_0840,t1_Paradigm,2021.1.4,60.03202670812918,
M,left,Distractor,0,18,18,18,1939.3945422587858,1941.3948553615774,left,1,4,0.42811515639186837,F30T02,2021_Sep_22_0840,t1_Paradigm,2021.1.4,60.03202670812918,
N,left,Distractor,0,19,19,19,1942.8947278427659,1944.8948381986702,left,1,4,0.3678743046184536,F30T02,2021_Sep_22_0840,t1_Paradigm,2021.1.4,60.03202670812918,
R,left,Lure,0,20,20,20,1946.394592945493,1948.3946538979071,left,1,4,0.45207072916673496,F30T02,2021_Sep_22_0840,t1_Paradigm,2021.1.4,60.03202670812918,
F,right,Target,0,21,21,21,1949.8949793515785,1951.8950730257784,left,0,4,0.4395966620068066,F30T02,2021_Sep_22_0840,t1_Paradigm,2021.1.4,60.03202670812918,
P,left,Distractor,0,22,22,22,1953.3950504092209,1955.3946638427442,left,1,4,1.0040632788441144,F30T02,2021_Sep_22_0840,t1_Paradigm,2021.1.4,60.03202670812918,
L,left,Pretarget,0,23,23,23,1956.8946457174316,1958.8949013966776,left,1,4,0.49609375375439413,F30T02,2021_Sep_22_0840,t1_Paradigm,2021.1.4,60.03202670812918,
T,left,Distractor,0,24,24,24,1960.3949378077232,1962.3947703490267,left,1,4,0.8519312444259413,F30T02,2021_Sep_22_0840,t1_Paradigm,2021.1.4,60.03202670812918,
F,left,Distractor,0,25,25,25,1963.8951349405688,1965.8953768253268,left,1,4,0.8873336761607789,F30T02,2021_Sep_22_0840,t1_Paradigm,2021.1.4,60.03202670812918,
V,left,Distractor,0,26,26,26,1967.3945544492453,1969.3945756221947,left,1,4,0.7011581274855416,F30T02,2021_Sep_22_0840,t1_Paradigm,2021.1.4,60.03202670812918,
L,right,Target,0,27,27,27,1970.894637376594,1972.8950961235387,left,0,4,0.5757081625051796,F30T02,2021_Sep_22_0840,t1_Paradigm,2021.1.4,60.03202670812918,
S,left,Pretarget,0,28,28,28,1974.3950359731389,1976.394941657345,left,1,4,1.2678690755565185,F30T02,2021_Sep_22_0840,t1_Paradigm,2021.1.4,60.03202670812918,
W,left,Distractor,0,29,29,29,1977.8945321534993,1979.8945151510125,left,1,4,0.5843284345755819,F30T02,2021_Sep_22_0840,t1_Paradigm,2021.1.4,60.03202670812918,
Q,left,Distractor,0,30,30,30,1981.3947090758593,1983.3949063691252,left,1,4,0.6038511645165272,F30T02,2021_Sep_22_0840,t1_Paradigm,2021.1.4,60.03202670812918,
L,right,Target,0,31,31,31,1984.8946729856252,1986.8946505294589,right,1,4,0.7680893061624374,F30T02,2021_Sep_22_0840,t1_Paradigm,2021.1.4,60.03202670812918,
S,right,Target,0,32,32,32,1988.394593587116,1990.3947767650825,right,1,4,0.8359597932430916,F30T02,2021_Sep_22_0840,t1_Paradigm,2021.1.4,60.03202670812918,
Z,left,Pretarget,0,33,33,33,1991.8954060183023,1993.8946518126759,left,1,4,0.4401532535557635,F30T02,2021_Sep_22_0840,t1_Paradigm,2021.1.4,60.03202670812918,
F,left,Distractor,0,34,34,34,1995.3946818076656,1997.3948733264988,left,1,4,1.0678342364553828,F30T02,2021_Sep_22_0840,t1_Paradigm,2021.1.4,60.03202670812918,
V,left,Distractor,0,35,35,35,1998.8943265193957,2000.8952238027414,left,1,4,0.5914929069112986,F30T02,2021_Sep_22_0840,t1_Paradigm,2021.1.4,60.03202670812918,
M,left,Distractor,0,36,36,36,2002.3950160834065,2004.3942528953194,left,1,4,0.6129260130983312,F30T02,2021_Sep_22_0840,t1_Paradigm,2021.1.4,60.03202670812918,
Z,right,Target,0,37,37,37,2005.8945244542556,2007.8944195520016,right,1,4,0.7127637834928464,F30T02,2021_Sep_22_0840,t1_Paradigm,2021.1.4,60.03202670812918,
H,left,Pretarget,0,38,38,38,2009.3944774567499,2011.3949439029384,left,1,4,0.8438810376101173,F30T02,2021_Sep_22_0840,t1_Paradigm,2021.1.4,60.03202670812918,
L,left,Distractor,0,39,39,39,2012.895296304021,2014.8947804543131,left,1,4,0.8962978480267338,F30T02,2021_Sep_22_0840,t1_Paradigm,2021.1.4,60.03202670812918,
G,left,Distractor,0,40,40,40,2016.3946003239544,2018.39497437916,left,1,4,0.5640681806835346,F30T02,2021_Sep_22_0840,t1_Paradigm,2021.1.4,60.03202670812918,
K,left,Distractor,0,41,41,41,2019.894843331509,2021.8950008453103,left,1,4,0.375764752010582,F30T02,2021_Sep_22_0840,t1_Paradigm,2021.1.4,60.03202670812918,
H,right,Target,0,42,42,42,2023.3945983991434,2025.3949913816468,left,0,4,1.323739640880376,F30T02,2021_Sep_22_0840,t1_Paradigm,2021.1.4,60.03202670812918,
B,left,Distractor,0,43,43,43,2026.895419492008,2028.895367842866,left,1,4,0.4796115857025143,F30T02,2021_Sep_22_0840,t1_Paradigm,2021.1.4,60.03202670812918,
Z,left,Distractor,0,44,44,44,2030.3947985796258,2032.3948569656059,left,1,4,1.0283803955244366,F30T02,2021_Sep_22_0840,t1_Paradigm,2021.1.4,60.03202670812918,
T,left,Pretarget,0,45,45,45,2033.894753506931,2035.8951891561155,left,1,4,0.3915825390140526,F30T02,2021_Sep_22_0840,t1_Paradigm,2021.1.4,60.03202670812918,
H,right,Target,0,46,46,46,2037.3943748000893,2039.3953760233126,left,0,4,0.587359693221515,F30T02,2021_Sep_22_0840,t1_Paradigm,2021.1.4,60.03202670812918,
F,left,Distractor,0,47,47,47,2040.8945157926064,2042.911461840442,left,1,4,0.3512689485796727,F30T02,2021_Sep_22_0840,t1_Paradigm,2021.1.4,60.03202670812918,
R,left,Distractor,0,48,48,48,2044.3944521133963,2046.3947818979213,left,1,4,0.9802780519530643,F30T02,2021_Sep_22_0840,t1_Paradigm,2021.1.4,60.03202670812918,
T,right,Target,0,49,49,49,2047.8945369655557,2049.8947053866286,left,0,4,0.4880178828025237,F30T02,2021_Sep_22_0840,t1_Paradigm,2021.1.4,60.03202670812918,
H,right,Target,0,50,50,50,2051.3947244743467,2053.394663842744,right,1,4,0.9081829226051923,F30T02,2021_Sep_22_0840,t1_Paradigm,2021.1.4,60.03202670812918,
Y,left,Pretarget,0,51,51,51,2054.894318178529,2056.8944070407015,left,1,4,0.7203116142773069,F30T02,2021_Sep_22_0840,t1_Paradigm,2021.1.4,60.03202670812918,
H,left,Distractor,0,52,52,52,2058.3947854267317,2060.3948271310073,left,1,4,1.1398732254456263,F30T02,2021_Sep_22_0840,t1_Paradigm,2021.1.4,60.03202670812918,
S,left,Distractor,0,53,53,53,2061.8946854968963,2063.894406719919,right,0,4,1.1289187975926325,F30T02,2021_Sep_22_0840,t1_Paradigm,2021.1.4,60.03202670812918,
Q,left,Distractor,0,54,54,54,2065.3948107700853,2067.395211772673,left,1,4,0.7957677867962047,F30T02,2021_Sep_22_0840,t1_Paradigm,2021.1.4,60.03202670812918,
Y,right,Target,0,55,55,55,2068.8956395622226,2070.894741637254,left,0,4,1.1040226332261227,F30T02,2021_Sep_22_0840,t1_Paradigm,2021.1.4,60.03202670812918,
R,left,Distractor,0,56,56,56,2072.394358760008,2074.394419712393,left,1,4,0.8523332094191574,F30T02,2021_Sep_22_0840,t1_Paradigm,2021.1.4,60.03202670812918,
H,left,Pretarget,0,57,57,57,2075.895207762631,2077.8943951710244,left,1,4,0.44036113328184,F30T02,2021_Sep_22_0840,t1_Paradigm,2021.1.4,60.03202670812918,
J,left,Distractor,0,58,58,58,2079.3949576974264,2081.3950696573593,left,1,4,0.2036839624925051,F30T02,2021_Sep_22_0840,t1_Paradigm,2021.1.4,60.03202670812918,
V,left,Distractor,0,59,59,59,2082.8946075419954,2084.8943165745295,left,1,4,0.4009448262222577,F30T02,2021_Sep_22_0840,t1_Paradigm,2021.1.4,60.03202670812918,
Y,left,Lure,0,60,60,60,2086.394818469358,2088.394894499448,right,0,4,1.0123242526024114,F30T02,2021_Sep_22_0840,t1_Paradigm,2021.1.4,60.03202670812918,
H,right,Target,0,61,61,61,2089.8944785795757,2091.8957967552124,left,0,4,0.4229794362618122,F30T02,2021_Sep_22_0840,t1_Paradigm,2021.1.4,60.03202670812918,
L,left,Distractor,0,62,62,62,2093.394980474375,2095.394897707447,None,0,4,,F30T02,2021_Sep_22_0840,t1_Paradigm,2021.1.4,60.03202670812918,
P,left,Distractor,0,63,63,63,2096.89523599323,2098.8951766448445,left,1,4,0.6395843432110269,F30T02,2021_Sep_22_0840,t1_Paradigm,2021.1.4,60.03202670812918,
