Letter,CorrAnswer,Stimulus,finaln_nback_run.thisRepN,finaln_nback_run.thisTrialN,finaln_nback_run.thisN,finaln_nback_run.thisIndex,finaln_fixcross.started,finaln_nback_trial.started,finaln_trial_resp.keys,finaln_trial_resp.corr,finaln_trial_resp.rt,finaln_level,finaln_money,Participant,date,expName,psychopyVersion,frameRate,
F,left,Distractor,0,0,0,0,3019.9814076079056,3021.9661781816976,left,1,0.4884317248361185,3,2.7800000000000002,G14E11,2021_Oct_18_0829,t1_Paradigm,2021.1.4,59.974199377737186,
P,left,Pretarget,0,1,1,1,3023.464665761334,3025.465730181895,left,1,0.4289502496831119,3,2.7800000000000002,G14E11,2021_Oct_18_0829,t1_Paradigm,2021.1.4,59.974199377737186,
B,left,Distractor,0,2,2,2,3026.96428641316,3028.963934493542,left,1,0.6266777535784058,3,2.7800000000000002,G14E11,2021_Oct_18_0829,t1_Paradigm,2021.1.4,59.974199377737186,
K,left,Pretarget,0,3,3,3,3030.46486786654,3032.4665469434112,left,1,1.0600646928651258,3,2.7800000000000002,G14E11,2021_Oct_18_0829,t1_Paradigm,2021.1.4,59.974199377737186,
H,left,Distractor,0,4,4,4,3033.9641561675817,3035.966191655374,left,1,0.6323626831290312,3,2.7800000000000002,G14E11,2021_Oct_18_0829,t1_Paradigm,2021.1.4,59.974199377737186,
P,right,Target,0,5,5,5,3037.464242944494,3039.466129901004,right,1,0.7324672966497019,3,2.7800000000000002,G14E11,2021_Oct_18_0829,t1_Paradigm,2021.1.4,59.974199377737186,
L,left,Distractor,0,6,6,6,3040.9643557063537,3042.965552618087,left,1,0.7049973549437709,3,2.7800000000000002,G14E11,2021_Oct_18_0829,t1_Paradigm,2021.1.4,59.974199377737186,
K,right,Target,0,7,7,7,3044.4649268940557,3046.4664099609945,right,1,0.564525923866313,3,2.7800000000000002,G14E11,2021_Oct_18_0829,t1_Paradigm,2021.1.4,59.974199377737186,
Z,left,Pretarget,0,8,8,8,3047.965198132035,3049.9664271239308,left,1,0.712306825153064,3,2.7800000000000002,G14E11,2021_Oct_18_0829,t1_Paradigm,2021.1.4,59.974199377737186,
S,left,Pretarget,0,9,9,9,3051.464932347706,3053.4666277854703,left,1,0.6519280672655441,3,2.7800000000000002,G14E11,2021_Oct_18_0829,t1_Paradigm,2021.1.4,59.974199377737186,
N,left,Distractor,0,10,10,10,3054.9643916361383,3056.9662785926485,left,1,0.8162957074237056,3,2.7800000000000002,G14E11,2021_Oct_18_0829,t1_Paradigm,2021.1.4,59.974199377737186,
M,left,Distractor,0,11,11,11,3058.4642721374985,3060.4665588130592,left,1,0.8999864942161366,3,2.7800000000000002,G14E11,2021_Oct_18_0829,t1_Paradigm,2021.1.4,59.974199377737186,
Z,right,Target,0,12,12,12,3061.96426010743,3063.965948808356,right,1,0.5365917818853632,3,2.7800000000000002,G14E11,2021_Oct_18_0829,t1_Paradigm,2021.1.4,59.974199377737186,
S,right,Target,0,13,13,13,3065.464336297824,3067.465715745813,right,1,0.684821485017892,3,2.7800000000000002,G14E11,2021_Oct_18_0829,t1_Paradigm,2021.1.4,59.974199377737186,
Q,left,Distractor,0,14,14,14,3068.965021049371,3070.9640839871718,left,1,0.7225083240191452,3,2.7800000000000002,G14E11,2021_Oct_18_0829,t1_Paradigm,2021.1.4,59.974199377737186,
V,left,Lure,0,15,15,15,3072.465007736115,3074.4665530386264,left,1,1.10795078513911,3,2.7800000000000002,G14E11,2021_Oct_18_0829,t1_Paradigm,2021.1.4,59.974199377737186,
Z,right,Target,0,16,16,16,3075.964457079768,3077.9663578307373,right,1,0.4721616174210794,3,2.7800000000000002,G14E11,2021_Oct_18_0829,t1_Paradigm,2021.1.4,59.974199377737186,
X,left,Distractor,0,17,17,17,3079.4649596158415,3081.4665097303805,left,1,0.9561742967925966,3,2.7800000000000002,G14E11,2021_Oct_18_0829,t1_Paradigm,2021.1.4,59.974199377737186,
V,left,Pretarget,0,18,18,18,3082.964252728969,3084.9639893506537,left,1,1.2185279750847258,3,2.7800000000000002,G14E11,2021_Oct_18_0829,t1_Paradigm,2021.1.4,59.974199377737186,
E,left,Distractor,0,19,19,19,3086.464983034355,3088.467331945547,left,1,1.2993280163500458,3,2.7800000000000002,G14E11,2021_Oct_18_0829,t1_Paradigm,2021.1.4,59.974199377737186,
R,left,Distractor,0,20,20,20,3089.964718854055,3091.966461449687,left,1,1.2240839423029684,3,2.7800000000000002,G14E11,2021_Oct_18_0829,t1_Paradigm,2021.1.4,59.974199377737186,
G,left,Distractor,0,21,21,21,3093.4651684578275,3095.466355103883,left,1,0.5721119251684286,3,2.7800000000000002,G14E11,2021_Oct_18_0829,t1_Paradigm,2021.1.4,59.974199377737186,
V,right,Target,0,22,22,22,3096.964228668832,3098.966410763038,left,0,1.0881030954187736,3,2.7800000000000002,G14E11,2021_Oct_18_0829,t1_Paradigm,2021.1.4,59.974199377737186,
T,left,Pretarget,0,23,23,23,3100.4642374909017,3102.466544056195,left,1,0.7879413150949404,3,2.7800000000000002,G14E11,2021_Oct_18_0829,t1_Paradigm,2021.1.4,59.974199377737186,
B,left,Distractor,0,24,24,24,3103.9642703730497,3105.9666706125136,left,1,1.0158549898769706,3,2.7800000000000002,G14E11,2021_Oct_18_0829,t1_Paradigm,2021.1.4,59.974199377737186,
S,left,Pretarget,0,25,25,25,3107.4640247992356,3109.466518712812,left,1,0.9240395753877237,3,2.7800000000000002,G14E11,2021_Oct_18_0829,t1_Paradigm,2021.1.4,59.974199377737186,
G,left,Lure,0,26,26,26,3110.9649097311776,3112.9663620011415,left,1,1.0562035217881203,3,2.7800000000000002,G14E11,2021_Oct_18_0829,t1_Paradigm,2021.1.4,59.974199377737186,
T,right,Target,0,27,27,27,3114.464256097388,3116.46599869302,right,1,0.4364823563955724,3,2.7800000000000002,G14E11,2021_Oct_18_0829,t1_Paradigm,2021.1.4,59.974199377737186,
H,left,Distractor,0,28,28,28,3117.964267806674,3119.9661999961827,left,1,0.7284717096481472,3,2.7800000000000002,G14E11,2021_Oct_18_0829,t1_Paradigm,2021.1.4,59.974199377737186,
S,right,Target,0,29,29,29,3121.464217921952,3123.465530643123,right,1,0.9728813363472,3,2.7800000000000002,G14E11,2021_Oct_18_0829,t1_Paradigm,2021.1.4,59.974199377737186,
D,left,Distractor,0,30,30,30,3124.9641869645566,3126.9665275348816,left,1,0.719910149811767,3,2.7800000000000002,G14E11,2021_Oct_18_0829,t1_Paradigm,2021.1.4,59.974199377737186,
Z,left,Distractor,0,31,31,31,3128.4640469345613,3130.4658289888757,left,1,0.708672140201088,3,2.7800000000000002,G14E11,2021_Oct_18_0829,t1_Paradigm,2021.1.4,59.974199377737186,
J,left,Pretarget,0,32,32,32,3131.9649142223643,3133.966350452276,left,1,0.792267007229384,3,2.7800000000000002,G14E11,2021_Oct_18_0829,t1_Paradigm,2021.1.4,59.974199377737186,
C,left,Pretarget,0,33,33,33,3135.46402223286,3137.466366973589,left,1,0.6841221369686536,3,2.7800000000000002,G14E11,2021_Oct_18_0829,t1_Paradigm,2021.1.4,59.974199377737186,
H,left,Distractor,0,34,34,34,3138.964962663478,3140.9663908733055,left,1,0.5282493297709152,3,2.7800000000000002,G14E11,2021_Oct_18_0829,t1_Paradigm,2021.1.4,59.974199377737186,
B,left,Pretarget,0,35,35,35,3142.4639975311,3144.4639089897973,left,1,0.6308186638634652,3,2.7800000000000002,G14E11,2021_Oct_18_0829,t1_Paradigm,2021.1.4,59.974199377737186,
J,right,Target,0,36,36,36,3145.964923204854,3147.966494813096,right,1,1.0961712619755417,3,2.7800000000000002,G14E11,2021_Oct_18_0829,t1_Paradigm,2021.1.4,59.974199377737186,
C,right,Target,0,37,37,37,3149.464009721589,3151.4663679359946,right,1,1.0521951027330942,3,2.7800000000000002,G14E11,2021_Oct_18_0829,t1_Paradigm,2021.1.4,59.974199377737186,
H,left,Distractor,0,38,38,38,3152.9641709245043,3154.966336657759,left,1,0.9604765703552403,3,2.7800000000000002,G14E11,2021_Oct_18_0829,t1_Paradigm,2021.1.4,59.974199377737186,
B,right,Target,0,39,39,39,3156.464191937004,3158.4653128187056,right,1,1.2211222996120341,3,2.7800000000000002,G14E11,2021_Oct_18_0829,t1_Paradigm,2021.1.4,59.974199377737186,
F,left,Pretarget,0,40,40,40,3159.9642004382913,3161.966459524876,left,1,1.0320789018296637,3,2.7800000000000002,G14E11,2021_Oct_18_0829,t1_Paradigm,2021.1.4,59.974199377737186,
M,left,Distractor,0,41,41,41,3163.464201561059,3165.4663528582896,left,1,0.8442478142678738,3,2.7800000000000002,G14E11,2021_Oct_18_0829,t1_Paradigm,2021.1.4,59.974199377737186,
W,left,Pretarget,0,42,42,42,3166.9640134107904,3168.9650120669394,left,1,0.6254587065777741,3,2.7800000000000002,G14E11,2021_Oct_18_0829,t1_Paradigm,2021.1.4,59.974199377737186,
Z,left,Distractor,0,43,43,43,3170.4641736513004,3172.4651671746396,left,1,0.9012334510334767,3,2.7800000000000002,G14E11,2021_Oct_18_0829,t1_Paradigm,2021.1.4,59.974199377737186,
F,right,Target,0,44,44,44,3173.9642440673197,3175.9649957060465,left,0,0.8895103890099563,3,2.7800000000000002,G14E11,2021_Oct_18_0829,t1_Paradigm,2021.1.4,59.974199377737186,
B,left,Lure,0,45,45,45,3177.4648021021276,3179.466891484568,left,1,1.0036090208450332,3,2.7800000000000002,G14E11,2021_Oct_18_0829,t1_Paradigm,2021.1.4,59.974199377737186,
W,right,Target,0,46,46,46,3180.9649456609623,3182.966478452203,right,1,0.8961942955502309,3,2.7800000000000002,G14E11,2021_Oct_18_0829,t1_Paradigm,2021.1.4,59.974199377737186,
X,left,Distractor,0,47,47,47,3184.464271816658,3186.466052908567,left,1,0.8203705325722694,3,2.7800000000000002,G14E11,2021_Oct_18_0829,t1_Paradigm,2021.1.4,59.974199377737186,
T,left,Distractor,0,48,48,48,3187.9641645084484,3189.9656418009545,left,1,1.2732663948554546,3,2.7800000000000002,G14E11,2021_Oct_18_0829,t1_Paradigm,2021.1.4,59.974199377737186,
L,left,Pretarget,0,49,49,49,3191.464194182656,3193.466395845753,left,1,0.9240520866587758,3,2.7800000000000002,G14E11,2021_Oct_18_0829,t1_Paradigm,2021.1.4,59.974199377737186,
J,left,Distractor,0,50,50,50,3194.9641718869098,3196.9654980817577,left,1,0.5291642566444352,3,2.7800000000000002,G14E11,2021_Oct_18_0829,t1_Paradigm,2021.1.4,59.974199377737186,
Z,left,Distractor,0,51,51,51,3198.464232999657,3200.4650680468767,left,1,0.6455591880949214,3,2.7800000000000002,G14E11,2021_Oct_18_0829,t1_Paradigm,2021.1.4,59.974199377737186,
P,left,Pretarget,0,52,52,52,3201.964252087346,3203.965448999079,left,1,0.6812095769564621,3,2.7800000000000002,G14E11,2021_Oct_18_0829,t1_Paradigm,2021.1.4,59.974199377737186,
L,right,Target,0,53,53,53,3205.4642224131967,3207.466280998662,left,0,1.004159516771324,3,2.7800000000000002,G14E11,2021_Oct_18_0829,t1_Paradigm,2021.1.4,59.974199377737186,
V,left,Distractor,0,54,54,54,3208.964147826773,3210.9659215402207,left,1,1.2325989858363755,3,2.7800000000000002,G14E11,2021_Oct_18_0829,t1_Paradigm,2021.1.4,59.974199377737186,
F,left,Distractor,0,55,55,55,3212.464101150108,3214.464917270001,left,1,0.7095453628571704,3,2.7800000000000002,G14E11,2021_Oct_18_0829,t1_Paradigm,2021.1.4,59.974199377737186,
P,right,Target,0,56,56,56,3215.9640259220614,3217.96594592114,right,1,0.47243814857210964,3,2.7800000000000002,G14E11,2021_Oct_18_0829,t1_Paradigm,2021.1.4,59.974199377737186,
T,left,Pretarget,0,57,57,57,3219.464099866862,3221.4634592256043,left,1,0.7832428511464968,3,2.7800000000000002,G14E11,2021_Oct_18_0829,t1_Paradigm,2021.1.4,59.974199377737186,
D,left,Distractor,0,58,58,58,3222.9648250394384,3224.9663097104058,left,1,0.7841202442068607,3,2.7800000000000002,G14E11,2021_Oct_18_0829,t1_Paradigm,2021.1.4,59.974199377737186,
V,left,Distractor,0,59,59,59,3226.464835786319,3228.4663239861256,left,1,0.8040792521787807,3,2.7800000000000002,G14E11,2021_Oct_18_0829,t1_Paradigm,2021.1.4,59.974199377737186,
Z,left,Distractor,0,60,60,60,3229.96411029296,3231.965120818757,left,1,1.0655991663807072,3,2.7800000000000002,G14E11,2021_Oct_18_0829,t1_Paradigm,2021.1.4,59.974199377737186,
T,right,Target,0,61,61,61,3233.4641611400293,3235.465171986667,right,1,0.9253006475046277,3,2.7800000000000002,G14E11,2021_Oct_18_0829,t1_Paradigm,2021.1.4,59.974199377737186,
B,left,Distractor,0,62,62,62,3236.96483787155,3238.9662622317555,None,0,,3,2.7800000000000002,G14E11,2021_Oct_18_0829,t1_Paradigm,2021.1.4,59.974199377737186,
J,left,Distractor,0,63,63,63,3240.4643241073936,3242.4638467542245,left,1,0.7266277406015433,3,2.7800000000000002,G14E11,2021_Oct_18_0829,t1_Paradigm,2021.1.4,59.974199377737186,
