Letter,CorrAnswer,Stimulus,nback_run.thisRepN,nback_run.thisTrialN,nback_run.thisN,nback_run.thisIndex,fixcross.started,nback_trial.started,trial_resp.keys,trial_resp.corr,currentlevel,trial_resp.rt,Participant,date,expName,psychopyVersion,frameRate,
H,left,Distractor,0,0,0,0,191.11174683348509,193.11059740040218,None,0,1,,G24T03,2021_Oct_19_0957,t1_Paradigm,2021.1.4,59.94144669049767,
Q,left,Pretarget,0,1,1,1,194.608285541879,196.6085306344903,left,1,1,0.8078945485758595,G24T03,2021_Oct_19_0957,t1_Paradigm,2021.1.4,59.94144669049767,
Q,right,Target,0,2,2,2,198.1084204390645,200.1084775417694,right,1,1,0.6197955915122293,G24T03,2021_Oct_19_0957,t1_Paradigm,2021.1.4,59.94144669049767,
T,left,Distractor,0,3,3,3,201.6083660631557,203.60982442839304,left,1,1,0.6544008079217747,G24T03,2021_Oct_19_0957,t1_Paradigm,2021.1.4,59.94144669049767,
Q,left,Lure,0,4,4,4,205.10803387284977,207.10799698060146,left,1,1,1.0601387981441803,G24T03,2021_Oct_19_0957,t1_Paradigm,2021.1.4,59.94144669049767,
L,left,Distractor,0,5,5,5,208.60834168223664,210.60809049435193,left,1,1,0.8082487138453871,G24T03,2021_Oct_19_0957,t1_Paradigm,2021.1.4,59.94144669049767,
V,left,Pretarget,0,6,6,6,212.10844417841872,214.110365460685,left,1,1,0.5857867457089014,G24T03,2021_Oct_19_0957,t1_Paradigm,2021.1.4,59.94144669049767,
V,right,Target,0,7,7,7,215.60840167215792,217.60842958191643,right,1,1,0.6877436690847389,G24T03,2021_Oct_19_0957,t1_Paradigm,2021.1.4,59.94144669049767,
K,left,Distractor,0,8,8,8,219.1087463737349,221.11061889416305,left,1,1,0.7534503040951677,G24T03,2021_Oct_19_0957,t1_Paradigm,2021.1.4,59.94144669049767,
G,left,Pretarget,0,9,9,9,222.60908016806934,224.6100573305157,left,1,1,0.8700733256991953,G24T03,2021_Oct_19_0957,t1_Paradigm,2021.1.4,59.94144669049767,
G,right,Target,0,10,10,10,226.1083001383813,228.10842075984692,right,1,1,0.6517766487668268,G24T03,2021_Oct_19_0957,t1_Paradigm,2021.1.4,59.94144669049767,
G,right,Target,0,11,11,11,229.60834232380148,231.60858966206433,right,1,1,0.6875213533639908,G24T03,2021_Oct_19_0957,t1_Paradigm,2021.1.4,59.94144669049767,
P,left,Pretarget,0,12,12,12,233.1083395970054,235.11035455344245,left,1,1,0.5299473339691758,G24T03,2021_Oct_19_0957,t1_Paradigm,2021.1.4,59.94144669049767,
P,right,Target,0,13,13,13,236.60897302028025,238.6086628048797,right,1,1,0.8075009246822447,G24T03,2021_Oct_19_0957,t1_Paradigm,2021.1.4,59.94144669049767,
G,left,Lure,0,14,14,14,240.10885287995916,242.10851796285715,left,1,1,0.5396201513940468,G24T03,2021_Oct_19_0957,t1_Paradigm,2021.1.4,59.94144669049767,
Y,left,Distractor,0,15,15,15,243.60831377247814,245.60813187778695,left,1,1,0.624066426535137,G24T03,2021_Oct_19_0957,t1_Paradigm,2021.1.4,59.94144669049767,
B,left,Distractor,0,16,16,16,247.10817053442588,249.10789239924634,left,1,1,0.6283401487744413,G24T03,2021_Oct_19_0957,t1_Paradigm,2021.1.4,59.94144669049767,
T,left,Pretarget,0,17,17,17,250.60841386264656,252.60798976256046,left,1,1,0.45619178051128983,G24T03,2021_Oct_19_0957,t1_Paradigm,2021.1.4,59.94144669049767,
T,right,Target,0,18,18,18,254.10890067945002,256.1085609502625,right,1,1,0.7963867445942014,G24T03,2021_Oct_19_0957,t1_Paradigm,2021.1.4,59.94144669049767,
S,left,Distractor,0,19,19,19,257.6088357170811,259.61073935526656,left,1,1,0.6373665504506789,G24T03,2021_Oct_19_0957,t1_Paradigm,2021.1.4,59.94144669049767,
T,left,Lure,0,20,20,20,261.1083164992742,263.1089459125069,left,1,1,0.595302370202262,G24T03,2021_Oct_19_0957,t1_Paradigm,2021.1.4,59.94144669049767,
J,left,Distractor,0,21,21,21,264.60819828376407,266.6102895910735,left,1,1,0.5659124294179492,G24T03,2021_Oct_19_0957,t1_Paradigm,2021.1.4,59.94144669049767,
P,left,Distractor,0,22,22,22,268.10830687521957,270.12137409701245,left,1,1,0.5587178063578904,G24T03,2021_Oct_19_0957,t1_Paradigm,2021.1.4,59.94144669049767,
F,left,Distractor,0,23,23,23,271.60804654448293,273.6102979318821,left,1,1,0.4142860763822682,G24T03,2021_Oct_19_0957,t1_Paradigm,2021.1.4,59.94144669049767,
L,left,Distractor,0,24,24,24,275.1080608202028,277.1083136120578,left,1,1,0.32383663614746183,G24T03,2021_Oct_19_0957,t1_Paradigm,2021.1.4,59.94144669049767,
W,left,Pretarget,0,25,25,25,278.6081004392472,280.61018693447113,left,1,1,0.3899077021051198,G24T03,2021_Oct_19_0957,t1_Paradigm,2021.1.4,59.94144669049767,
W,right,Target,0,26,26,26,282.10819042415824,284.1085484389914,right,1,1,0.3637232134351507,G24T03,2021_Oct_19_0957,t1_Paradigm,2021.1.4,59.94144669049767,
V,left,Distractor,0,27,27,27,285.60822715592803,287.61080544040306,left,1,1,0.41348792135249823,G24T03,2021_Oct_19_0957,t1_Paradigm,2021.1.4,59.94144669049767,
W,left,Lure,0,28,28,28,289.1082337324042,291.1084983939072,left,1,1,0.45167232397943735,G24T03,2021_Oct_19_0957,t1_Paradigm,2021.1.4,59.94144669049767,
R,left,Pretarget,0,29,29,29,292.60818448930513,294.6112109339447,left,1,1,0.5009532627300359,G24T03,2021_Oct_19_0957,t1_Paradigm,2021.1.4,59.94144669049767,
R,right,Target,0,30,30,30,296.1082767198095,298.10826998297125,right,1,1,0.5239236376364715,G24T03,2021_Oct_19_0957,t1_Paradigm,2021.1.4,59.94144669049767,
G,left,Distractor,0,31,31,31,299.6082733513904,301.609230944945,left,1,1,0.542884310183581,G24T03,2021_Oct_19_0957,t1_Paradigm,2021.1.4,59.94144669049767,
R,left,Lure,0,32,32,32,303.1089869751595,305.1105800771038,left,1,1,0.6094609598512761,G24T03,2021_Oct_19_0957,t1_Paradigm,2021.1.4,59.94144669049767,
S,left,Distractor,0,33,33,33,306.60812000813894,308.6099841877003,left,1,1,0.5182473696186207,G24T03,2021_Oct_19_0957,t1_Paradigm,2021.1.4,59.94144669049767,
R,left,Lure,0,34,34,34,310.1083482586546,312.11014763620915,left,1,1,0.6180205948185176,G24T03,2021_Oct_19_0957,t1_Paradigm,2021.1.4,59.94144669049767,
P,left,Pretarget,0,35,35,35,313.6081148753292,315.6083599679405,left,1,1,0.4799513279576786,G24T03,2021_Oct_19_0957,t1_Paradigm,2021.1.4,59.94144669049767,
P,right,Target,0,36,36,36,317.10839734133333,319.1081990858074,right,1,1,0.5322423503967002,G24T03,2021_Oct_19_0957,t1_Paradigm,2021.1.4,59.94144669049767,
Y,left,Pretarget,0,37,37,37,320.60886747646146,322.60869392263703,left,1,1,0.5353717724210583,G24T03,2021_Oct_19_0957,t1_Paradigm,2021.1.4,59.94144669049767,
Y,right,Target,0,38,38,38,324.10811696050223,326.1081843288848,right,1,1,0.6199008144903928,G24T03,2021_Oct_19_0957,t1_Paradigm,2021.1.4,59.94144669049767,
J,left,Distractor,0,39,39,39,327.6082175318734,329.60878535115626,left,1,1,0.5112452277098782,G24T03,2021_Oct_19_0957,t1_Paradigm,2021.1.4,59.94144669049767,
Y,left,Lure,0,40,40,40,331.1080986747984,333.1085850103991,left,1,1,0.6755750132142566,G24T03,2021_Oct_19_0957,t1_Paradigm,2021.1.4,59.94144669049767,
T,left,Distractor,0,41,41,41,334.60824223363306,336.6105744630913,left,1,1,0.5015470669022761,G24T03,2021_Oct_19_0957,t1_Paradigm,2021.1.4,59.94144669049767,
V,left,Distractor,0,42,42,42,338.1083267649519,340.1104216009844,left,1,1,0.5056324785109609,G24T03,2021_Oct_19_0957,t1_Paradigm,2021.1.4,59.94144669049767,
N,left,Pretarget,0,43,43,43,341.60851042397553,343.6101644783048,left,1,1,0.43023024912690744,G24T03,2021_Oct_19_0957,t1_Paradigm,2021.1.4,59.94144669049767,
N,right,Target,0,44,44,44,345.1081535319099,347.10823469480965,right,1,1,0.6599590207915753,G24T03,2021_Oct_19_0957,t1_Paradigm,2021.1.4,59.94144669049767,
N,right,Target,0,45,45,45,348.60825217847014,350.6083885192638,right,1,1,0.5838077190564945,G24T03,2021_Oct_19_0957,t1_Paradigm,2021.1.4,59.94144669049767,
X,left,Distractor,0,46,46,46,352.10831072484143,354.1106464830809,left,1,1,0.4893983008223586,G24T03,2021_Oct_19_0957,t1_Paradigm,2021.1.4,59.94144669049767,
Z,left,Distractor,0,47,47,47,355.60780883033294,357.6108737711911,left,1,1,0.47741186048369855,G24T03,2021_Oct_19_0957,t1_Paradigm,2021.1.4,59.94144669049767,
H,left,Pretarget,0,48,48,48,359.10822571231984,361.1080239279545,left,1,1,0.5805409938329831,G24T03,2021_Oct_19_0957,t1_Paradigm,2021.1.4,59.94144669049767,
H,right,Target,0,49,49,49,362.6085806795745,364.6081825644942,right,1,1,0.5838619345449843,G24T03,2021_Oct_19_0957,t1_Paradigm,2021.1.4,59.94144669049767,
K,left,Distractor,0,50,50,50,366.10814198304433,368.10895714059006,left,1,1,0.5230439989245497,G24T03,2021_Oct_19_0957,t1_Paradigm,2021.1.4,59.94144669049767,
V,left,Pretarget,0,51,51,51,369.6081838476821,371.6106238665525,left,1,1,0.44563002116046846,G24T03,2021_Oct_19_0957,t1_Paradigm,2021.1.4,59.94144669049767,
V,right,Target,0,52,52,52,373.1080611409852,375.1082622837275,right,1,1,0.5160293456865475,G24T03,2021_Oct_19_0957,t1_Paradigm,2021.1.4,59.94144669049767,
R,left,Distractor,0,53,53,53,376.6083541935077,378.6105051698978,left,1,1,0.46949671645415947,G24T03,2021_Oct_19_0957,t1_Paradigm,2021.1.4,59.94144669049767,
V,left,Lure,0,54,54,54,380.1080329104443,382.1084467447945,left,1,1,0.475593876442872,G24T03,2021_Oct_19_0957,t1_Paradigm,2021.1.4,59.94144669049767,
Y,left,Distractor,0,55,55,55,383.60799393302295,385.6086567096063,left,1,1,0.4955310698132962,G24T03,2021_Oct_19_0957,t1_Paradigm,2021.1.4,59.94144669049767,
Q,left,Distractor,0,56,56,56,387.10892923083156,389.1103644982795,left,1,1,0.41761247074464336,G24T03,2021_Oct_19_0957,t1_Paradigm,2021.1.4,59.94144669049767,
Z,left,Pretarget,0,57,57,57,390.6080552061321,392.6083160180715,left,1,1,0.48768714372999966,G24T03,2021_Oct_19_0957,t1_Paradigm,2021.1.4,59.94144669049767,
Z,right,Target,0,58,58,58,394.1081182437483,396.10802777757635,right,1,1,0.6360887967166491,G24T03,2021_Oct_19_0957,t1_Paradigm,2021.1.4,59.94144669049767,
B,left,Distractor,0,59,59,59,397.607950624777,399.609979375673,left,1,1,0.4943271005176939,G24T03,2021_Oct_19_0957,t1_Paradigm,2021.1.4,59.94144669049767,
S,left,Pretarget,0,60,60,60,401.1080123790889,403.1105242575868,left,1,1,0.4655210190685466,G24T03,2021_Oct_19_0957,t1_Paradigm,2021.1.4,59.94144669049767,
S,right,Target,0,61,61,61,404.60804814851144,406.6081501634908,right,1,1,0.616202289937064,G24T03,2021_Oct_19_0957,t1_Paradigm,2021.1.4,59.94144669049767,
T,left,Distractor,0,62,62,62,408.108098995639,410.10854458936956,left,1,1,0.45952234527794644,G24T03,2021_Oct_19_0957,t1_Paradigm,2021.1.4,59.94144669049767,
D,left,Distractor,0,63,63,63,411.6080561685376,413.607991366589,left,1,1,0.5761405548546463,G24T03,2021_Oct_19_0957,t1_Paradigm,2021.1.4,59.94144669049767,
R,left,Distractor,0,0,0,0,445.73045394424116,447.7251103478484,None,0,1,,G24T03,2021_Oct_19_0957,t1_Paradigm,2021.1.4,59.94144669049767,
V,left,Distractor,0,1,1,1,449.2247184883454,451.2253017061157,left,1,1,0.6546927376184613,G24T03,2021_Oct_19_0957,t1_Paradigm,2021.1.4,59.94144669049767,
N,left,Pretarget,0,2,2,2,452.7246641124366,454.7252489342354,left,1,1,0.4507891565444879,G24T03,2021_Oct_19_0957,t1_Paradigm,2021.1.4,59.94144669049767,
N,right,Target,0,3,3,3,456.2247505685664,458.224829806597,right,1,1,0.6155231524026021,G24T03,2021_Oct_19_0957,t1_Paradigm,2021.1.4,59.94144669049767,
S,left,Distractor,0,4,4,4,459.7247154407669,461.7252835808322,left,1,1,0.5387020164635032,G24T03,2021_Oct_19_0957,t1_Paradigm,2021.1.4,59.94144669049767,
N,left,Lure,0,5,5,5,463.2246880122111,465.2251592701068,left,1,1,0.7029156718053855,G24T03,2021_Oct_19_0957,t1_Paradigm,2021.1.4,59.94144669049767,
Z,left,Distractor,0,6,6,6,466.724810718908,468.7253583276761,left,1,1,0.5629231977509335,G24T03,2021_Oct_19_0957,t1_Paradigm,2021.1.4,59.94144669049767,
L,left,Pretarget,0,7,7,7,470.2254229692044,472.2270311489119,left,1,1,0.5010552777093835,G24T03,2021_Oct_19_0957,t1_Paradigm,2021.1.4,59.94144669049767,
L,right,Target,0,8,8,8,473.72483092942275,475.72477831790457,right,1,1,0.5872393364552408,G24T03,2021_Oct_19_0957,t1_Paradigm,2021.1.4,59.94144669049767,
H,left,Distractor,0,9,9,9,477.2248686236562,479.2252455658163,None,0,1,,G24T03,2021_Oct_19_0957,t1_Paradigm,2021.1.4,59.94144669049767,
L,left,Lure,0,10,10,10,480.72470581671223,482.7252312901546,left,1,1,0.7068140558549203,G24T03,2021_Oct_19_0957,t1_Paradigm,2021.1.4,59.94144669049767,
X,left,Pretarget,0,11,11,11,484.22464534553,486.22507040802157,left,1,1,0.5350711810751818,G24T03,2021_Oct_19_0957,t1_Paradigm,2021.1.4,59.94144669049767,
X,right,Target,0,12,12,12,487.72492492437596,489.7247491249582,right,1,1,0.6671886112890206,G24T03,2021_Oct_19_0957,t1_Paradigm,2021.1.4,59.94144669049767,
X,right,Target,0,13,13,13,491.22474158607656,493.22475473897066,right,1,1,0.5593067985028028,G24T03,2021_Oct_19_0957,t1_Paradigm,2021.1.4,59.94144669049767,
R,left,Distractor,0,14,14,14,494.7247757514706,496.72524315980263,left,1,1,0.5469164686510339,G24T03,2021_Oct_19_0957,t1_Paradigm,2021.1.4,59.94144669049767,
T,left,Distractor,0,15,15,15,498.22483975149225,500.2270956300781,left,1,1,0.5810930938459933,G24T03,2021_Oct_19_0957,t1_Paradigm,2021.1.4,59.94144669049767,
V,left,Pretarget,0,16,16,16,501.72484279907076,503.72689496853855,left,1,1,0.44114200328476727,G24T03,2021_Oct_19_0957,t1_Paradigm,2021.1.4,59.94144669049767,
V,right,Target,0,17,17,17,505.22470726032043,507.2247688542702,right,1,1,0.5912936302484013,G24T03,2021_Oct_19_0957,t1_Paradigm,2021.1.4,59.94144669049767,
N,left,Distractor,0,18,18,18,508.7248812952894,510.72667329444084,left,1,1,0.46533559559611604,G24T03,2021_Oct_19_0957,t1_Paradigm,2021.1.4,59.94144669049767,
B,left,Distractor,0,19,19,19,512.2248384682462,514.2257450543111,left,1,1,0.5824439903954044,G24T03,2021_Oct_19_0957,t1_Paradigm,2021.1.4,59.94144669049767,
V,left,Lure,0,20,20,20,515.7249435308622,517.7257695956505,left,1,1,0.4582692932453938,G24T03,2021_Oct_19_0957,t1_Paradigm,2021.1.4,59.94144669049767,
P,left,Distractor,0,21,21,21,519.2248779268702,521.2263318008627,left,1,1,0.44585939444368705,G24T03,2021_Oct_19_0957,t1_Paradigm,2021.1.4,59.94144669049767,
K,left,Pretarget,0,22,22,22,522.7246134257875,524.724878408073,left,1,1,0.5633209920488298,G24T03,2021_Oct_19_0957,t1_Paradigm,2021.1.4,59.94144669049767,
K,right,Target,0,23,23,23,526.2249148191186,528.2248320522485,right,1,1,0.583338385913521,G24T03,2021_Oct_19_0957,t1_Paradigm,2021.1.4,59.94144669049767,
J,left,Pretarget,0,24,24,24,529.7248286838294,531.7257625379716,left,1,1,0.4742330349399708,G24T03,2021_Oct_19_0957,t1_Paradigm,2021.1.4,59.94144669049767,
J,right,Target,0,25,25,25,533.2248750396539,535.2249093654682,right,1,1,0.5911499110516161,G24T03,2021_Oct_19_0957,t1_Paradigm,2021.1.4,59.94144669049767,
H,left,Distractor,0,26,26,26,536.7250067288405,538.7265173847554,left,1,1,0.44944339274661615,G24T03,2021_Oct_19_0957,t1_Paradigm,2021.1.4,59.94144669049767,
J,left,Lure,0,27,27,27,540.224590167636,542.2249051950639,left,1,1,0.6949886580114253,G24T03,2021_Oct_19_0957,t1_Paradigm,2021.1.4,59.94144669049767,
V,left,Distractor,0,28,28,28,543.7245919320267,545.7249634205946,left,1,1,0.6830676613026299,G24T03,2021_Oct_19_0957,t1_Paradigm,2021.1.4,59.94144669049767,
Z,left,Pretarget,0,29,29,29,547.2248663780047,549.2256799315219,left,1,1,0.5263986238860525,G24T03,2021_Oct_19_0957,t1_Paradigm,2021.1.4,59.94144669049767,
Z,right,Target,0,30,30,30,550.7248277214239,552.7248581975582,right,1,1,0.6431567030376755,G24T03,2021_Oct_19_0957,t1_Paradigm,2021.1.4,59.94144669049767,
T,left,Distractor,0,31,31,31,554.225452162209,556.2265300564468,left,1,1,0.4854652701760642,G24T03,2021_Oct_19_0957,t1_Paradigm,2021.1.4,59.94144669049767,
Z,left,Lure,0,32,32,32,557.7246240122477,559.724949305295,left,1,1,0.5232746555120684,G24T03,2021_Oct_19_0957,t1_Paradigm,2021.1.4,59.94144669049767,
F,left,Distractor,0,33,33,33,561.2254300268833,563.227214326791,left,1,1,0.5086800960707478,G24T03,2021_Oct_19_0957,t1_Paradigm,2021.1.4,59.94144669049767,
Y,left,Pretarget,0,34,34,34,564.7245659470791,566.7246721325209,left,1,1,0.4673252087086439,G24T03,2021_Oct_19_0957,t1_Paradigm,2021.1.4,59.94144669049767,
Y,right,Target,0,35,35,35,568.2245763731189,570.2251015257789,right,1,1,0.6796132669551298,G24T03,2021_Oct_19_0957,t1_Paradigm,2021.1.4,59.94144669049767,
Y,right,Target,0,36,36,36,571.7250429794658,573.7247273104149,right,1,1,0.8432921455823816,G24T03,2021_Oct_19_0957,t1_Paradigm,2021.1.4,59.94144669049767,
W,left,Distractor,0,37,37,37,575.2247079018853,577.2249764130684,left,1,1,0.8632001460646279,G24T03,2021_Oct_19_0957,t1_Paradigm,2021.1.4,59.94144669049767,
Q,left,Distractor,0,38,38,38,578.7246637916542,580.7253939366783,left,1,1,0.6585657783434726,G24T03,2021_Oct_19_0957,t1_Paradigm,2021.1.4,59.94144669049767,
P,left,Pretarget,0,39,39,39,582.2247297164286,584.2251380971866,left,1,1,0.5667368902359158,G24T03,2021_Oct_19_0957,t1_Paradigm,2021.1.4,59.94144669049767,
P,right,Target,0,40,40,40,585.7246098969481,587.7250407338142,left,0,1,0.6509582832222804,G24T03,2021_Oct_19_0957,t1_Paradigm,2021.1.4,59.94144669049767,
J,left,Distractor,0,41,41,41,589.2252830996295,591.225168573379,left,1,1,0.8630192137788981,G24T03,2021_Oct_19_0957,t1_Paradigm,2021.1.4,59.94144669049767,
P,left,Lure,0,42,42,42,592.7247362928465,594.7252694655326,None,0,1,,G24T03,2021_Oct_19_0957,t1_Paradigm,2021.1.4,59.94144669049767,
L,left,Distractor,0,43,43,43,596.2246232102043,598.2250431398279,left,1,1,1.254896960046608,G24T03,2021_Oct_19_0957,t1_Paradigm,2021.1.4,59.94144669049767,
Z,left,Distractor,0,44,44,44,599.724751691334,601.7251559016877,left,1,1,0.7149592149071395,G24T03,2021_Oct_19_0957,t1_Paradigm,2021.1.4,59.94144669049767,
F,left,Pretarget,0,45,45,45,603.2245628994424,605.2265114499023,left,1,1,0.8296259867493063,G24T03,2021_Oct_19_0957,t1_Paradigm,2021.1.4,59.94144669049767,
F,right,Target,0,46,46,46,606.7248716712347,608.7248367038555,right,1,1,0.4993864664575085,G24T03,2021_Oct_19_0957,t1_Paradigm,2021.1.4,59.94144669049767,
G,left,Pretarget,0,47,47,47,610.2248128041392,612.2267004022142,left,1,1,0.6135771684348583,G24T03,2021_Oct_19_0957,t1_Paradigm,2021.1.4,59.94144669049767,
G,right,Target,0,48,48,48,613.7247010046849,615.7247138367384,right,1,1,1.0192214844864793,G24T03,2021_Oct_19_0957,t1_Paradigm,2021.1.4,59.94144669049767,
V,left,Distractor,0,49,49,49,617.2247480021324,619.2254531246144,left,1,1,0.5425160296726972,G24T03,2021_Oct_19_0957,t1_Paradigm,2021.1.4,59.94144669049767,
G,left,Lure,0,50,50,50,620.7251475608209,622.7250564531423,left,1,1,0.9793236791156232,G24T03,2021_Oct_19_0957,t1_Paradigm,2021.1.4,59.94144669049767,
Q,left,Pretarget,0,51,51,51,624.2247390197008,626.2249273303896,left,1,1,0.6794387507252395,G24T03,2021_Oct_19_0957,t1_Paradigm,2021.1.4,59.94144669049767,
Q,right,Target,0,52,52,52,627.724726027227,629.7247186487657,right,1,1,0.7313987057423219,G24T03,2021_Oct_19_0957,t1_Paradigm,2021.1.4,59.94144669049767,
Y,left,Distractor,0,53,53,53,631.2247175259399,633.2252497362206,left,1,1,0.6226558607304469,G24T03,2021_Oct_19_0957,t1_Paradigm,2021.1.4,59.94144669049767,
V,left,Distractor,0,54,54,54,634.7245893656509,636.7269658657606,left,1,1,0.625020491250325,G24T03,2021_Oct_19_0957,t1_Paradigm,2021.1.4,59.94144669049767,
B,left,Distractor,0,55,55,55,638.2253732449608,640.2270311489119,left,1,1,0.5329445856623352,G24T03,2021_Oct_19_0957,t1_Paradigm,2021.1.4,59.94144669049767,
J,left,Pretarget,0,56,56,56,641.7247173655778,643.7268847028608,left,1,1,0.569090292614419,G24T03,2021_Oct_19_0957,t1_Paradigm,2021.1.4,59.94144669049767,
J,right,Target,0,57,57,57,645.2247403028887,647.2248586787609,right,1,1,0.5430876985774375,G24T03,2021_Oct_19_0957,t1_Paradigm,2021.1.4,59.94144669049767,
H,left,Distractor,0,58,58,58,648.7248504983145,650.7268802116159,left,1,1,0.5132848858484067,G24T03,2021_Oct_19_0957,t1_Paradigm,2021.1.4,59.94144669049767,
J,left,Lure,0,59,59,59,652.2245468593901,654.2264565927908,left,1,1,0.5175104878144339,G24T03,2021_Oct_19_0957,t1_Paradigm,2021.1.4,59.94144669049767,
D,left,Pretarget,0,60,60,60,655.7245585686178,657.7257599715958,left,1,1,0.5221470369724557,G24T03,2021_Oct_19_0957,t1_Paradigm,2021.1.4,59.94144669049767,
D,right,Target,0,61,61,61,659.224745114916,661.2247021274525,right,1,1,0.639203461818397,G24T03,2021_Oct_19_0957,t1_Paradigm,2021.1.4,59.94144669049767,
R,left,Distractor,0,62,62,62,662.7245900072157,664.7256261971779,left,1,1,0.4985475696157664,G24T03,2021_Oct_19_0957,t1_Paradigm,2021.1.4,59.94144669049767,
F,left,Distractor,0,63,63,63,666.2247441525105,668.2253982675029,left,1,1,0.61484786454821,G24T03,2021_Oct_19_0957,t1_Paradigm,2021.1.4,59.94144669049767,
F,left,Distractor,0,0,0,0,847.0124596231035,849.0079170688987,None,0,2,,G24T03,2021_Oct_19_0957,t1_Paradigm,2021.1.4,59.94144669049767,
N,left,Pretarget,0,1,1,1,850.5079807480797,852.5088998453575,None,0,2,,G24T03,2021_Oct_19_0957,t1_Paradigm,2021.1.4,59.94144669049767,
V,left,Distractor,0,2,2,2,854.0079542818712,856.0085487277247,left,1,2,1.0072719363961369,G24T03,2021_Oct_19_0957,t1_Paradigm,2021.1.4,59.94144669049767,
N,right,Target,0,3,3,3,857.5079127380741,859.5089383415761,right,1,2,0.7388605567393824,G24T03,2021_Oct_19_0957,t1_Paradigm,2021.1.4,59.94144669049767,
N,left,Lure,0,4,4,4,861.0080235751229,863.0078974999487,left,1,2,1.000037213030737,G24T03,2021_Oct_19_0957,t1_Paradigm,2021.1.4,59.94144669049767,
X,left,Distractor,0,5,5,5,864.5079024723964,866.5071716858074,None,0,2,,G24T03,2021_Oct_19_0957,t1_Paradigm,2021.1.4,59.94144669049767,
G,left,Pretarget,0,6,6,6,868.0077993345913,870.0081916752388,left,1,2,1.3757792677497491,G24T03,2021_Oct_19_0957,t1_Paradigm,2021.1.4,59.94144669049767,
H,left,Pretarget,0,7,7,7,871.5084289082442,873.5096813186537,left,1,2,1.1381558833527379,G24T03,2021_Oct_19_0957,t1_Paradigm,2021.1.4,59.94144669049767,
G,right,Target,0,8,8,8,875.0078994247597,877.0083780611167,right,1,2,1.015844724199269,G24T03,2021_Oct_19_0957,t1_Paradigm,2021.1.4,59.94144669049767,
H,right,Target,0,9,9,9,878.507885790721,880.5084266626509,right,1,2,1.2273766524740495,G24T03,2021_Oct_19_0957,t1_Paradigm,2021.1.4,59.94144669049767,
T,left,Pretarget,0,10,10,10,882.0077919561882,884.0082606476499,None,0,2,,G24T03,2021_Oct_19_0957,t1_Paradigm,2021.1.4,59.94144669049767,
K,left,Distractor,0,11,11,11,885.5078447280684,887.5096704114112,left,1,2,0.7062949985265732,G24T03,2021_Oct_19_0957,t1_Paradigm,2021.1.4,59.94144669049767,
T,right,Target,0,12,12,12,889.0086083968636,891.0097947221366,right,1,2,0.853991849697195,G24T03,2021_Oct_19_0957,t1_Paradigm,2021.1.4,59.94144669049767,
T,left,Lure,0,13,13,13,892.5078591641504,894.5077154448954,None,0,2,,G24T03,2021_Oct_19_0957,t1_Paradigm,2021.1.4,59.94144669049767,
J,left,Distractor,0,14,14,14,896.0077980514034,898.0095746520674,left,1,2,1.070257209299598,G24T03,2021_Oct_19_0957,t1_Paradigm,2021.1.4,59.94144669049767,
Q,left,Pretarget,0,15,15,15,899.5080038458109,901.5088764268439,left,1,2,0.7392971680965275,G24T03,2021_Oct_19_0957,t1_Paradigm,2021.1.4,59.94144669049767,
M,left,Distractor,0,16,16,16,903.0077990138088,905.0100828021532,left,1,2,1.1577947310870513,G24T03,2021_Oct_19_0957,t1_Paradigm,2021.1.4,59.94144669049767,
Q,right,Target,0,17,17,17,906.5077924373909,908.5081148432218,right,1,2,0.9396700039505959,G24T03,2021_Oct_19_0957,t1_Paradigm,2021.1.4,59.94144669049767,
R,left,Distractor,0,18,18,18,910.0078253195388,912.0098117245943,left,1,2,1.0219624154851772,G24T03,2021_Oct_19_0957,t1_Paradigm,2021.1.4,59.94144669049767,
W,left,Distractor,0,19,19,19,913.5077837757417,915.5089537400636,left,1,2,0.8189551547984593,G24T03,2021_Oct_19_0957,t1_Paradigm,2021.1.4,59.94144669049767,
C,left,Pretarget,0,20,20,20,917.0079327881685,919.0096067322302,left,1,2,0.7423762241960503,G24T03,2021_Oct_19_0957,t1_Paradigm,2021.1.4,59.94144669049767,
T,left,Distractor,0,21,21,21,920.5085392640904,922.5208522807225,left,1,2,1.0229816029313952,G24T03,2021_Oct_19_0957,t1_Paradigm,2021.1.4,59.94144669049767,
C,right,Target,0,22,22,22,924.0077101516654,926.009277589561,right,1,2,0.8467067604651675,G24T03,2021_Oct_19_0957,t1_Paradigm,2021.1.4,59.94144669049767,
F,left,Pretarget,0,23,23,23,927.5080003169714,929.5074385929038,left,1,2,1.2684001515735872,G24T03,2021_Oct_19_0957,t1_Paradigm,2021.1.4,59.94144669049767,
C,right,Target,0,24,24,24,931.0079876452801,933.0087652689544,right,1,2,1.04721176676685,G24T03,2021_Oct_19_0957,t1_Paradigm,2021.1.4,59.94144669049767,
F,right,Target,0,25,25,25,934.5078841866925,936.5086419206928,None,0,2,,G24T03,2021_Oct_19_0957,t1_Paradigm,2021.1.4,59.94144669049767,
H,left,Distractor,0,26,26,26,938.0078182619181,940.0091390031157,left,1,2,0.8628851186367683,G24T03,2021_Oct_19_0957,t1_Paradigm,2021.1.4,59.94144669049767,
H,left,Lure,0,27,27,27,941.5078389536357,943.5078893195023,left,1,2,1.1558638247661293,G24T03,2021_Oct_19_0957,t1_Paradigm,2021.1.4,59.94144669049767,
P,left,Distractor,0,28,28,28,945.0077816905105,947.0086603667587,left,1,2,1.463311015162617,G24T03,2021_Oct_19_0957,t1_Paradigm,2021.1.4,59.94144669049767,
G,left,Pretarget,0,29,29,29,948.5078630137723,950.5084532891633,left,1,2,0.9233206584467553,G24T03,2021_Oct_19_0957,t1_Paradigm,2021.1.4,59.94144669049767,
K,left,Distractor,0,30,30,30,952.0077884273487,954.0096503612585,left,1,2,0.8463163446285762,G24T03,2021_Oct_19_0957,t1_Paradigm,2021.1.4,59.94144669049767,
G,right,Target,0,31,31,31,955.5077385426266,957.5095982310013,left,0,2,1.4422292007366195,G24T03,2021_Oct_19_0957,t1_Paradigm,2021.1.4,59.94144669049767,
M,left,Pretarget,0,32,32,32,959.0079639059259,961.0099891280406,left,1,2,0.8059456773335114,G24T03,2021_Oct_19_0957,t1_Paradigm,2021.1.4,59.94144669049767,
B,left,Distractor,0,33,33,33,962.5079072844237,964.5095780204865,left,1,2,1.1624174857861362,G24T03,2021_Oct_19_0957,t1_Paradigm,2021.1.4,59.94144669049767,
M,right,Target,0,34,34,34,966.0080094598234,968.0099487070111,right,1,2,1.1499200080288574,G24T03,2021_Oct_19_0957,t1_Paradigm,2021.1.4,59.94144669049767,
M,left,Lure,0,35,35,35,969.5078485776903,971.508536376874,left,1,2,1.443393069843296,G24T03,2021_Oct_19_0957,t1_Paradigm,2021.1.4,59.94144669049767,
T,left,Distractor,0,36,36,36,973.0078208283521,975.0082805373822,left,1,2,1.2394853183650412,G24T03,2021_Oct_19_0957,t1_Paradigm,2021.1.4,59.94144669049767,
F,left,Distractor,0,37,37,37,976.5079666327802,978.5207993484219,left,1,2,1.294938484672457,G24T03,2021_Oct_19_0957,t1_Paradigm,2021.1.4,59.94144669049767,
X,left,Distractor,0,38,38,38,980.0078901215456,982.0086234745686,left,1,2,0.7671456559328362,G24T03,2021_Oct_19_0957,t1_Paradigm,2021.1.4,59.94144669049767,
C,left,Distractor,0,39,39,39,983.5079820312676,985.5096364063793,left,1,2,0.8821460616891272,G24T03,2021_Oct_19_0957,t1_Paradigm,2021.1.4,59.94144669049767,
R,left,Distractor,0,40,40,40,987.0078480964876,989.0090828628163,left,1,2,0.88669984403532,G24T03,2021_Oct_19_0957,t1_Paradigm,2021.1.4,59.94144669049767,
B,left,Pretarget,0,41,41,41,990.5078986227745,992.5099328273209,left,1,2,1.1780347613967024,G24T03,2021_Oct_19_0957,t1_Paradigm,2021.1.4,59.94144669049767,
H,left,Distractor,0,42,42,42,994.0078747230582,996.0088749832357,left,1,2,0.8951975642121397,G24T03,2021_Oct_19_0957,t1_Paradigm,2021.1.4,59.94144669049767,
B,right,Target,0,43,43,43,997.5078476152848,999.5090875144233,left,0,2,1.106734304514248,G24T03,2021_Oct_19_0957,t1_Paradigm,2021.1.4,59.94144669049767,
W,left,Pretarget,0,44,44,44,1001.00784841727,1003.0081140412367,left,1,2,0.9517042437801138,G24T03,2021_Oct_19_0957,t1_Paradigm,2021.1.4,59.94144669049767,
L,left,Pretarget,0,45,45,45,1004.5083339508856,1006.5083278556704,left,1,2,0.6034645316540264,G24T03,2021_Oct_19_0957,t1_Paradigm,2021.1.4,59.94144669049767,
W,right,Target,0,46,46,46,1008.0076321968227,1010.0083738907124,right,1,2,0.9754615456331521,G24T03,2021_Oct_19_0957,t1_Paradigm,2021.1.4,59.94144669049767,
L,right,Target,0,47,47,47,1011.5077218609513,1013.5081081063836,right,1,2,1.0597204724908806,G24T03,2021_Oct_19_0957,t1_Paradigm,2021.1.4,59.94144669049767,
W,right,Target,0,48,48,48,1015.0076321968227,1017.0084576199879,right,1,2,1.1113285078317858,G24T03,2021_Oct_19_0957,t1_Paradigm,2021.1.4,59.94144669049767,
X,left,Distractor,0,49,49,49,1018.507884507475,1020.5100762257352,None,0,2,,G24T03,2021_Oct_19_0957,t1_Paradigm,2021.1.4,59.94144669049767,
R,left,Distractor,0,50,50,50,1022.0077383822645,1024.0082138106227,left,1,2,0.7516660042456351,G24T03,2021_Oct_19_0957,t1_Paradigm,2021.1.4,59.94144669049767,
V,left,Pretarget,0,51,51,51,1025.5076769486768,1027.5082104422036,left,1,2,0.7235714613343589,G24T03,2021_Oct_19_0957,t1_Paradigm,2021.1.4,59.94144669049767,
Z,left,Distractor,0,52,52,52,1029.0078291691607,1031.0082106025657,left,1,2,0.6637380665633827,G24T03,2021_Oct_19_0957,t1_Paradigm,2021.1.4,59.94144669049767,
V,right,Target,0,53,53,53,1032.507812968688,1034.5078986227745,left,0,2,1.019848331285175,G24T03,2021_Oct_19_0957,t1_Paradigm,2021.1.4,59.94144669049767,
V,left,Lure,0,54,54,54,1036.007676467474,1038.0079728884157,left,1,2,1.359803656465374,G24T03,2021_Oct_19_0957,t1_Paradigm,2021.1.4,59.94144669049767,
N,left,Distractor,0,55,55,55,1039.5087121762917,1041.5207544361474,left,1,2,0.8709722124622203,G24T03,2021_Oct_19_0957,t1_Paradigm,2021.1.4,59.94144669049767,
B,left,Distractor,0,56,56,56,1043.007717850909,1045.0077909937827,left,1,2,0.6320842271670699,G24T03,2021_Oct_19_0957,t1_Paradigm,2021.1.4,59.94144669049767,
V,left,Lure,0,57,57,57,1046.5075624224264,1048.507826763147,left,1,2,0.8279167545260862,G24T03,2021_Oct_19_0957,t1_Paradigm,2021.1.4,59.94144669049767,
J,left,Distractor,0,58,58,58,1050.0078599661356,1052.0086045472417,left,1,2,0.5592464877991006,G24T03,2021_Oct_19_0957,t1_Paradigm,2021.1.4,59.94144669049767,
H,left,Distractor,0,59,59,59,1053.5079149836674,1055.5098728373414,left,1,2,0.5142867499962449,G24T03,2021_Oct_19_0957,t1_Paradigm,2021.1.4,59.94144669049767,
X,left,Pretarget,0,60,60,60,1057.0078147330787,1059.008793178713,left,1,2,0.7589713039342314,G24T03,2021_Oct_19_0957,t1_Paradigm,2021.1.4,59.94144669049767,
P,left,Distractor,0,61,61,61,1060.507829329581,1062.5087914143223,left,1,2,0.5869230258394964,G24T03,2021_Oct_19_0957,t1_Paradigm,2021.1.4,59.94144669049767,
X,right,Target,0,62,62,62,1064.0078596453532,1066.0075545628206,left,0,2,0.9922067606821656,G24T03,2021_Oct_19_0957,t1_Paradigm,2021.1.4,59.94144669049767,
Q,left,Distractor,0,63,63,63,1067.5078941315296,1069.5095353538054,left,1,2,0.642315560602583,G24T03,2021_Oct_19_0957,t1_Paradigm,2021.1.4,59.94144669049767,
B,left,Pretarget,0,0,0,0,1093.0803509187535,1095.0761955723865,None,0,2,,G24T03,2021_Oct_19_0957,t1_Paradigm,2021.1.4,59.94144669049767,
F,left,Distractor,0,1,1,1,1096.5744887461187,1098.5752551417681,None,0,2,,G24T03,2021_Oct_19_0957,t1_Paradigm,2021.1.4,59.94144669049767,
B,right,Target,0,2,2,2,1100.0744196133455,1102.0752607557806,right,1,2,0.7647919327719137,G24T03,2021_Oct_19_0957,t1_Paradigm,2021.1.4,59.94144669049767,
V,left,Distractor,0,3,3,3,1103.5744274729514,1105.5766913716216,left,1,2,0.6390196423744783,G24T03,2021_Oct_19_0957,t1_Paradigm,2021.1.4,59.94144669049767,
G,left,Pretarget,0,4,4,4,1107.0744208965334,1109.0750333072501,left,1,2,1.1087213511927985,G24T03,2021_Oct_19_0957,t1_Paradigm,2021.1.4,59.94144669049767,
B,left,Lure,0,5,5,5,1110.574427152169,1112.574960324855,left,1,2,1.2087755987304263,G24T03,2021_Oct_19_0957,t1_Paradigm,2021.1.4,59.94144669049767,
G,right,Target,0,6,6,6,1114.0744821697008,1116.0749858286,left,0,2,1.3886832013959065,G24T03,2021_Oct_19_0957,t1_Paradigm,2021.1.4,59.94144669049767,
Y,left,Pretarget,0,7,7,7,1117.5743777487078,1119.5751839237055,left,1,2,1.152626934053842,G24T03,2021_Oct_19_0957,t1_Paradigm,2021.1.4,59.94144669049767,
P,left,Distractor,0,8,8,8,1121.0744157637237,1123.0747728161514,left,1,2,0.7408934780396521,G24T03,2021_Oct_19_0957,t1_Paradigm,2021.1.4,59.94144669049767,
Y,right,Target,0,9,9,9,1124.5743610669742,1126.5748425905476,right,1,2,0.5848910669446923,G24T03,2021_Oct_19_0957,t1_Paradigm,2021.1.4,59.94144669049767,
X,left,Distractor,0,10,10,10,1128.074345828907,1130.0746900492813,left,1,2,0.6530906531843357,G24T03,2021_Oct_19_0957,t1_Paradigm,2021.1.4,59.94144669049767,
Y,right,Target,0,11,11,11,1131.5742340294528,1133.5745403952315,right,1,2,1.3932328132796101,G24T03,2021_Oct_19_0957,t1_Paradigm,2021.1.4,59.94144669049767,
N,left,Distractor,0,12,12,12,1135.074362831423,1137.0909017708036,left,1,2,0.8527246824232861,G24T03,2021_Oct_19_0957,t1_Paradigm,2021.1.4,59.94144669049767,
Y,right,Target,0,13,13,13,1138.5743447060813,1140.5749125253642,left,0,2,1.0491311242221855,G24T03,2021_Oct_19_0957,t1_Paradigm,2021.1.4,59.94144669049767,
Y,left,Lure,0,14,14,14,1142.0743872123421,1144.0743621898,left,1,2,1.2612882953253575,G24T03,2021_Oct_19_0957,t1_Paradigm,2021.1.4,59.94144669049767,
K,left,Distractor,0,15,15,15,1145.5744345306302,1147.5749009764986,left,1,2,0.8809854006394744,G24T03,2021_Oct_19_0957,t1_Paradigm,2021.1.4,59.94144669049767,
T,left,Pretarget,0,16,16,16,1149.0742434930871,1151.074755492853,left,1,2,0.5811011138721369,G24T03,2021_Oct_19_0957,t1_Paradigm,2021.1.4,59.94144669049767,
J,left,Distractor,0,17,17,17,1152.5742391622625,1154.5762441738625,left,1,2,0.7434711209498346,G24T03,2021_Oct_19_0957,t1_Paradigm,2021.1.4,59.94144669049767,
T,right,Target,0,18,18,18,1156.0741719543003,1158.0744808864547,right,1,2,0.8773481492535211,G24T03,2021_Oct_19_0957,t1_Paradigm,2021.1.4,59.94144669049767,
S,left,Pretarget,0,19,19,19,1159.5741640946362,1161.5744149616803,left,1,2,0.593245709547773,G24T03,2021_Oct_19_0957,t1_Paradigm,2021.1.4,59.94144669049767,
R,left,Distractor,0,20,20,20,1163.0742104505189,1165.0745351020014,left,1,2,0.549544477427844,G24T03,2021_Oct_19_0957,t1_Paradigm,2021.1.4,59.94144669049767,
S,right,Target,0,21,21,21,1166.5742234429927,1168.5744374178466,right,1,2,1.0496675049653277,G24T03,2021_Oct_19_0957,t1_Paradigm,2021.1.4,59.94144669049767,
Q,left,Distractor,0,22,22,22,1170.0741456485703,1172.076218349277,left,1,2,0.6835398816037923,G24T03,2021_Oct_19_0957,t1_Paradigm,2021.1.4,59.94144669049767,
D,left,Distractor,0,23,23,23,1173.5741551122046,1175.574551944097,left,1,2,0.7371542116743512,G24T03,2021_Oct_19_0957,t1_Paradigm,2021.1.4,59.94144669049767,
F,left,Distractor,0,24,24,24,1177.0744539391017,1179.075391642924,left,1,2,0.7403372076805681,G24T03,2021_Oct_19_0957,t1_Paradigm,2021.1.4,59.94144669049767,
Z,left,Distractor,0,25,25,25,1180.5744229817647,1182.575455322105,left,1,2,0.6002170544816181,G24T03,2021_Oct_19_0957,t1_Paradigm,2021.1.4,59.94144669049767,
P,left,Distractor,0,26,26,26,1184.0743981195847,1186.0760685348068,left,1,2,0.5715508427238092,G24T03,2021_Oct_19_0957,t1_Paradigm,2021.1.4,59.94144669049767,
H,left,Distractor,0,27,27,27,1187.5746581294807,1189.574578249827,left,1,2,0.4973493746947497,G24T03,2021_Oct_19_0957,t1_Paradigm,2021.1.4,59.94144669049767,
Z,left,Pretarget,0,28,28,28,1191.074289367767,1193.0748523750226,left,1,2,1.4130368739715777,G24T03,2021_Oct_19_0957,t1_Paradigm,2021.1.4,59.94144669049767,
J,left,Pretarget,0,29,29,29,1194.5742160645314,1196.574811152008,left,1,2,0.6493459331686608,G24T03,2021_Oct_19_0957,t1_Paradigm,2021.1.4,59.94144669049767,
Z,right,Target,0,30,30,30,1198.0744119141018,1200.0761339784367,right,1,2,0.843418862321414,G24T03,2021_Oct_19_0957,t1_Paradigm,2021.1.4,59.94144669049767,
J,right,Target,0,31,31,31,1201.5741669818526,1203.5743642750313,right,1,2,0.8815176109201275,G24T03,2021_Oct_19_0957,t1_Paradigm,2021.1.4,59.94144669049767,
V,left,Pretarget,0,32,32,32,1205.07454344281,1207.075180876127,left,1,2,0.6766089575830847,G24T03,2021_Oct_19_0957,t1_Paradigm,2021.1.4,59.94144669049767,
Z,left,Lure,0,33,33,33,1208.5743283451884,1210.5747081745649,left,1,2,0.8409121166332625,G24T03,2021_Oct_19_0957,t1_Paradigm,2021.1.4,59.94144669049767,
V,right,Target,0,34,34,34,1212.0743118238752,1214.0745222698897,left,0,2,1.0050811805413105,G24T03,2021_Oct_19_0957,t1_Paradigm,2021.1.4,59.94144669049767,
X,left,Distractor,0,35,35,35,1215.5742876033764,1217.5748005655478,left,1,2,0.6888895732699893,G24T03,2021_Oct_19_0957,t1_Paradigm,2021.1.4,59.94144669049767,
S,left,Distractor,0,36,36,36,1219.0744690168067,1221.0767528052093,left,1,2,0.7069298653514124,G24T03,2021_Oct_19_0957,t1_Paradigm,2021.1.4,59.94144669049767,
Q,left,Distractor,0,37,37,37,1222.5741602450144,1224.5746119340183,left,1,2,0.7292448420776054,G24T03,2021_Oct_19_0957,t1_Paradigm,2021.1.4,59.94144669049767,
P,left,Distractor,0,38,38,38,1226.0742688364699,1228.0747731369338,left,1,2,0.8130774232558906,G24T03,2021_Oct_19_0957,t1_Paradigm,2021.1.4,59.94144669049767,
S,left,Lure,0,39,39,39,1229.5742699592374,1231.5747970367083,left,1,2,1.0568268398055807,G24T03,2021_Oct_19_0957,t1_Paradigm,2021.1.4,59.94144669049767,
K,left,Pretarget,0,40,40,40,1233.0743695682613,1235.0748648862937,left,1,2,0.6447677699616179,G24T03,2021_Oct_19_0957,t1_Paradigm,2021.1.4,59.94144669049767,
L,left,Distractor,0,41,41,41,1236.5741246360121,1238.5765986599145,left,1,2,0.615042912075296,G24T03,2021_Oct_19_0957,t1_Paradigm,2021.1.4,59.94144669049767,
K,right,Target,0,42,42,42,1240.0742588915746,1242.074736565526,left,0,2,0.9408941838191822,G24T03,2021_Oct_19_0957,t1_Paradigm,2021.1.4,59.94144669049767,
B,left,Distractor,0,43,43,43,1243.5742863201303,1245.5747392923804,left,1,2,0.5608626874745823,G24T03,2021_Oct_19_0957,t1_Paradigm,2021.1.4,59.94144669049767,
N,left,Distractor,0,44,44,44,1247.0743881747476,1249.0747420191765,left,1,2,0.6130661310744472,G24T03,2021_Oct_19_0957,t1_Paradigm,2021.1.4,59.94144669049767,
S,left,Pretarget,0,45,45,45,1250.5743402148364,1252.5749587208265,left,1,2,0.7288544261828065,G24T03,2021_Oct_19_0957,t1_Paradigm,2021.1.4,59.94144669049767,
Z,left,Distractor,0,46,46,46,1254.0748369765352,1256.0747939890716,left,1,2,0.6688577432651073,G24T03,2021_Oct_19_0957,t1_Paradigm,2021.1.4,59.94144669049767,
S,right,Target,0,47,47,47,1257.5741878339904,1259.5748246256844,right,1,2,0.8970107362838462,G24T03,2021_Oct_19_0957,t1_Paradigm,2021.1.4,59.94144669049767,
C,left,Distractor,0,48,48,48,1261.0743127862806,1263.0747195630684,left,1,2,0.7408912325045094,G24T03,2021_Oct_19_0957,t1_Paradigm,2021.1.4,59.94144669049767,
T,left,Pretarget,0,49,49,49,1264.5741865508026,1266.574519863876,left,1,2,0.9050987925147638,G24T03,2021_Oct_19_0957,t1_Paradigm,2021.1.4,59.94144669049767,
S,left,Lure,0,50,50,50,1268.0741758039221,1270.0745973375742,left,1,2,1.0371639319928363,G24T03,2021_Oct_19_0957,t1_Paradigm,2021.1.4,59.94144669049767,
T,right,Target,0,51,51,51,1271.574819813657,1273.5761405548546,right,1,2,0.6394530456745997,G24T03,2021_Oct_19_0957,t1_Paradigm,2021.1.4,59.94144669049767,
N,left,Pretarget,0,52,52,52,1275.0749903197866,1277.0762186701177,left,1,2,0.5635516485781409,G24T03,2021_Oct_19_0957,t1_Paradigm,2021.1.4,59.94144669049767,
B,left,Distractor,0,53,53,53,1278.5743703702465,1280.5752955627977,left,1,2,0.5524185411632061,G24T03,2021_Oct_19_0957,t1_Paradigm,2021.1.4,59.94144669049767,
N,right,Target,0,54,54,54,1282.0743756634765,1284.075387151679,right,1,2,0.5242107552476227,G24T03,2021_Oct_19_0957,t1_Paradigm,2021.1.4,59.94144669049767,
N,left,Lure,0,55,55,55,1285.574357538193,1287.5746549214819,left,1,2,1.0250722686760128,G24T03,2021_Oct_19_0957,t1_Paradigm,2021.1.4,59.94144669049767,
X,left,Distractor,0,56,56,56,1289.0749325754587,1291.0758468607673,left,1,2,0.9482302805408835,G24T03,2021_Oct_19_0957,t1_Paradigm,2021.1.4,59.94144669049767,
W,left,Distractor,0,57,57,57,1292.5742057989119,1294.5762153016985,left,1,2,0.9355066375574097,G24T03,2021_Oct_19_0957,t1_Paradigm,2021.1.4,59.94144669049767,
S,left,Distractor,0,58,58,58,1296.0743862499367,1298.075473126606,left,1,2,0.6201250549638644,G24T03,2021_Oct_19_0957,t1_Paradigm,2021.1.4,59.94144669049767,
L,left,Distractor,0,59,59,59,1299.57443966344,1301.5753738384228,left,1,2,1.1042471277760342,G24T03,2021_Oct_19_0957,t1_Paradigm,2021.1.4,59.94144669049767,
K,left,Pretarget,0,60,60,60,1303.0742819893057,1305.0739653579076,left,1,2,0.5016975229955278,G24T03,2021_Oct_19_0957,t1_Paradigm,2021.1.4,59.94144669049767,
V,left,Pretarget,0,61,61,61,1306.5741307312855,1308.575970850652,left,1,2,0.5837252730270848,G24T03,2021_Oct_19_0957,t1_Paradigm,2021.1.4,59.94144669049767,
K,right,Target,0,62,62,62,1310.0740811673459,1312.0744321246166,right,1,2,0.5731186014018022,G24T03,2021_Oct_19_0957,t1_Paradigm,2021.1.4,59.94144669049767,
V,right,Target,0,63,63,63,1313.5741073127137,1315.5743809567066,right,1,2,0.6571911423816346,G24T03,2021_Oct_19_0957,t1_Paradigm,2021.1.4,59.94144669049767,
R,left,Distractor,0,0,0,0,1434.780438401387,1436.774490093463,None,0,3,,G24T03,2021_Oct_19_0957,t1_Paradigm,2021.1.4,59.94144669049767,
P,left,Lure,0,1,1,1,1438.2741848505102,1440.2746355771087,None,0,3,,G24T03,2021_Oct_19_0957,t1_Paradigm,2021.1.4,59.94144669049767,
V,left,Distractor,0,2,2,2,1441.7740101739182,1443.7744156674598,left,1,3,1.225136813998688,G24T03,2021_Oct_19_0957,t1_Paradigm,2021.1.4,59.94144669049767,
P,left,Pretarget,0,3,3,3,1445.273979858146,1447.2746910758433,right,0,3,0.7009029609616846,G24T03,2021_Oct_19_0957,t1_Paradigm,2021.1.4,59.94144669049767,
Z,left,Distractor,0,4,4,4,1448.7740416125162,1450.7744621837046,left,1,3,0.5931375992950052,G24T03,2021_Oct_19_0957,t1_Paradigm,2021.1.4,59.94144669049767,
L,left,Pretarget,0,5,5,5,1452.2741909457836,1454.2764763381565,left,1,3,0.9311325043090619,G24T03,2021_Oct_19_0957,t1_Paradigm,2021.1.4,59.94144669049767,
P,right,Target,0,6,6,6,1455.7742607201799,1457.7753569000633,left,0,3,1.3682664092048071,G24T03,2021_Oct_19_0957,t1_Paradigm,2021.1.4,59.94144669049767,
S,left,Distractor,0,7,7,7,1459.2748729704763,1461.2765100223478,None,0,3,,G24T03,2021_Oct_19_0957,t1_Paradigm,2021.1.4,59.94144669049767,
L,right,Target,0,8,8,8,1462.7742607201799,1464.7752709251945,left,0,3,1.13631640560925,G24T03,2021_Oct_19_0957,t1_Paradigm,2021.1.4,59.94144669049767,
D,left,Distractor,0,9,9,9,1466.2745954769198,1468.2742977727903,left,1,3,1.2373186225886457,G24T03,2021_Oct_19_0957,t1_Paradigm,2021.1.4,59.94144669049767,
G,left,Distractor,0,10,10,10,1469.7740570110036,1471.77598887973,left,1,3,1.1117359261843376,G24T03,2021_Oct_19_0957,t1_Paradigm,2021.1.4,59.94144669049767,
M,left,Pretarget,0,11,11,11,1473.273983707768,1475.2735573620885,left,1,3,1.278191024030093,G24T03,2021_Oct_19_0957,t1_Paradigm,2021.1.4,59.94144669049767,
Y,left,Distractor,0,12,12,12,1476.774201051041,1478.7751679478097,left,1,3,1.1363824908039533,G24T03,2021_Oct_19_0957,t1_Paradigm,2021.1.4,59.94144669049767,
V,left,Distractor,0,13,13,13,1480.2743234369555,1482.2751312159817,left,1,3,1.364580395980738,G24T03,2021_Oct_19_0957,t1_Paradigm,2021.1.4,59.94144669049767,
M,right,Target,0,14,14,14,1483.7742013718234,1485.7761409397935,right,1,3,1.335445813543629,G24T03,2021_Oct_19_0957,t1_Paradigm,2021.1.4,59.94144669049767,
S,left,Pretarget,0,15,15,15,1487.27397183812,1489.275964659173,left,1,3,0.7797419405542314,G24T03,2021_Oct_19_0957,t1_Paradigm,2021.1.4,59.94144669049767,
Q,left,Distractor,0,16,16,16,1490.7740775423008,1492.7742603993393,left,1,3,0.6572222601971589,G24T03,2021_Oct_19_0957,t1_Paradigm,2021.1.4,59.94144669049767,
R,left,Pretarget,0,17,17,17,1494.2738986953045,1496.2742971311673,left,1,3,1.1571861699339934,G24T03,2021_Oct_19_0957,t1_Paradigm,2021.1.4,59.94144669049767,
S,right,Target,0,18,18,18,1497.7741599883884,1499.7743550359155,right,1,3,1.241325116949156,G24T03,2021_Oct_19_0957,t1_Paradigm,2021.1.4,59.94144669049767,
F,left,Distractor,0,19,19,19,1501.2743863140931,1503.2743725196342,left,1,3,0.7973850799608044,G24T03,2021_Oct_19_0957,t1_Paradigm,2021.1.4,59.94144669049767,
R,right,Target,0,20,20,20,1504.7746145646088,1506.774608790176,None,0,3,,G24T03,2021_Oct_19_0957,t1_Paradigm,2021.1.4,59.94144669049767,
P,left,Distractor,0,21,21,21,1508.2741546951584,1510.274348138657,left,1,3,1.2692262163036503,G24T03,2021_Oct_19_0957,t1_Paradigm,2021.1.4,59.94144669049767,
L,left,Distractor,0,22,22,22,1511.7741744244704,1513.7743524694815,left,1,3,0.9372046417556703,G24T03,2021_Oct_19_0957,t1_Paradigm,2021.1.4,59.94144669049767,
R,right,Target,0,23,23,23,1515.2742230259464,1517.275935787009,left,0,3,1.3715591194923036,G24T03,2021_Oct_19_0957,t1_Paradigm,2021.1.4,59.94144669049767,
H,left,Pretarget,0,24,24,24,1518.7742620033678,1520.776355877053,left,1,3,1.119295300974045,G24T03,2021_Oct_19_0957,t1_Paradigm,2021.1.4,59.94144669049767,
G,left,Pretarget,0,25,25,25,1522.2743497426854,1524.2745938728913,left,1,3,0.7568918663309887,G24T03,2021_Oct_19_0957,t1_Paradigm,2021.1.4,59.94144669049767,
T,left,Distractor,0,26,26,26,1525.774004078703,1527.7746828953968,left,1,3,0.8887921136338264,G24T03,2021_Oct_19_0957,t1_Paradigm,2021.1.4,59.94144669049767,
H,right,Target,0,27,27,27,1529.2739958982565,1531.2747308552498,right,1,3,1.2447647543740459,G24T03,2021_Oct_19_0957,t1_Paradigm,2021.1.4,59.94144669049767,
G,right,Target,0,28,28,28,1532.7741237377631,1534.7744987551123,None,0,3,,G24T03,2021_Oct_19_0957,t1_Paradigm,2021.1.4,59.94144669049767,
D,left,Distractor,0,29,29,29,1536.274121010967,1538.2752592159086,left,1,3,0.6124059208086692,G24T03,2021_Oct_19_0957,t1_Paradigm,2021.1.4,59.94144669049767,
N,left,Pretarget,0,30,30,30,1539.7738382241223,1541.7750011308235,left,1,3,1.0806961014750414,G24T03,2021_Oct_19_0957,t1_Paradigm,2021.1.4,59.94144669049767,
V,left,Distractor,0,31,31,31,1543.2740956676425,1545.2746647701133,left,1,3,0.7328115170821548,G24T03,2021_Oct_19_0957,t1_Paradigm,2021.1.4,59.94144669049767,
R,left,Distractor,0,32,32,32,1546.77418853977,1548.7747274868307,left,1,3,0.7688269783975556,G24T03,2021_Oct_19_0957,t1_Paradigm,2021.1.4,59.94144669049767,
N,right,Target,0,33,33,33,1550.2740687202313,1552.2748017524718,right,1,3,1.0926879954640754,G24T03,2021_Oct_19_0957,t1_Paradigm,2021.1.4,59.94144669049767,
Z,left,Distractor,0,34,34,34,1553.7739177829935,1555.7758637670195,left,1,3,1.1916040381183848,G24T03,2021_Oct_19_0957,t1_Paradigm,2021.1.4,59.94144669049767,
N,left,Lure,0,35,35,35,1557.2747119279811,1559.2763916464755,left,1,3,1.3071132356417365,G24T03,2021_Oct_19_0957,t1_Paradigm,2021.1.4,59.94144669049767,
Y,left,Pretarget,0,36,36,36,1560.7742186951218,1562.7737660437124,left,1,3,1.0896528891753405,G24T03,2021_Oct_19_0957,t1_Paradigm,2021.1.4,59.94144669049767,
Y,left,Lure,0,37,37,37,1564.2738695023,1566.2739513067645,left,1,3,1.0454284292645752,G24T03,2021_Oct_19_0957,t1_Paradigm,2021.1.4,59.94144669049767,
B,left,Distractor,0,38,38,38,1567.7738860236132,1569.7739347855095,left,1,3,1.049797108862549,G24T03,2021_Oct_19_0957,t1_Paradigm,2021.1.4,59.94144669049767,
Y,right,Target,0,39,39,39,1571.2743471762515,1573.274363857985,right,1,3,1.1011818660772406,G24T03,2021_Oct_19_0957,t1_Paradigm,2021.1.4,59.94144669049767,
J,left,Distractor,0,40,40,40,1574.7739803393488,1576.7743556775386,left,1,3,0.6251135237980634,G24T03,2021_Oct_19_0957,t1_Paradigm,2021.1.4,59.94144669049767,
X,left,Distractor,0,41,41,41,1578.2741081789136,1580.2742900735466,left,1,3,0.7091302452608943,G24T03,2021_Oct_19_0957,t1_Paradigm,2021.1.4,59.94144669049767,
W,left,Pretarget,0,42,42,42,1581.7739511464024,1583.7745183240622,left,1,3,0.8569634372834116,G24T03,2021_Oct_19_0957,t1_Paradigm,2021.1.4,59.94144669049767,
S,left,Pretarget,0,43,43,43,1585.2741335222381,1587.274373161199,left,1,3,1.1973556944867596,G24T03,2021_Oct_19_0957,t1_Paradigm,2021.1.4,59.94144669049767,
R,left,Distractor,0,44,44,44,1588.7747088803444,1590.7759670651867,left,1,3,1.1995230318279937,G24T03,2021_Oct_19_0957,t1_Paradigm,2021.1.4,59.94144669049767,
W,right,Target,0,45,45,45,1592.2738114371896,1594.2742701838142,left,0,3,0.9653104126336984,G24T03,2021_Oct_19_0957,t1_Paradigm,2021.1.4,59.94144669049767,
S,right,Target,0,46,46,46,1595.7738491313648,1597.7742190159042,None,0,3,,G24T03,2021_Oct_19_0957,t1_Paradigm,2021.1.4,59.94144669049767,
D,left,Distractor,0,47,47,47,1599.2738909960608,1601.2742044194601,left,1,3,0.9412271761102602,G24T03,2021_Oct_19_0957,t1_Paradigm,2021.1.4,59.94144669049767,
T,left,Distractor,0,48,48,48,1602.7740759382723,1604.7757694512838,left,1,3,0.7196673028520308,G24T03,2021_Oct_19_0957,t1_Paradigm,2021.1.4,59.94144669049767,
S,right,Target,0,49,49,49,1606.2739561187918,1608.2743234369555,left,0,3,0.7731388760730624,G24T03,2021_Oct_19_0957,t1_Paradigm,2021.1.4,59.94144669049767,
K,left,Distractor,0,50,50,50,1609.7742953667766,1611.7757963986369,left,1,3,0.5837958494084887,G24T03,2021_Oct_19_0957,t1_Paradigm,2021.1.4,59.94144669049767,
S,left,Lure,0,51,51,51,1613.2742644093814,1615.275145972846,right,0,3,1.0363879123469815,G24T03,2021_Oct_19_0957,t1_Paradigm,2021.1.4,59.94144669049767,
T,left,Pretarget,0,52,52,52,1616.7739546751836,1618.7736630663276,right,0,3,1.009865298459772,G24T03,2021_Oct_19_0957,t1_Paradigm,2021.1.4,59.94144669049767,
V,left,Distractor,0,53,53,53,1620.2746631660848,1622.2759624135797,left,1,3,0.7234688047901727,G24T03,2021_Oct_19_0957,t1_Paradigm,2021.1.4,59.94144669049767,
B,left,Distractor,0,54,54,54,1623.774201051041,1625.7749539729557,left,1,3,0.8884889559121802,G24T03,2021_Oct_19_0957,t1_Paradigm,2021.1.4,59.94144669049767,
T,right,Target,0,55,55,55,1627.2740196375526,1629.2750439578667,None,0,3,,G24T03,2021_Oct_19_0957,t1_Paradigm,2021.1.4,59.94144669049767,
Y,left,Pretarget,0,56,56,56,1630.7740287804045,1632.7747476974037,left,1,3,0.849229225423187,G24T03,2021_Oct_19_0957,t1_Paradigm,2021.1.4,59.94144669049767,
T,left,Lure,0,57,57,57,1634.2740581337712,1636.2751902435557,right,0,3,1.1882763605099171,G24T03,2021_Oct_19_0957,t1_Paradigm,2021.1.4,59.94144669049767,
P,left,Pretarget,0,58,58,58,1637.7746280382853,1639.7762965286965,left,1,3,0.9510639233049005,G24T03,2021_Oct_19_0957,t1_Paradigm,2021.1.4,59.94144669049767,
Y,right,Target,0,59,59,59,1641.2737373319687,1643.2740902139922,left,0,3,0.909422559896484,G24T03,2021_Oct_19_0957,t1_Paradigm,2021.1.4,59.94144669049767,
R,left,Distractor,0,60,60,60,1644.7746674969094,1646.7744336323813,left,1,3,0.6089983636047691,G24T03,2021_Oct_19_0957,t1_Paradigm,2021.1.4,59.94144669049767,
P,right,Target,0,61,61,61,1648.2739256426576,1650.2745249004802,left,0,3,0.788898267026525,G24T03,2021_Oct_19_0957,t1_Paradigm,2021.1.4,59.94144669049767,
L,left,Distractor,0,62,62,62,1651.7739197078045,1653.7742998580215,left,1,3,0.9372655940824188,G24T03,2021_Oct_19_0957,t1_Paradigm,2021.1.4,59.94144669049767,
V,left,Distractor,0,63,63,63,1655.2743811812834,1657.2743009807891,left,1,3,0.8293764028931037,G24T03,2021_Oct_19_0957,t1_Paradigm,2021.1.4,59.94144669049767,
H,left,Lure,0,0,0,0,1694.9970630590688,1696.9929128455115,None,0,3,,G24T03,2021_Oct_19_0957,t1_Paradigm,2021.1.4,59.94144669049767,
B,left,Distractor,0,1,1,1,1698.490484535927,1700.4907979593263,None,0,3,,G24T03,2021_Oct_19_0957,t1_Paradigm,2021.1.4,59.94144669049767,
T,left,Distractor,0,2,2,2,1701.990596976946,1703.9899563356885,None,0,3,,G24T03,2021_Oct_19_0957,t1_Paradigm,2021.1.4,59.94144669049767,
R,left,Distractor,0,3,3,3,1705.49073347816,1707.492652514833,left,1,3,0.7388839753111824,G24T03,2021_Oct_19_0957,t1_Paradigm,2021.1.4,59.94144669049767,
H,left,Pretarget,0,4,4,4,1708.9906826310325,1710.9918538786005,left,1,3,1.0320827514515258,G24T03,2021_Oct_19_0957,t1_Paradigm,2021.1.4,59.94144669049767,
K,left,Distractor,0,5,5,5,1712.4907556134858,1714.4915502396761,left,1,3,0.8278708797879517,G24T03,2021_Oct_19_0957,t1_Paradigm,2021.1.4,59.94144669049767,
G,left,Distractor,0,6,6,6,1715.9906418892206,1717.9914422898437,None,0,3,,G24T03,2021_Oct_19_0957,t1_Paradigm,2021.1.4,59.94144669049767,
H,right,Target,0,7,7,7,1719.4907408566214,1721.491281728493,right,1,3,1.0602841213694774,G24T03,2021_Oct_19_0957,t1_Paradigm,2021.1.4,59.94144669049767,
Y,left,Pretarget,0,8,8,8,1722.9906919343048,1724.9909492174047,left,1,3,0.8084604430478066,G24T03,2021_Oct_19_0957,t1_Paradigm,2021.1.4,59.94144669049767,
S,left,Distractor,0,9,9,9,1726.4908002049197,1728.491044014343,left,1,3,0.6524801672203466,G24T03,2021_Oct_19_0957,t1_Paradigm,2021.1.4,59.94144669049767,
P,left,Distractor,0,10,10,10,1729.9905514231068,1731.9908985306975,left,1,3,0.7044808639911935,G24T03,2021_Oct_19_0957,t1_Paradigm,2021.1.4,59.94144669049767,
Y,right,Target,0,11,11,11,1733.490651352855,1735.4911165155354,None,0,3,,G24T03,2021_Oct_19_0957,t1_Paradigm,2021.1.4,59.94144669049767,
H,left,Lure,0,12,12,12,1736.9904718642356,1738.992487141455,left,1,3,0.8708682726719417,G24T03,2021_Oct_19_0957,t1_Paradigm,2021.1.4,59.94144669049767,
Q,left,Distractor,0,13,13,13,1740.4904229419772,1742.4929960935842,left,1,3,0.6344488576287404,G24T03,2021_Oct_19_0957,t1_Paradigm,2021.1.4,59.94144669049767,
V,left,Pretarget,0,14,14,14,1743.9904535785317,1745.9907843252295,left,1,3,0.6405906090512872,G24T03,2021_Oct_19_0957,t1_Paradigm,2021.1.4,59.94144669049767,
G,left,Distractor,0,15,15,15,1747.4904203755432,1749.4908008465427,left,1,3,0.6607366444659419,G24T03,2021_Oct_19_0957,t1_Paradigm,2021.1.4,59.94144669049767,
Z,left,Pretarget,0,16,16,16,1750.9904561449657,1752.9909354229458,left,1,3,0.648604239220731,G24T03,2021_Oct_19_0957,t1_Paradigm,2021.1.4,59.94144669049767,
V,right,Target,0,17,17,17,1754.4908746309811,1756.490875914169,left,0,3,1.0365682029514574,G24T03,2021_Oct_19_0957,t1_Paradigm,2021.1.4,59.94144669049767,
N,left,Distractor,0,18,18,18,1757.9905754832434,1759.9911619090126,left,1,3,0.6402053260244429,G24T03,2021_Oct_19_0957,t1_Paradigm,2021.1.4,59.94144669049767,
Z,right,Target,0,19,19,19,1761.490650069667,1763.4910783401574,left,0,3,0.9804958890890703,G24T03,2021_Oct_19_0957,t1_Paradigm,2021.1.4,59.94144669049767,
R,left,Distractor,0,20,20,20,1764.9905533479177,1766.9909219492693,left,1,3,0.6327794047538191,G24T03,2021_Oct_19_0957,t1_Paradigm,2021.1.4,59.94144669049767,
P,left,Distractor,0,21,21,21,1768.4906731673982,1770.490761708701,left,1,3,0.7171037752414122,G24T03,2021_Oct_19_0957,t1_Paradigm,2021.1.4,59.94144669049767,
Z,right,Target,0,22,22,22,1771.9911583802314,1773.9922131766798,right,1,3,1.0552799332654104,G24T03,2021_Oct_19_0957,t1_Paradigm,2021.1.4,59.94144669049767,
D,left,Pretarget,0,23,23,23,1775.4904752326547,1777.4914106908836,left,1,3,0.6122602768009529,G24T03,2021_Oct_19_0957,t1_Paradigm,2021.1.4,59.94144669049767,
K,left,Distractor,0,24,24,24,1778.990661778953,1780.9914294577902,left,1,3,0.5839758192305453,G24T03,2021_Oct_19_0957,t1_Paradigm,2021.1.4,59.94144669049767,
W,left,Distractor,0,25,25,25,1782.4903754632687,1784.490835172357,left,1,3,0.7486212738440372,G24T03,2021_Oct_19_0957,t1_Paradigm,2021.1.4,59.94144669049767,
D,right,Target,0,26,26,26,1785.9905847865157,1787.991982840991,right,1,3,1.1194707796094008,G24T03,2021_Oct_19_0957,t1_Paradigm,2021.1.4,59.94144669049767,
G,left,Pretarget,0,27,27,27,1789.4905695483903,1791.490691453102,left,1,3,0.8847442358965054,G24T03,2021_Oct_19_0957,t1_Paradigm,2021.1.4,59.94144669049767,
V,left,Distractor,0,28,28,28,1792.9905828617048,1794.9907339593628,left,1,3,0.7285323411342688,G24T03,2021_Oct_19_0957,t1_Paradigm,2021.1.4,59.94144669049767,
D,right,Target,0,29,29,29,1796.4904364156537,1798.490778711217,None,0,3,,G24T03,2021_Oct_19_0957,t1_Paradigm,2021.1.4,59.94144669049767,
G,right,Target,0,30,30,30,1799.9903897389886,1801.9917066305643,left,0,3,0.9756614052457735,G24T03,2021_Oct_19_0957,t1_Paradigm,2021.1.4,59.94144669049767,
B,left,Pretarget,0,31,31,31,1803.4906436536112,1805.4923782292171,left,1,3,0.979185092728585,G24T03,2021_Oct_19_0957,t1_Paradigm,2021.1.4,59.94144669049767,
N,left,Distractor,0,32,32,32,1806.990767001931,1808.9926395223592,left,1,3,0.6789081444730982,G24T03,2021_Oct_19_0957,t1_Paradigm,2021.1.4,59.94144669049767,
F,left,Distractor,0,33,33,33,1810.4906750922091,1812.4912095480831,left,1,3,0.6522434154176153,G24T03,2021_Oct_19_0957,t1_Paradigm,2021.1.4,59.94144669049767,
B,right,Target,0,34,34,34,1813.9906210370827,1815.9910566860344,right,1,3,1.1523747838218696,G24T03,2021_Oct_19_0957,t1_Paradigm,2021.1.4,59.94144669049767,
Q,left,Pretarget,0,35,35,35,1817.4906199143152,1819.4912223801948,left,1,3,0.7401206663926132,G24T03,2021_Oct_19_0957,t1_Paradigm,2021.1.4,59.94144669049767,
S,left,Pretarget,0,36,36,36,1821.0075978710665,1822.9925974973012,left,1,3,1.2387484365026467,G24T03,2021_Oct_19_0957,t1_Paradigm,2021.1.4,59.94144669049767,
W,left,Distractor,0,37,37,37,1824.4905579995248,1826.4927702490822,left,1,3,0.762813547742553,G24T03,2021_Oct_19_0957,t1_Paradigm,2021.1.4,59.94144669049767,
Q,right,Target,0,38,38,38,1827.9906707613845,1829.9916241844767,right,1,3,0.8959164811531082,G24T03,2021_Oct_19_0957,t1_Paradigm,2021.1.4,59.94144669049767,
S,right,Target,0,39,39,39,1831.4905413178494,1833.4910424103145,right,1,3,0.9484516338561662,G24T03,2021_Oct_19_0957,t1_Paradigm,2021.1.4,59.94144669049767,
T,left,Distractor,0,40,40,40,1834.990727543307,1836.9911320744432,left,1,3,0.5523043357534334,G24T03,2021_Oct_19_0957,t1_Paradigm,2021.1.4,59.94144669049767,
G,left,Distractor,0,41,41,41,1838.4910975882667,1840.492374700436,left,1,3,1.0668801282299682,G24T03,2021_Oct_19_0957,t1_Paradigm,2021.1.4,59.94144669049767,
D,left,Distractor,0,42,42,42,1841.990265909466,1843.9921817380819,left,1,3,0.9431551952729933,G24T03,2021_Oct_19_0957,t1_Paradigm,2021.1.4,59.94144669049767,
S,left,Lure,0,43,43,43,1845.490723533323,1847.491468755994,None,0,3,,G24T03,2021_Oct_19_0957,t1_Paradigm,2021.1.4,59.94144669049767,
Z,left,Pretarget,0,44,44,44,1848.9906505508698,1850.991038721113,left,1,3,0.9204331209766679,G24T03,2021_Oct_19_0957,t1_Paradigm,2021.1.4,59.94144669049767,
J,left,Distractor,0,45,45,45,1852.490598099772,1854.4924497680622,left,1,3,1.3228998947306536,G24T03,2021_Oct_19_0957,t1_Paradigm,2021.1.4,59.94144669049767,
M,left,Pretarget,0,46,46,46,1855.9903890973656,1857.9907211273094,left,1,3,1.152676979196258,G24T03,2021_Oct_19_0957,t1_Paradigm,2021.1.4,59.94144669049767,
Z,right,Target,0,47,47,47,1859.4903886161628,1861.5036168804509,right,1,3,0.48779012117302045,G24T03,2021_Oct_19_0957,t1_Paradigm,2021.1.4,59.94144669049767,
P,left,Distractor,0,48,48,48,1862.99036182923,1864.9905026612105,left,1,3,0.7611335084075108,G24T03,2021_Oct_19_0957,t1_Paradigm,2021.1.4,59.94144669049767,
M,right,Target,0,49,49,49,1866.490395353001,1868.490727382945,right,1,3,0.4445508436765522,G24T03,2021_Oct_19_0957,t1_Paradigm,2021.1.4,59.94144669049767,
K,left,Distractor,0,50,50,50,1869.9902976688463,1871.9926690361463,left,1,3,0.5906937308027409,G24T03,2021_Oct_19_0957,t1_Paradigm,2021.1.4,59.94144669049767,
Y,left,Distractor,0,51,51,51,1873.4906696385588,1875.4916686155484,left,1,3,0.6757556247175671,G24T03,2021_Oct_19_0957,t1_Paradigm,2021.1.4,59.94144669049767,
X,left,Distractor,0,52,52,52,1876.9907637939323,1878.9923001140123,left,1,3,0.8550065459567122,G24T03,2021_Oct_19_0957,t1_Paradigm,2021.1.4,59.94144669049767,
F,left,Pretarget,0,53,53,53,1880.4906882451032,1882.4925819383934,left,1,3,1.2266413746401668,G24T03,2021_Oct_19_0957,t1_Paradigm,2021.1.4,59.94144669049767,
M,left,Lure,0,54,54,54,1883.9906223203288,1885.991007282515,left,1,3,1.1523799166898243,G24T03,2021_Oct_19_0957,t1_Paradigm,2021.1.4,59.94144669049767,
V,left,Distractor,0,55,55,55,1887.4904678541934,1889.492324334511,left,1,3,1.0910624925163575,G24T03,2021_Oct_19_0957,t1_Paradigm,2021.1.4,59.94144669049767,
F,right,Target,0,56,56,56,1890.9904404256376,1892.9907727763639,left,0,3,1.2565840570023283,G24T03,2021_Oct_19_0957,t1_Paradigm,2021.1.4,59.94144669049767,
S,left,Distractor,0,57,57,57,1894.4904213379486,1896.4906718842103,left,1,3,1.2289620552328415,G24T03,2021_Oct_19_0957,t1_Paradigm,2021.1.4,59.94144669049767,
D,left,Distractor,0,58,58,58,1897.9904022502596,1899.9906765358173,left,1,3,1.0086327777826227,G24T03,2021_Oct_19_0957,t1_Paradigm,2021.1.4,59.94144669049767,
F,right,Target,0,59,59,59,1901.4904582301388,1903.4915034025908,right,1,3,0.8518989384174347,G24T03,2021_Oct_19_0957,t1_Paradigm,2021.1.4,59.94144669049767,
V,left,Pretarget,0,60,60,60,1904.9912353726686,1906.9919741792837,left,1,3,0.8393087490112521,G24T03,2021_Oct_19_0957,t1_Paradigm,2021.1.4,59.94144669049767,
J,left,Distractor,0,61,61,61,1908.490633708774,1910.48983138334,left,1,3,0.7976872753351927,G24T03,2021_Oct_19_0957,t1_Paradigm,2021.1.4,59.94144669049767,
V,left,Lure,0,62,62,62,1911.9906120546511,1913.991502921388,None,0,3,,G24T03,2021_Oct_19_0957,t1_Paradigm,2021.1.4,59.94144669049767,
V,right,Target,0,63,63,63,1915.490487102361,1917.490510841657,left,0,3,0.9332642325898632,G24T03,2021_Oct_19_0957,t1_Paradigm,2021.1.4,59.94144669049767,
R,left,Distractor,0,0,0,0,2053.3970176335424,2055.3921356709907,None,0,4,,G24T03,2021_Oct_19_0957,t1_Paradigm,2021.1.4,59.94144669049767,
F,left,Distractor,0,1,1,1,2056.8911022078246,2058.8915433103684,None,0,4,,G24T03,2021_Oct_19_0957,t1_Paradigm,2021.1.4,59.94144669049767,
P,left,Pretarget,0,2,2,2,2060.39039660414,2062.3908495763317,None,0,4,,G24T03,2021_Oct_19_0957,t1_Paradigm,2021.1.4,59.94144669049767,
H,left,Distractor,0,3,3,3,2063.8904837018345,2065.890805786883,None,0,4,,G24T03,2021_Oct_19_0957,t1_Paradigm,2021.1.4,59.94144669049767,
Z,left,Distractor,0,4,4,4,2067.3903003635933,2069.3910622679978,left,1,4,1.0963611766928807,G24T03,2021_Oct_19_0957,t1_Paradigm,2021.1.4,59.94144669049767,
T,left,Distractor,0,5,5,5,2070.890338378609,2072.892739259638,left,1,4,1.1144101304234937,G24T03,2021_Oct_19_0957,t1_Paradigm,2021.1.4,59.94144669049767,
P,right,Target,0,6,6,6,2074.3904062281945,2076.3909756514477,right,1,4,1.008254231652245,G24T03,2021_Oct_19_0957,t1_Paradigm,2021.1.4,59.94144669049767,
G,left,Distractor,0,7,7,7,2077.890356664313,2079.8905600526487,left,1,4,0.9968150792410597,G24T03,2021_Oct_19_0957,t1_Paradigm,2021.1.4,59.94144669049767,
L,left,Distractor,0,8,8,8,2081.390326348541,2083.390626619046,left,1,4,1.0329896582989022,G24T03,2021_Oct_19_0957,t1_Paradigm,2021.1.4,59.94144669049767,
P,left,Lure,0,9,9,9,2084.8903220177162,2086.890472152969,left,1,4,0.9087565751979128,G24T03,2021_Oct_19_0957,t1_Paradigm,2021.1.4,59.94144669049767,
Q,left,Pretarget,0,10,10,10,2088.391076383239,2090.392740703246,left,1,4,0.9904972076183185,G24T03,2021_Oct_19_0957,t1_Paradigm,2021.1.4,59.94144669049767,
D,left,Distractor,0,11,11,11,2091.890373025206,2093.8910207241424,left,1,4,0.6441585671855137,G24T03,2021_Oct_19_0957,t1_Paradigm,2021.1.4,59.94144669049767,
M,left,Pretarget,0,12,12,12,2095.3904456868186,2097.390877806931,left,1,4,0.6003517913050018,G24T03,2021_Oct_19_0957,t1_Paradigm,2021.1.4,59.94144669049767,
C,left,Distractor,0,13,13,13,2098.8903630803106,2100.8905626190826,left,1,4,0.6687493122881278,G24T03,2021_Oct_19_0957,t1_Paradigm,2021.1.4,59.94144669049767,
Q,right,Target,0,14,14,14,2102.390284323483,2104.3925735654775,left,0,4,1.1027133741299622,G24T03,2021_Oct_19_0957,t1_Paradigm,2021.1.4,59.94144669049767,
R,left,Distractor,0,15,15,15,2105.891018478491,2107.892170157167,left,1,4,1.0751362846349366,G24T03,2021_Oct_19_0957,t1_Paradigm,2021.1.4,59.94144669049767,
M,right,Target,0,16,16,16,2109.39026796259,2111.3905422481475,right,1,4,1.0166778466664255,G24T03,2021_Oct_19_0957,t1_Paradigm,2021.1.4,59.94144669049767,
S,left,Distractor,0,17,17,17,2112.8902472708724,2114.891818237549,left,1,4,0.8433729876996949,G24T03,2021_Oct_19_0957,t1_Paradigm,2021.1.4,59.94144669049767,
Z,left,Distractor,0,18,18,18,2116.3905749699334,2118.3911148794577,left,1,4,1.2161052794544958,G24T03,2021_Oct_19_0957,t1_Paradigm,2021.1.4,59.94144669049767,
L,left,Pretarget,0,19,19,19,2119.89050583716,2121.8918856059317,right,0,4,1.1713405892369337,G24T03,2021_Oct_19_0957,t1_Paradigm,2021.1.4,59.94144669049767,
M,right,Target,0,20,20,20,2123.390425797086,2125.392557525425,None,0,4,,G24T03,2021_Oct_19_0957,t1_Paradigm,2021.1.4,59.94144669049767,
P,left,Distractor,0,21,21,21,2126.8904849850223,2128.892615750956,left,1,4,1.0986016567912884,G24T03,2021_Oct_19_0957,t1_Paradigm,2021.1.4,59.94144669049767,
F,left,Distractor,0,22,22,22,2130.3904832206317,2132.391146638838,left,1,4,0.896245623822324,G24T03,2021_Oct_19_0957,t1_Paradigm,2021.1.4,59.94144669049767,
L,right,Target,0,23,23,23,2133.8904298071284,2135.892107600812,None,0,4,,G24T03,2021_Oct_19_0957,t1_Paradigm,2021.1.4,59.94144669049767,
L,left,Lure,0,24,24,24,2137.3906532456167,2139.3906169949914,right,0,4,1.128723346570041,G24T03,2021_Oct_19_0957,t1_Paradigm,2021.1.4,59.94144669049767,
V,left,Pretarget,0,25,25,25,2140.890977095056,2142.903388597886,left,1,4,0.6238556596799754,G24T03,2021_Oct_19_0957,t1_Paradigm,2021.1.4,59.94144669049767,
Z,left,Distractor,0,26,26,26,2144.390304213215,2146.391348744044,left,1,4,0.7360262723523192,G24T03,2021_Oct_19_0957,t1_Paradigm,2021.1.4,59.94144669049767,
H,left,Distractor,0,27,27,27,2147.8901680328418,2149.890565506299,left,1,4,0.9967855655122548,G24T03,2021_Oct_19_0957,t1_Paradigm,2021.1.4,59.94144669049767,
X,left,Distractor,0,28,28,28,2151.3902275415603,2153.3905034311465,left,1,4,0.7128589251660742,G24T03,2021_Oct_19_0957,t1_Paradigm,2021.1.4,59.94144669049767,
V,right,Target,0,29,29,29,2154.8901292157825,2156.8901831104886,right,1,4,0.8930629487149417,G24T03,2021_Oct_19_0957,t1_Paradigm,2021.1.4,59.94144669049767,
C,left,Distractor,0,30,30,30,2158.3898862084025,2160.3905499473913,left,1,4,1.2166477554128505,G24T03,2021_Oct_19_0957,t1_Paradigm,2021.1.4,59.94144669049767,
S,left,Pretarget,0,31,31,31,2161.890555561462,2163.8923097059596,left,1,4,1.2029270602506585,G24T03,2021_Oct_19_0957,t1_Paradigm,2021.1.4,59.94144669049767,
D,left,Distractor,0,32,32,32,2165.390542568988,2167.3914966337034,left,1,4,0.967778341320809,G24T03,2021_Oct_19_0957,t1_Paradigm,2021.1.4,59.94144669049767,
V,left,Distractor,0,33,33,33,2168.890453225642,2170.8895703789894,left,1,4,1.2936918486375362,G24T03,2021_Oct_19_0957,t1_Paradigm,2021.1.4,59.94144669049767,
R,left,Distractor,0,34,34,34,2172.3910378870205,2174.3926884125685,left,1,4,0.766554738918785,G24T03,2021_Oct_19_0957,t1_Paradigm,2021.1.4,59.94144669049767,
S,right,Target,0,35,35,35,2175.8903794412035,2177.890821506211,right,1,4,0.9805494630127214,G24T03,2021_Oct_19_0957,t1_Paradigm,2021.1.4,59.94144669049767,
Y,left,Distractor,0,36,36,36,2179.3903071004315,2181.3907350500813,left,1,4,0.7607389221666381,G24T03,2021_Oct_19_0957,t1_Paradigm,2021.1.4,59.94144669049767,
N,left,Pretarget,0,37,37,37,2182.8904073510203,2184.8908715512953,left,1,4,0.7003232720308006,G24T03,2021_Oct_19_0957,t1_Paradigm,2021.1.4,59.94144669049767,
Z,left,Pretarget,0,38,38,38,2186.3903170452686,2188.3920410344144,left,1,4,0.8633445068844594,G24T03,2021_Oct_19_0957,t1_Paradigm,2021.1.4,59.94144669049767,
P,left,Pretarget,0,39,39,39,2189.8903162432835,2191.8914121023845,left,1,4,0.8037680743727833,G24T03,2021_Oct_19_0957,t1_Paradigm,2021.1.4,59.94144669049767,
M,left,Distractor,0,40,40,40,2193.390478729387,2195.391439210158,left,1,4,0.7917174736503512,G24T03,2021_Oct_19_0957,t1_Paradigm,2021.1.4,59.94144669049767,
N,right,Target,0,41,41,41,2196.890406067774,2198.8908587191836,left,0,4,1.0523648068774492,G24T03,2021_Oct_19_0957,t1_Paradigm,2021.1.4,59.94144669049767,
Z,right,Target,0,42,42,42,2200.3904103985988,2202.390959932178,right,1,4,1.2161671942449175,G24T03,2021_Oct_19_0957,t1_Paradigm,2021.1.4,59.94144669049767,
P,right,Target,0,43,43,43,2203.8903281129315,2205.8922243726556,right,1,4,0.8670083848410286,G24T03,2021_Oct_19_0957,t1_Paradigm,2021.1.4,59.94144669049767,
X,left,Pretarget,0,44,44,44,2207.3902368448325,2209.3902034814237,left,1,4,1.1290200882940553,G24T03,2021_Oct_19_0957,t1_Paradigm,2021.1.4,59.94144669049767,
Z,left,Lure,0,45,45,45,2210.8904541880474,2212.8915080221486,left,1,4,1.0678098119678907,G24T03,2021_Oct_19_0957,t1_Paradigm,2021.1.4,59.94144669049767,
R,left,Pretarget,0,46,46,46,2214.3911344484077,2216.392161014315,left,1,4,1.0071012697881088,G24T03,2021_Oct_19_0957,t1_Paradigm,2021.1.4,59.94144669049767,
K,left,Distractor,0,47,47,47,2217.890171561623,2219.89048466424,left,1,4,0.7406538390787318,G24T03,2021_Oct_19_0957,t1_Paradigm,2021.1.4,59.94144669049767,
X,right,Target,0,48,48,48,2221.391099801811,2223.403372718196,right,1,4,1.0999871999956667,G24T03,2021_Oct_19_0957,t1_Paradigm,2021.1.4,59.94144669049767,
B,left,Distractor,0,49,49,49,2224.890455150453,2226.8916116411565,left,1,4,0.6356348620611243,G24T03,2021_Oct_19_0957,t1_Paradigm,2021.1.4,59.94144669049767,
R,right,Target,0,50,50,50,2228.390426117927,2230.39139205229,left,0,4,0.9600848713307641,G24T03,2021_Oct_19_0957,t1_Paradigm,2021.1.4,59.94144669049767,
Y,left,Pretarget,0,51,51,51,2231.8903181680944,2233.890978378302,left,1,4,0.8041822296218015,G24T03,2021_Oct_19_0957,t1_Paradigm,2021.1.4,59.94144669049767,
W,left,Pretarget,0,52,52,52,2235.390364523919,2237.391020563722,left,1,4,0.7601925965864211,G24T03,2021_Oct_19_0957,t1_Paradigm,2021.1.4,59.94144669049767,
Z,left,Distractor,0,53,53,53,2238.89063447871,2240.8906838821713,left,1,4,1.052529699052684,G24T03,2021_Oct_19_0957,t1_Paradigm,2021.1.4,59.94144669049767,
Q,left,Distractor,0,54,54,54,2242.390348804649,2244.390918869525,left,1,4,0.7042113904608414,G24T03,2021_Oct_19_0957,t1_Paradigm,2021.1.4,59.94144669049767,
Y,right,Target,0,55,55,55,2245.890217436303,2247.890629987465,left,0,4,0.740546049666591,G24T03,2021_Oct_19_0957,t1_Paradigm,2021.1.4,59.94144669049767,
W,right,Target,0,56,56,56,2249.3902586593176,2251.390785415948,left,0,4,0.7443145090364851,G24T03,2021_Oct_19_0957,t1_Paradigm,2021.1.4,59.94144669049767,
H,left,Pretarget,0,57,57,57,2252.8901738072746,2254.8927540165023,left,1,4,0.6504757972434163,G24T03,2021_Oct_19_0957,t1_Paradigm,2021.1.4,59.94144669049767,
M,left,Distractor,0,58,58,58,2256.390277907427,2258.390450498846,right,0,4,0.864914831938222,G24T03,2021_Oct_19_0957,t1_Paradigm,2021.1.4,59.94144669049767,
R,left,Pretarget,0,59,59,59,2259.890206849843,2261.890036824858,right,0,4,1.461454534844961,G24T03,2021_Oct_19_0957,t1_Paradigm,2021.1.4,59.94144669049767,
J,left,Distractor,0,60,60,60,2263.3903812056524,2265.3912579570897,left,1,4,0.6961098605534062,G24T03,2021_Oct_19_0957,t1_Paradigm,2021.1.4,59.94144669049767,
H,right,Target,0,61,61,61,2266.890376553987,2268.8924027385074,right,1,4,1.018869885650929,G24T03,2021_Oct_19_0957,t1_Paradigm,2021.1.4,59.94144669049767,
Z,left,Distractor,0,62,62,62,2270.3905380777433,2272.3925138963386,right,0,4,0.8467779784696177,G24T03,2021_Oct_19_0957,t1_Paradigm,2021.1.4,59.94144669049767,
R,right,Target,0,63,63,63,2273.890134669433,2275.8902565741446,right,1,4,1.1568602352635935,G24T03,2021_Oct_19_0957,t1_Paradigm,2021.1.4,59.94144669049767,
J,left,Pretarget,0,0,0,0,2299.7953008303302,2301.7911843010224,None,0,4,,G24T03,2021_Oct_19_0957,t1_Paradigm,2021.1.4,59.94144669049767,
G,left,Pretarget,0,1,1,1,2303.2903670583037,2305.291135378706,None,0,4,,G24T03,2021_Oct_19_0957,t1_Paradigm,2021.1.4,59.94144669049767,
Z,left,Distractor,0,2,2,2,2306.790302416717,2308.790975779819,None,0,4,,G24T03,2021_Oct_19_0957,t1_Paradigm,2021.1.4,59.94144669049767,
F,left,Distractor,0,3,3,3,2310.2904254441964,2312.2911469275714,left,1,4,0.8681132263154723,G24T03,2021_Oct_19_0957,t1_Paradigm,2021.1.4,59.94144669049767,
J,right,Target,0,4,4,4,2313.790346366586,2315.791170185723,left,0,4,1.0323570370092057,G24T03,2021_Oct_19_0957,t1_Paradigm,2021.1.4,59.94144669049767,
G,right,Target,0,5,5,5,2317.2902384167537,2319.2911668173037,right,1,4,0.9400373220560141,G24T03,2021_Oct_19_0957,t1_Paradigm,2021.1.4,59.94144669049767,
H,left,Distractor,0,6,6,6,2320.7903097951785,2322.7919545462355,left,1,4,0.6231646524975076,G24T03,2021_Oct_19_0957,t1_Paradigm,2021.1.4,59.94144669049767,
P,left,Distractor,0,7,7,7,2324.290884832444,2326.2928500645794,left,1,4,0.9464145420934074,G24T03,2021_Oct_19_0957,t1_Paradigm,2021.1.4,59.94144669049767,
G,left,Lure,0,8,8,8,2327.7902719405247,2329.7911101957434,left,1,4,1.0801879513892345,G24T03,2021_Oct_19_0957,t1_Paradigm,2021.1.4,59.94144669049767,
S,left,Distractor,0,9,9,9,2331.290132231312,2333.290666045621,left,1,4,0.9084171668509953,G24T03,2021_Oct_19_0957,t1_Paradigm,2021.1.4,59.94144669049767,
R,left,Pretarget,0,10,10,10,2334.7902526924154,2336.792298125045,left,1,4,0.9908244254766032,G24T03,2021_Oct_19_0957,t1_Paradigm,2021.1.4,59.94144669049767,
T,left,Pretarget,0,11,11,11,2338.2909127422026,2340.291768320778,left,1,4,0.8035053376224823,G24T03,2021_Oct_19_0957,t1_Paradigm,2021.1.4,59.94144669049767,
X,left,Distractor,0,12,12,12,2341.7906504867133,2343.790693794959,left,1,4,0.5685064332210459,G24T03,2021_Oct_19_0957,t1_Paradigm,2021.1.4,59.94144669049767,
F,left,Pretarget,0,13,13,13,2345.2902788377833,2347.29065353435,left,1,4,1.020534526440315,G24T03,2021_Oct_19_0957,t1_Paradigm,2021.1.4,59.94144669049767,
R,right,Target,0,14,14,14,2348.7901850032504,2350.7909356795717,left,0,4,0.9604088811902329,G24T03,2021_Oct_19_0957,t1_Paradigm,2021.1.4,59.94144669049767,
T,right,Target,0,15,15,15,2352.290284612216,2354.290513023152,right,1,4,0.8526380659313872,G24T03,2021_Oct_19_0957,t1_Paradigm,2021.1.4,59.94144669049767,
C,left,Distractor,0,16,16,16,2355.790507088299,2357.7906979653635,left,1,4,1.0004638794343919,G24T03,2021_Oct_19_0957,t1_Paradigm,2021.1.4,59.94144669049767,
F,right,Target,0,17,17,17,2359.290225584642,2361.29054061207,right,1,4,1.1807256473693997,G24T03,2021_Oct_19_0957,t1_Paradigm,2021.1.4,59.94144669049767,
M,left,Distractor,0,18,18,18,2362.790270657337,2364.7905651534093,left,1,4,0.6405710401013494,G24T03,2021_Oct_19_0957,t1_Paradigm,2021.1.4,59.94144669049767,
N,left,Distractor,0,19,19,19,2366.290153404232,2368.2906047724537,left,1,4,0.740486059745308,G24T03,2021_Oct_19_0957,t1_Paradigm,2021.1.4,59.94144669049767,
R,left,Lure,0,20,20,20,2369.7902061761706,2371.792533272761,right,0,4,1.1268322196556255,G24T03,2021_Oct_19_0957,t1_Paradigm,2021.1.4,59.94144669049767,
F,right,Target,0,21,21,21,2373.290310276381,2375.2921362805064,None,0,4,,G24T03,2021_Oct_19_0957,t1_Paradigm,2021.1.4,59.94144669049767,
P,left,Distractor,0,22,22,22,2376.790419188561,2378.7922041300917,left,1,4,0.8148424751125276,G24T03,2021_Oct_19_0957,t1_Paradigm,2021.1.4,59.94144669049767,
L,left,Pretarget,0,23,23,23,2380.2901161912596,2382.29032920365,left,1,4,0.6446997599559836,G24T03,2021_Oct_19_0957,t1_Paradigm,2021.1.4,59.94144669049767,
T,left,Distractor,0,24,24,24,2383.7901015947573,2385.790461213619,left,1,4,0.8406019012909383,G24T03,2021_Oct_19_0957,t1_Paradigm,2021.1.4,59.94144669049767,
F,left,Distractor,0,25,25,25,2387.2899968529237,2389.2918514084304,None,0,4,,G24T03,2021_Oct_19_0957,t1_Paradigm,2021.1.4,59.94144669049767,
V,left,Distractor,0,26,26,26,2390.7903011335293,2392.7897657151916,left,1,4,0.6893467159243301,G24T03,2021_Oct_19_0957,t1_Paradigm,2021.1.4,59.94144669049767,
L,right,Target,0,27,27,27,2394.2903676998685,2396.289913123648,right,1,4,0.7891574748791754,G24T03,2021_Oct_19_0957,t1_Paradigm,2021.1.4,59.94144669049767,
S,left,Pretarget,0,28,28,28,2397.7901740959496,2399.7907938851276,left,1,4,0.9202444895054214,G24T03,2021_Oct_19_0957,t1_Paradigm,2021.1.4,59.94144669049767,
W,left,Distractor,0,29,29,29,2401.2901601410704,2403.2909393687733,left,1,4,0.6842145278933458,G24T03,2021_Oct_19_0957,t1_Paradigm,2021.1.4,59.94144669049767,
Q,left,Distractor,0,30,30,30,2404.790030055912,2406.7917116992176,left,1,4,0.8635819002520293,G24T03,2021_Oct_19_0957,t1_Paradigm,2021.1.4,59.94144669049767,
L,right,Target,0,31,31,31,2408.290048181254,2410.290339148545,left,0,4,0.7727086807717569,G24T03,2021_Oct_19_0957,t1_Paradigm,2021.1.4,59.94144669049767,
S,right,Target,0,32,32,32,2411.7901025571628,2413.789641885669,right,1,4,0.8575052715605125,G24T03,2021_Oct_19_0957,t1_Paradigm,2021.1.4,59.94144669049767,
Z,left,Pretarget,0,33,33,33,2415.290830937738,2417.2921799095348,right,0,4,1.1469647813937627,G24T03,2021_Oct_19_0957,t1_Paradigm,2021.1.4,59.94144669049767,
F,left,Distractor,0,34,34,34,2418.790025243885,2420.789698346809,right,0,4,1.2816303406725638,G24T03,2021_Oct_19_0957,t1_Paradigm,2021.1.4,59.94144669049767,
V,left,Distractor,0,35,35,35,2422.2904203113867,2424.290001664951,None,0,4,,G24T03,2021_Oct_19_0957,t1_Paradigm,2021.1.4,59.94144669049767,
M,left,Distractor,0,36,36,36,2425.7908618951333,2427.791782917222,left,1,4,1.3674188507720828,G24T03,2021_Oct_19_0957,t1_Paradigm,2021.1.4,59.94144669049767,
Z,right,Target,0,37,37,37,2429.290325995651,2431.290826767334,right,1,4,1.1002550695557147,G24T03,2021_Oct_19_0957,t1_Paradigm,2021.1.4,59.94144669049767,
H,left,Pretarget,0,38,38,38,2432.7904005820747,2434.7908641407266,left,1,4,1.1041874586371705,G24T03,2021_Oct_19_0957,t1_Paradigm,2021.1.4,59.94144669049767,
L,left,Distractor,0,39,39,39,2436.2902002413175,2438.2925295835594,right,0,4,1.042497262766119,G24T03,2021_Oct_19_0957,t1_Paradigm,2021.1.4,59.94144669049767,
G,left,Distractor,0,40,40,40,2439.7902549380087,2441.7899691035855,left,1,4,1.0011378841591068,G24T03,2021_Oct_19_0957,t1_Paradigm,2021.1.4,59.94144669049767,
K,left,Distractor,0,41,41,41,2443.290127740125,2445.2910227772663,left,1,4,0.8122096542501822,G24T03,2021_Oct_19_0957,t1_Paradigm,2021.1.4,59.94144669049767,
H,right,Target,0,42,42,42,2446.7902594292536,2448.790873443999,right,1,4,0.9922487856820226,G24T03,2021_Oct_19_0957,t1_Paradigm,2021.1.4,59.94144669049767,
B,left,Distractor,0,43,43,43,2450.290155970666,2452.2910465166206,left,1,4,0.8360901440610178,G24T03,2021_Oct_19_0957,t1_Paradigm,2021.1.4,59.94144669049767,
Z,left,Distractor,0,44,44,44,2453.7902594292536,2455.7923353380174,left,1,4,0.7267121114418842,G24T03,2021_Oct_19_0957,t1_Paradigm,2021.1.4,59.94144669049767,
T,left,Pretarget,0,45,45,45,2457.2902496447787,2459.2915075088385,left,1,4,0.7321217930875719,G24T03,2021_Oct_19_0957,t1_Paradigm,2021.1.4,59.94144669049767,
H,right,Target,0,46,46,46,2460.7902613540646,2462.792063939676,right,1,4,0.8951510479091667,G24T03,2021_Oct_19_0957,t1_Paradigm,2021.1.4,59.94144669049767,
F,left,Distractor,0,47,47,47,2464.2899435998406,2466.292046135175,left,1,4,0.8989576827152632,G24T03,2021_Oct_19_0957,t1_Paradigm,2021.1.4,59.94144669049767,
R,left,Distractor,0,48,48,48,2467.7900480208336,2469.79024114355,left,1,4,0.8887975672842003,G24T03,2021_Oct_19_0957,t1_Paradigm,2021.1.4,59.94144669049767,
T,right,Target,0,49,49,49,2471.2902599104564,2473.292437513417,right,1,4,1.1307370198192075,G24T03,2021_Oct_19_0957,t1_Paradigm,2021.1.4,59.94144669049767,
H,right,Target,0,50,50,50,2474.790113785246,2476.7911948874826,left,0,4,1.3122338748071343,G24T03,2021_Oct_19_0957,t1_Paradigm,2021.1.4,59.94144669049767,
Y,left,Pretarget,0,51,51,51,2478.2904446923058,2480.2913224062067,left,1,4,0.7237254462088458,G24T03,2021_Oct_19_0957,t1_Paradigm,2021.1.4,59.94144669049767,
H,left,Distractor,0,52,52,52,2481.7903361009085,2483.7920896038413,left,1,4,1.0313250175095163,G24T03,2021_Oct_19_0957,t1_Paradigm,2021.1.4,59.94144669049767,
S,left,Distractor,0,53,53,53,2485.2902823665645,2487.2920948970714,left,1,4,0.8275163937942125,G24T03,2021_Oct_19_0957,t1_Paradigm,2021.1.4,59.94144669049767,
Q,left,Distractor,0,54,54,54,2488.790793564345,2490.792465583596,left,1,4,0.6546526373131201,G24T03,2021_Oct_19_0957,t1_Paradigm,2021.1.4,59.94144669049767,
Y,right,Target,0,55,55,55,2492.2907773638726,2494.292015979765,right,1,4,0.8830821614828892,G24T03,2021_Oct_19_0957,t1_Paradigm,2021.1.4,59.94144669049767,
R,left,Distractor,0,56,56,56,2495.78991168004,2497.789479559986,left,1,4,1.1935949343605898,G24T03,2021_Oct_19_0957,t1_Paradigm,2021.1.4,59.94144669049767,
H,left,Pretarget,0,57,57,57,2499.290795970359,2501.292007318116,right,0,4,1.099070669093635,G24T03,2021_Oct_19_0957,t1_Paradigm,2021.1.4,59.94144669049767,
J,left,Distractor,0,58,58,58,2502.789887299121,2504.79021644179,left,1,4,1.1528938412084244,G24T03,2021_Oct_19_0957,t1_Paradigm,2021.1.4,59.94144669049767,
V,left,Distractor,0,59,59,59,2506.2908293337678,2508.292371749063,left,1,4,1.1866906369687058,G24T03,2021_Oct_19_0957,t1_Paradigm,2021.1.4,59.94144669049767,
Y,left,Lure,0,60,60,60,2509.790067910566,2511.790358236234,left,1,4,1.2727460542228073,G24T03,2021_Oct_19_0957,t1_Paradigm,2021.1.4,59.94144669049767,
H,right,Target,0,61,61,61,2513.2898653242155,2515.2905778251006,None,0,4,,G24T03,2021_Oct_19_0957,t1_Paradigm,2021.1.4,59.94144669049767,
L,left,Distractor,0,62,62,62,2516.789942477015,2518.7894112291397,left,1,4,1.0256282182526775,G24T03,2021_Oct_19_0957,t1_Paradigm,2021.1.4,59.94144669049767,
P,left,Distractor,0,63,63,63,2520.290119078476,2522.291753884696,left,1,4,0.7552516064606607,G24T03,2021_Oct_19_0957,t1_Paradigm,2021.1.4,59.94144669049767,
