Letter,CorrAnswer,Stimulus,finaln_nback_run.thisRepN,finaln_nback_run.thisTrialN,finaln_nback_run.thisN,finaln_nback_run.thisIndex,finaln_fixcross.started,finaln_nback_trial.started,finaln_trial_resp.keys,finaln_trial_resp.corr,finaln_level,finaln_money,finaln_trial_resp.rt,Participant,date,expName,psychopyVersion,frameRate,
D,left,Distractor,0,0,0,0,3047.804338780872,3049.789188271854,None,0,2,1.97,,G24T03,2021_Oct_19_0957,t1_Paradigm,2021.1.4,59.94144669049767,
M,left,Pretarget,0,1,1,1,3051.2902454743744,3053.290908892581,left,1,2,1.97,0.011805508111137897,G24T03,2021_Oct_19_0957,t1_Paradigm,2021.1.4,59.94144669049767,
T,left,Distractor,0,2,2,2,3054.7896893643774,3056.7908102460206,None,0,2,1.97,,G24T03,2021_Oct_19_0957,t1_Paradigm,2021.1.4,59.94144669049767,
G,left,Pretarget,0,3,3,3,3058.289884572325,3060.2915389474365,left,1,2,1.97,1.3152401089901105,G24T03,2021_Oct_19_0957,t1_Paradigm,2021.1.4,59.94144669049767,
M,right,Target,0,4,4,4,3061.7898042114102,3063.7905205619754,right,1,2,1.97,0.9523189000901766,G24T03,2021_Oct_19_0957,t1_Paradigm,2021.1.4,59.94144669049767,
P,left,Distractor,0,5,5,5,3065.289884251484,3067.2904713188764,left,1,2,1.97,0.812461162917316,G24T03,2021_Oct_19_0957,t1_Paradigm,2021.1.4,59.94144669049767,
G,right,Target,0,6,6,6,3068.789800041006,3070.7891597205307,right,1,2,1.97,1.2818362955003977,G24T03,2021_Oct_19_0957,t1_Paradigm,2021.1.4,59.94144669049767,
J,left,Distractor,0,7,7,7,3072.2903978552786,3074.2915742356563,left,1,2,1.97,0.8191319166216999,G24T03,2021_Oct_19_0957,t1_Paradigm,2021.1.4,59.94144669049767,
M,left,Lure,0,8,8,8,3075.7896986676496,3077.7900932538905,right,0,2,1.97,1.032813858881127,G24T03,2021_Oct_19_0957,t1_Paradigm,2021.1.4,59.94144669049767,
F,left,Pretarget,0,9,9,9,3079.2895567127853,3081.290889323689,left,1,2,1.97,0.7960146144614555,G24T03,2021_Oct_19_0957,t1_Paradigm,2021.1.4,59.94144669049767,
R,left,Distractor,0,10,10,10,3082.789489504823,3084.7906665268238,left,1,2,1.97,0.7680840013199486,G24T03,2021_Oct_19_0957,t1_Paradigm,2021.1.4,59.94144669049767,
G,left,Distractor,0,11,11,11,3086.289834848023,3088.2902804417536,left,1,2,1.97,1.1885448716930114,G24T03,2021_Oct_19_0957,t1_Paradigm,2021.1.4,59.94144669049767,
F,right,Target,0,12,12,12,3089.790466988052,3091.7916359900264,right,1,2,1.97,0.8551165809622034,G24T03,2021_Oct_19_0957,t1_Paradigm,2021.1.4,59.94144669049767,
F,left,Lure,0,13,13,13,3093.2898678905913,3095.289817845507,None,0,2,1.97,,G24T03,2021_Oct_19_0957,t1_Paradigm,2021.1.4,59.94144669049767,
S,left,Distractor,0,14,14,14,3096.7898949983646,3098.791424902389,left,1,2,1.97,1.0712703015306033,G24T03,2021_Oct_19_0957,t1_Paradigm,2021.1.4,59.94144669049767,
F,right,Target,0,15,15,15,3100.2897610635846,3102.290154687478,right,1,2,1.97,0.9647740320069715,G24T03,2021_Oct_19_0957,t1_Paradigm,2021.1.4,59.94144669049767,
T,left,Pretarget,0,16,16,16,3103.7897859257064,3105.791656200541,left,1,2,1.97,0.8550982952583581,G24T03,2021_Oct_19_0957,t1_Paradigm,2021.1.4,59.94144669049767,
Z,left,Distractor,0,17,17,17,3107.289570828085,3109.29154664668,left,1,2,1.97,0.6512720274622552,G24T03,2021_Oct_19_0957,t1_Paradigm,2021.1.4,59.94144669049767,
W,left,Distractor,0,18,18,18,3110.789852652524,3112.790605574439,left,1,2,1.97,0.6560972080915235,G24T03,2021_Oct_19_0957,t1_Paradigm,2021.1.4,59.94144669049767,
T,right,Target,0,19,19,19,3114.2897479106905,3116.2904649028205,right,1,2,1.97,0.8523352289339527,G24T03,2021_Oct_19_0957,t1_Paradigm,2021.1.4,59.94144669049767,
V,left,Distractor,0,20,20,20,3117.7898221763317,3119.790746085695,left,1,2,1.97,0.6961807577172294,G24T03,2021_Oct_19_0957,t1_Paradigm,2021.1.4,59.94144669049767,
N,left,Distractor,0,21,21,21,3121.289692412014,3123.29206121288,left,1,2,1.97,0.6827786188223399,G24T03,2021_Oct_19_0957,t1_Paradigm,2021.1.4,59.94144669049767,
P,left,Pretarget,0,22,22,22,3124.789870296605,3126.791141313559,right,0,2,1.97,1.1516985335038044,G24T03,2021_Oct_19_0957,t1_Paradigm,2021.1.4,59.94144669049767,
T,left,Lure,0,23,23,23,3128.289905103622,3130.2908549978747,right,0,2,1.97,0.8999223338323645,G24T03,2021_Oct_19_0957,t1_Paradigm,2021.1.4,59.94144669049767,
L,left,Pretarget,0,24,24,24,3131.790006316616,3133.7916703157825,left,1,2,1.97,0.8710533753037453,G24T03,2021_Oct_19_0957,t1_Paradigm,2021.1.4,59.94144669049767,
P,right,Target,0,25,25,25,3135.289846076048,3137.291449443728,right,1,2,1.97,0.8274086043820716,G24T03,2021_Oct_19_0957,t1_Paradigm,2021.1.4,59.94144669049767,
G,left,Pretarget,0,26,26,26,3138.7904560808092,3140.8027719846577,left,1,2,1.97,1.1720194059889764,G24T03,2021_Oct_19_0957,t1_Paradigm,2021.1.4,59.94144669049767,
L,right,Target,0,27,27,27,3142.2895567127853,3144.289873023459,left,0,2,1.97,0.9970637006917968,G24T03,2021_Oct_19_0957,t1_Paradigm,2021.1.4,59.94144669049767,
F,left,Distractor,0,28,28,28,3145.789773093653,3147.78911192104,left,1,2,1.97,0.9216913058771752,G24T03,2021_Oct_19_0957,t1_Paradigm,2021.1.4,59.94144669049767,
G,right,Target,0,29,29,29,3149.2897819157224,3151.2905534441816,right,1,2,1.97,0.9403051916160621,G24T03,2021_Oct_19_0957,t1_Paradigm,2021.1.4,59.94144669049767,
R,left,Pretarget,0,30,30,30,3152.7897897753282,3154.7907361407997,left,1,2,1.97,0.7841590612079017,G24T03,2021_Oct_19_0957,t1_Paradigm,2021.1.4,59.94144669049767,
X,left,Distractor,0,31,31,31,3156.289922106138,3158.2898974043783,left,1,2,1.97,0.6289313865709119,G24T03,2021_Oct_19_0957,t1_Paradigm,2021.1.4,59.94144669049767,
W,left,Distractor,0,32,32,32,3159.7895940862363,3161.7903178152046,left,1,2,1.97,0.600456693500746,G24T03,2021_Oct_19_0957,t1_Paradigm,2021.1.4,59.94144669049767,
R,right,Target,0,33,33,33,3163.289720000932,3165.290088281501,left,0,2,1.97,0.7968265639501624,G24T03,2021_Oct_19_0957,t1_Paradigm,2021.1.4,59.94144669049767,
S,left,Distractor,0,34,34,34,3166.7897583367885,3168.7902700157138,left,1,2,1.97,0.5287946929456666,G24T03,2021_Oct_19_0957,t1_Paradigm,2021.1.4,59.94144669049767,
D,left,Distractor,0,35,35,35,3170.289757855586,3172.291606957442,left,1,2,1.97,0.6112882472225465,G24T03,2021_Oct_19_0957,t1_Paradigm,2021.1.4,59.94144669049767,
R,right,Target,0,36,36,36,3173.789472502307,3175.791635669186,right,1,2,1.97,0.8710517712752335,G24T03,2021_Oct_19_0957,t1_Paradigm,2021.1.4,59.94144669049767,
T,left,Distractor,0,37,37,37,3177.289708131284,3179.28925644228,left,1,2,1.97,0.7015214668936096,G24T03,2021_Oct_19_0957,t1_Paradigm,2021.1.4,59.94144669049767,
G,left,Distractor,0,38,38,38,3180.789808702655,3182.790558416571,left,1,2,1.97,0.9288516031811014,G24T03,2021_Oct_19_0957,t1_Paradigm,2021.1.4,59.94144669049767,
K,left,Pretarget,0,39,39,39,3184.289743098663,3186.290492812579,left,1,2,1.97,0.6762759652920067,G24T03,2021_Oct_19_0957,t1_Paradigm,2021.1.4,59.94144669049767,
R,left,Lure,0,40,40,40,3187.789831479604,3189.791728380951,left,1,2,1.97,1.095212706073653,G24T03,2021_Oct_19_0957,t1_Paradigm,2021.1.4,59.94144669049767,
Q,left,Pretarget,0,41,41,41,3191.2903105971636,3193.2920583256637,left,1,2,1.97,1.050720697385259,G24T03,2021_Oct_19_0957,t1_Paradigm,2021.1.4,59.94144669049767,
K,right,Target,0,42,42,42,3194.7896027478855,3196.7899614043417,left,0,2,1.97,1.1847764123231173,G24T03,2021_Oct_19_0957,t1_Paradigm,2021.1.4,59.94144669049767,
Z,left,Distractor,0,43,43,43,3198.289639158873,3200.2902089029667,left,1,2,1.97,1.0126848259824328,G24T03,2021_Oct_19_0957,t1_Paradigm,2021.1.4,59.94144669049767,
Q,right,Target,0,44,44,44,3201.7895238306373,3203.7898398204125,right,1,2,1.97,0.8888155322056264,G24T03,2021_Oct_19_0957,t1_Paradigm,2021.1.4,59.94144669049767,
W,left,Distractor,0,45,45,45,3205.2895990586258,3207.2915639699786,left,1,2,1.97,0.8277842633542605,G24T03,2021_Oct_19_0957,t1_Paradigm,2021.1.4,59.94144669049767,
X,left,Distractor,0,46,46,46,3208.7896197503433,3210.789945685072,left,1,2,1.97,0.7848211962846108,G24T03,2021_Oct_19_0957,t1_Paradigm,2021.1.4,59.94144669049767,
R,left,Distractor,0,47,47,47,3212.2895470887306,3214.2899243517313,left,1,2,1.97,0.9169190575485118,G24T03,2021_Oct_19_0957,t1_Paradigm,2021.1.4,59.94144669049767,
P,left,Pretarget,0,48,48,48,3215.789712782891,3217.789098768146,left,1,2,1.97,0.6978235839633271,G24T03,2021_Oct_19_0957,t1_Paradigm,2021.1.4,59.94144669049767,
Z,left,Pretarget,0,49,49,49,3219.289539389487,3221.2894482818083,left,1,2,1.97,0.8772907257080078,G24T03,2021_Oct_19_0957,t1_Paradigm,2021.1.4,59.94144669049767,
V,left,Distractor,0,50,50,50,3222.789998296532,3224.7903842211817,left,1,2,1.97,0.5922903615864925,G24T03,2021_Oct_19_0957,t1_Paradigm,2021.1.4,59.94144669049767,
P,right,Target,0,51,51,51,3226.289859870565,3228.291464521433,right,1,2,1.97,0.9634141529677436,G24T03,2021_Oct_19_0957,t1_Paradigm,2021.1.4,59.94144669049767,
Z,right,Target,0,52,52,52,3229.789721765381,3231.7912940152455,None,0,2,1.97,,G24T03,2021_Oct_19_0957,t1_Paradigm,2021.1.4,59.94144669049767,
H,left,Distractor,0,53,53,53,3233.289466567512,3235.2897424570983,left,1,2,1.97,0.6530544025008567,G24T03,2021_Oct_19_0957,t1_Paradigm,2021.1.4,59.94144669049767,
L,left,Distractor,0,54,54,54,3236.7898430284695,3238.8058019581367,left,1,2,1.97,0.6250378144904971,G24T03,2021_Oct_19_0957,t1_Paradigm,2021.1.4,59.94144669049767,
Z,right,Target,0,55,55,55,3240.289732512203,3242.29061824613,right,1,2,1.97,1.0440233171684667,G24T03,2021_Oct_19_0957,t1_Paradigm,2021.1.4,59.94144669049767,
Z,left,Lure,0,56,56,56,3243.7897538455436,3245.7897243317566,right,0,2,1.97,0.9850336312665604,G24T03,2021_Oct_19_0957,t1_Paradigm,2021.1.4,59.94144669049767,
B,left,Distractor,0,57,57,57,3247.2897196801496,3249.290660912753,left,1,2,1.97,0.7962006795569323,G24T03,2021_Oct_19_0957,t1_Paradigm,2021.1.4,59.94144669049767,
J,left,Distractor,0,58,58,58,3250.789728502219,3252.7905770231155,left,1,2,1.97,0.6240949778584763,G24T03,2021_Oct_19_0957,t1_Paradigm,2021.1.4,59.94144669049767,
X,left,Pretarget,0,59,59,59,3254.2896150987362,3256.2919912780635,left,1,2,1.97,0.7547319075092673,G24T03,2021_Oct_19_0957,t1_Paradigm,2021.1.4,59.94144669049767,
R,left,Distractor,0,60,60,60,3257.789939269016,3259.790084913082,None,0,2,1.97,,G24T03,2021_Oct_19_0957,t1_Paradigm,2021.1.4,59.94144669049767,
F,left,Distractor,0,61,61,61,3261.2897097353125,3263.2899387878133,left,1,2,1.97,0.7167014896986075,G24T03,2021_Oct_19_0957,t1_Paradigm,2021.1.4,59.94144669049767,
X,right,Target,0,62,62,62,3264.7896290536155,3266.7899338153657,right,1,2,1.97,1.2167260310961865,G24T03,2021_Oct_19_0957,t1_Paradigm,2021.1.4,59.94144669049767,
T,left,Distractor,0,63,63,63,3268.289582056168,3270.2902352086967,right,0,2,1.97,1.2844928555423394,G24T03,2021_Oct_19_0957,t1_Paradigm,2021.1.4,59.94144669049767,
