Letter,CorrAnswer,Stimulus,finaln_nback_run.thisRepN,finaln_nback_run.thisTrialN,finaln_nback_run.thisN,finaln_nback_run.thisIndex,finaln_fixcross.started,finaln_nback_trial.started,finaln_trial_resp.keys,finaln_trial_resp.corr,finaln_trial_resp.rt,finaln_level,finaln_money,Participant,date,expName,psychopyVersion,frameRate,
F,left,Distractor,0,0,0,0,3275.4461868986255,3277.4405754290055,left,1,0.5158371955621988,3,3.0,M28B11,2021_Oct_13_1310,t1_Paradigm,2021.1.4,59.988357127968534,
P,left,Pretarget,0,1,1,1,3278.9397678098176,3280.939679589239,left,1,0.648662720574066,3,3.0,M28B11,2021_Oct_13_1310,t1_Paradigm,2021.1.4,59.988357127968534,
B,left,Distractor,0,2,2,2,3282.439691940206,3284.439705093042,left,1,0.4924112668959424,3,3.0,M28B11,2021_Oct_13_1310,t1_Paradigm,2021.1.4,59.988357127968534,
K,left,Pretarget,0,3,3,3,3285.9397912283894,3287.93969979987,left,1,0.5604857841972262,3,3.0,M28B11,2021_Oct_13_1310,t1_Paradigm,2021.1.4,59.988357127968534,
H,left,Distractor,0,4,4,4,3289.4396556895226,3291.439824431436,None,0,,3,3.0,M28B11,2021_Oct_13_1310,t1_Paradigm,2021.1.4,59.988357127968534,
P,right,Target,0,5,5,5,3292.940387278679,3294.940308682155,right,1,1.319871088839136,3,3.0,M28B11,2021_Oct_13_1310,t1_Paradigm,2021.1.4,59.988357127968534,
L,left,Distractor,0,6,6,6,3296.439860682003,3298.4403460555477,None,0,,3,3.0,M28B11,2021_Oct_13_1310,t1_Paradigm,2021.1.4,59.988357127968534,
K,right,Target,0,7,7,7,3299.9398627672344,3301.941909163608,right,1,1.1342713799094781,3,3.0,M28B11,2021_Oct_13_1310,t1_Paradigm,2021.1.4,59.988357127968534,
Z,left,Pretarget,0,8,8,8,3303.439825073001,3305.439790426404,left,1,0.8523104324704036,3,3.0,M28B11,2021_Oct_13_1310,t1_Paradigm,2021.1.4,59.988357127968534,
S,left,Pretarget,0,9,9,9,3306.93979154923,3308.95304709021,left,1,0.747164992033504,3,3.0,M28B11,2021_Oct_13_1310,t1_Paradigm,2021.1.4,59.988357127968534,
N,left,Distractor,0,10,10,10,3310.439702526666,3312.439939599368,left,1,1.1804020741255954,3,3.0,M28B11,2021_Oct_13_1310,t1_Paradigm,2021.1.4,59.988357127968534,
M,left,Distractor,0,11,11,11,3313.939825874986,3315.9405319603393,left,1,0.7196398548549041,3,3.0,M28B11,2021_Oct_13_1310,t1_Paradigm,2021.1.4,59.988357127968534,
Z,right,Target,0,12,12,12,3317.439859078033,3319.440150687122,right,1,0.9641731471056119,3,3.0,M28B11,2021_Oct_13_1310,t1_Paradigm,2021.1.4,59.988357127968534,
S,right,Target,0,13,13,13,3320.939728672034,3322.9400003913324,right,1,1.176182243740186,3,3.0,M28B11,2021_Oct_13_1310,t1_Paradigm,2021.1.4,59.988357127968534,
Q,left,Distractor,0,14,14,14,3324.4398148073815,3326.4417027274612,left,1,0.65050219965633,3,3.0,M28B11,2021_Oct_13_1310,t1_Paradigm,2021.1.4,59.988357127968534,
V,left,Lure,0,15,15,15,3327.9398101557745,3329.939664511592,left,1,0.6883892432088032,3,3.0,M28B11,2021_Oct_13_1310,t1_Paradigm,2021.1.4,59.988357127968534,
Z,right,Target,0,16,16,16,3331.4397131131263,3333.4396059651626,None,0,,3,3.0,M28B11,2021_Oct_13_1310,t1_Paradigm,2021.1.4,59.988357127968534,
X,left,Distractor,0,17,17,17,3334.9399140955647,3336.9400414540432,left,1,0.8880201926222071,3,3.0,M28B11,2021_Oct_13_1310,t1_Paradigm,2021.1.4,59.988357127968534,
V,left,Pretarget,0,18,18,18,3338.4397066970123,3340.4400679201353,right,0,0.636082467972301,3,3.0,M28B11,2021_Oct_13_1310,t1_Paradigm,2021.1.4,59.988357127968534,
E,left,Distractor,0,19,19,19,3341.939764601877,3343.941925524501,left,1,0.6541259795194492,3,3.0,M28B11,2021_Oct_13_1310,t1_Paradigm,2021.1.4,59.988357127968534,
R,left,Distractor,0,20,20,20,3345.439937674557,3347.439910727204,left,1,1.1082017215667292,3,3.0,M28B11,2021_Oct_13_1310,t1_Paradigm,2021.1.4,59.988357127968534,
G,left,Distractor,0,21,21,21,3348.9397007622756,3350.939880732214,left,1,0.7603165931068361,3,3.0,M28B11,2021_Oct_13_1310,t1_Paradigm,2021.1.4,59.988357127968534,
V,right,Target,0,22,22,22,3352.439746476477,3354.44003680232,left,0,1.0520475672092289,3,3.0,M28B11,2021_Oct_13_1310,t1_Paradigm,2021.1.4,59.988357127968534,
T,left,Pretarget,0,23,23,23,3355.9398300454486,3357.9396792685147,left,1,0.8009487399831414,3,3.0,M28B11,2021_Oct_13_1310,t1_Paradigm,2021.1.4,59.988357127968534,
B,left,Distractor,0,24,24,24,3359.44058505306,3361.4401577448007,left,1,1.0121166936587542,3,3.0,M28B11,2021_Oct_13_1310,t1_Paradigm,2021.1.4,59.988357127968534,
S,left,Pretarget,0,25,25,25,3362.9399086419726,3364.9402153287083,left,1,0.9681796440854669,3,3.0,M28B11,2021_Oct_13_1310,t1_Paradigm,2021.1.4,59.988357127968534,
G,left,Lure,0,26,26,26,3366.439889233443,3368.4411817449145,left,1,0.9708865716820583,3,3.0,M28B11,2021_Oct_13_1310,t1_Paradigm,2021.1.4,59.988357127968534,
T,right,Target,0,27,27,27,3369.9398364614462,3371.940407168353,right,1,0.4799330293899402,3,3.0,M28B11,2021_Oct_13_1310,t1_Paradigm,2021.1.4,59.988357127968534,
H,left,Distractor,0,28,28,28,3373.4398475291673,3375.4421261862153,left,1,0.8339830109616742,3,3.0,M28B11,2021_Oct_13_1310,t1_Paradigm,2021.1.4,59.988357127968534,
S,right,Target,0,29,29,29,3376.9397979652276,3378.939686005353,None,0,,3,3.0,M28B11,2021_Oct_13_1310,t1_Paradigm,2021.1.4,59.988357127968534,
D,left,Distractor,0,30,30,30,3380.439937674557,3382.4397099050693,left,1,0.8605252107372507,3,3.0,M28B11,2021_Oct_13_1310,t1_Paradigm,2021.1.4,59.988357127968534,
Z,left,Distractor,0,31,31,31,3383.93968151405,3385.9400651933393,left,1,0.7841120857046917,3,3.0,M28B11,2021_Oct_13_1310,t1_Paradigm,2021.1.4,59.988357127968534,
J,left,Pretarget,0,32,32,32,3387.4398824966047,3389.439847850008,left,1,0.6762661335524172,3,3.0,M28B11,2021_Oct_13_1310,t1_Paradigm,2021.1.4,59.988357127968534,
C,left,Pretarget,0,33,33,33,3390.9398220253643,3392.9422485721298,left,1,0.6620853993808851,3,3.0,M28B11,2021_Oct_13_1310,t1_Paradigm,2021.1.4,59.988357127968534,
H,left,Distractor,0,34,34,34,3394.4398869877914,3396.4401314390125,right,0,1.0840312115615234,3,3.0,M28B11,2021_Oct_13_1310,t1_Paradigm,2021.1.4,59.988357127968534,
B,left,Pretarget,0,35,35,35,3397.9397033286514,3399.940076742205,None,0,,3,3.0,M28B11,2021_Oct_13_1310,t1_Paradigm,2021.1.4,59.988357127968534,
J,right,Target,0,36,36,36,3401.4402546270285,3403.4401779553154,None,0,,3,3.0,M28B11,2021_Oct_13_1310,t1_Paradigm,2021.1.4,59.988357127968534,
C,right,Target,0,37,37,37,3404.939931418863,3406.9405104665784,left,0,0.8395688163582236,3,3.0,M28B11,2021_Oct_13_1310,t1_Paradigm,2021.1.4,59.988357127968534,
H,left,Distractor,0,38,38,38,3408.4399270880967,3410.4416315093404,right,0,0.954480433720164,3,3.0,M28B11,2021_Oct_13_1310,t1_Paradigm,2021.1.4,59.988357127968534,
B,right,Target,0,39,39,39,3411.9397020454053,3413.94009566959,right,1,0.8482561360578984,3,3.0,M28B11,2021_Oct_13_1310,t1_Paradigm,2021.1.4,59.988357127968534,
F,left,Pretarget,0,40,40,40,3415.4402889527846,3417.44035150914,left,1,0.9639999140053988,3,3.0,M28B11,2021_Oct_13_1310,t1_Paradigm,2021.1.4,59.988357127968534,
M,left,Distractor,0,41,41,41,3418.9398364614462,3420.9404998801183,left,1,1.031727964989841,3,3.0,M28B11,2021_Oct_13_1310,t1_Paradigm,2021.1.4,59.988357127968534,
W,left,Pretarget,0,42,42,42,3422.4399258048506,3424.440276120673,left,1,0.6359554303344339,3,3.0,M28B11,2021_Oct_13_1310,t1_Paradigm,2021.1.4,59.988357127968534,
Z,left,Distractor,0,43,43,43,3425.940564682125,3427.940260882606,left,1,0.8000062234932557,3,3.0,M28B11,2021_Oct_13_1310,t1_Paradigm,2021.1.4,59.988357127968534,
F,right,Target,0,44,44,44,3429.4398452835158,3431.440504211001,right,1,0.5160174862248823,3,3.0,M28B11,2021_Oct_13_1310,t1_Paradigm,2021.1.4,59.988357127968534,
B,left,Lure,0,45,45,45,3432.9399622159544,3434.9402907171752,left,1,1.1597847674274817,3,3.0,M28B11,2021_Oct_13_1310,t1_Paradigm,2021.1.4,59.988357127968534,
W,right,Target,0,46,46,46,3436.4399437698303,3438.440515439026,left,0,1.1798217430477962,3,3.0,M28B11,2021_Oct_13_1310,t1_Paradigm,2021.1.4,59.988357127968534,
X,left,Distractor,0,47,47,47,3439.9399080002913,3441.9402554290136,left,1,1.0719109890051186,3,3.0,M28B11,2021_Oct_13_1310,t1_Paradigm,2021.1.4,59.988357127968534,
T,left,Distractor,0,48,48,48,3443.4400595793268,3445.440104170819,left,1,1.348259825259447,3,3.0,M28B11,2021_Oct_13_1310,t1_Paradigm,2021.1.4,59.988357127968534,
L,left,Pretarget,0,49,49,49,3446.9398646920454,3448.9401537347585,left,1,0.8400513026863337,3,3.0,M28B11,2021_Oct_13_1310,t1_Paradigm,2021.1.4,59.988357127968534,
J,left,Distractor,0,50,50,50,3450.4397612333996,3452.440068882541,left,1,0.9401604715967551,3,3.0,M28B11,2021_Oct_13_1310,t1_Paradigm,2021.1.4,59.988357127968534,
Z,left,Distractor,0,51,51,51,3453.9397376544075,3455.940158225945,right,0,0.9442349785240367,3,3.0,M28B11,2021_Oct_13_1310,t1_Paradigm,2021.1.4,59.988357127968534,
P,left,Pretarget,0,52,52,52,3457.4398010128643,3459.452894228045,left,1,0.7591674801660702,3,3.0,M28B11,2021_Oct_13_1310,t1_Paradigm,2021.1.4,59.988357127968534,
L,right,Target,0,53,53,53,3460.939857955207,3462.9401251833187,None,0,,3,3.0,M28B11,2021_Oct_13_1310,t1_Paradigm,2021.1.4,59.988357127968534,
V,left,Distractor,0,54,54,54,3464.439737814828,3466.439967829967,left,1,0.9721097900765017,3,3.0,M28B11,2021_Oct_13_1310,t1_Paradigm,2021.1.4,59.988357127968534,
F,left,Distractor,0,55,55,55,3467.939745032927,3469.940025734715,right,0,1.0241063497960567,3,3.0,M28B11,2021_Oct_13_1310,t1_Paradigm,2021.1.4,59.988357127968534,
P,right,Target,0,56,56,56,3471.43969963945,3473.440046426491,right,1,1.1720499926013872,3,3.0,M28B11,2021_Oct_13_1310,t1_Paradigm,2021.1.4,59.988357127968534,
T,left,Pretarget,0,57,57,57,3474.9395316995215,3476.9529607944423,left,1,1.0191948702558875,3,3.0,M28B11,2021_Oct_13_1310,t1_Paradigm,2021.1.4,59.988357127968534,
D,left,Distractor,0,58,58,58,3478.4397997296182,3480.43965151906,left,1,1.0364909131312743,3,3.0,M28B11,2021_Oct_13_1310,t1_Paradigm,2021.1.4,59.988357127968534,
V,left,Distractor,0,59,59,59,3481.939641734585,3483.9403635392664,left,1,0.6557020801119506,3,3.0,M28B11,2021_Oct_13_1310,t1_Paradigm,2021.1.4,59.988357127968534,
Z,left,Distractor,0,60,60,60,3485.439708301099,3487.440091338707,left,1,1.0443415810586885,3,3.0,M28B11,2021_Oct_13_1310,t1_Paradigm,2021.1.4,59.988357127968534,
T,right,Target,0,61,61,61,3488.9397001205944,3490.9401598299155,right,1,0.8240009341388941,3,3.0,M28B11,2021_Oct_13_1310,t1_Paradigm,2021.1.4,59.988357127968534,
B,left,Distractor,0,62,62,62,3492.4401494038757,3494.4404560906114,left,1,1.0677341461414471,3,3.0,M28B11,2021_Oct_13_1310,t1_Paradigm,2021.1.4,59.988357127968534,
J,left,Distractor,0,63,63,63,3495.9399785768474,3497.940373163321,right,0,1.2160566562088206,3,3.0,M28B11,2021_Oct_13_1310,t1_Paradigm,2021.1.4,59.988357127968534,
