Letter,CorrAnswer,Stimulus,nback_run.thisRepN,nback_run.thisTrialN,nback_run.thisN,nback_run.thisIndex,fixcross.started,nback_trial.started,trial_resp.keys,trial_resp.corr,currentlevel,trial_resp.rt,Participant,date,expName,psychopyVersion,frameRate,
H,left,Distractor,0,0,0,0,306.1004460110562,308.09299410006497,None,0,1,,M28B11,2021_Oct_13_1310,t1_Paradigm,2021.1.4,59.988357127968534,
Q,left,Pretarget,0,1,1,1,309.58969320729375,311.5913921750616,None,0,1,,M28B11,2021_Oct_13_1310,t1_Paradigm,2021.1.4,59.988357127968534,
Q,right,Target,0,2,2,2,313.0898062901106,315.0896619291743,None,0,1,,M28B11,2021_Oct_13_1310,t1_Paradigm,2021.1.4,59.988357127968534,
T,left,Distractor,0,3,3,3,316.58983981388155,318.5912394732004,None,0,1,,M28B11,2021_Oct_13_1310,t1_Paradigm,2021.1.4,59.988357127968534,
Q,left,Lure,0,4,4,4,320.0897039541742,322.0900045457529,None,0,1,,M28B11,2021_Oct_13_1310,t1_Paradigm,2021.1.4,59.988357127968534,
L,left,Distractor,0,5,5,5,323.59076372382697,325.5932541101938,None,0,1,,M28B11,2021_Oct_13_1310,t1_Paradigm,2021.1.4,59.988357127968534,
V,left,Pretarget,0,6,6,6,327.08996989915613,329.0917763354955,None,0,1,,M28B11,2021_Oct_13_1310,t1_Paradigm,2021.1.4,59.988357127968534,
V,right,Target,0,7,7,7,330.5900047061732,332.5899357337039,right,1,1,1.3177403217414394,M28B11,2021_Oct_13_1310,t1_Paradigm,2021.1.4,59.988357127968534,
K,left,Distractor,0,8,8,8,334.09000679128803,336.0917500297073,None,0,1,,M28B11,2021_Oct_13_1310,t1_Paradigm,2021.1.4,59.988357127968534,
G,left,Pretarget,0,9,9,9,337.5899485658156,339.59259357873816,None,0,1,,M28B11,2021_Oct_13_1310,t1_Paradigm,2021.1.4,59.988357127968534,
G,right,Target,0,10,10,10,341.08969625493046,343.08990702196024,None,0,1,,M28B11,2021_Oct_13_1310,t1_Paradigm,2021.1.4,59.988357127968534,
G,right,Target,0,11,11,11,344.5899610770866,346.58974164840765,right,1,1,0.9981229871045798,M28B11,2021_Oct_13_1310,t1_Paradigm,2021.1.4,59.988357127968534,
P,left,Pretarget,0,12,12,12,348.08965070103295,350.0915354131721,None,0,1,,M28B11,2021_Oct_13_1310,t1_Paradigm,2021.1.4,59.988357127968534,
P,right,Target,0,13,13,13,351.5898962750798,353.58963738777675,left,0,1,0.973973008338362,M28B11,2021_Oct_13_1310,t1_Paradigm,2021.1.4,59.988357127968534,
G,left,Lure,0,14,14,14,355.08971935266163,357.09132079652045,None,0,1,,M28B11,2021_Oct_13_1310,t1_Paradigm,2021.1.4,59.988357127968534,
Y,left,Distractor,0,15,15,15,358.5897454980295,360.5924209872028,None,0,1,,M28B11,2021_Oct_13_1310,t1_Paradigm,2021.1.4,59.988357127968534,
B,left,Distractor,0,16,16,16,362.0898566560354,364.0917140998645,left,1,1,0.871934856637381,M28B11,2021_Oct_13_1310,t1_Paradigm,2021.1.4,59.988357127968534,
T,left,Pretarget,0,17,17,17,365.58983564341906,367.59007881139405,left,1,1,1.0536647303961217,M28B11,2021_Oct_13_1310,t1_Paradigm,2021.1.4,59.988357127968534,
T,right,Target,0,18,18,18,369.08982938784175,371.08969465096015,right,1,1,0.8020612815162167,M28B11,2021_Oct_13_1310,t1_Paradigm,2021.1.4,59.988357127968534,
S,left,Distractor,0,19,19,19,372.58988536777906,374.5930500800023,left,1,1,0.7545931636122987,M28B11,2021_Oct_13_1310,t1_Paradigm,2021.1.4,59.988357127968534,
T,left,Lure,0,20,20,20,376.08977100183256,378.08978864597157,left,1,1,1.4180403678910807,M28B11,2021_Oct_13_1310,t1_Paradigm,2021.1.4,59.988357127968534,
J,left,Distractor,0,21,21,21,379.5898744604783,381.59176205983385,left,1,1,0.8598393358988687,M28B11,2021_Oct_13_1310,t1_Paradigm,2021.1.4,59.988357127968534,
P,left,Distractor,0,22,22,22,383.08990156825166,385.08981013973244,left,1,1,1.089846390299499,M28B11,2021_Oct_13_1310,t1_Paradigm,2021.1.4,59.988357127968534,
F,left,Distractor,0,23,23,23,386.58972560835537,388.59180921770167,left,1,1,1.1239880699431524,M28B11,2021_Oct_13_1310,t1_Paradigm,2021.1.4,59.988357127968534,
L,left,Distractor,0,24,24,24,390.0903994530672,392.0905181497801,left,1,1,0.7133296782849357,M28B11,2021_Oct_13_1310,t1_Paradigm,2021.1.4,59.988357127968534,
W,left,Pretarget,0,25,25,25,393.5898757437244,395.5917171475012,left,1,1,1.1480604147072881,M28B11,2021_Oct_13_1310,t1_Paradigm,2021.1.4,59.988357127968534,
W,right,Target,0,26,26,26,397.089762661024,399.0898563351948,None,0,1,,M28B11,2021_Oct_13_1310,t1_Paradigm,2021.1.4,59.988357127968534,
V,left,Distractor,0,27,27,27,400.59016991918907,402.59038678137586,None,0,1,,M28B11,2021_Oct_13_1310,t1_Paradigm,2021.1.4,59.988357127968534,
W,left,Lure,0,28,28,28,404.08977966348175,406.0917756939307,None,0,1,,M28B11,2021_Oct_13_1310,t1_Paradigm,2021.1.4,59.988357127968534,
R,left,Pretarget,0,29,29,29,407.58972657076083,409.59164785430767,None,0,1,,M28B11,2021_Oct_13_1310,t1_Paradigm,2021.1.4,59.988357127968534,
R,right,Target,0,30,30,30,411.0898512023268,413.0898431822425,left,0,1,1.186105292988941,M28B11,2021_Oct_13_1310,t1_Paradigm,2021.1.4,59.988357127968534,
G,left,Distractor,0,31,31,31,414.5897336284397,416.58984687156044,left,1,1,0.9659629018278793,M28B11,2021_Oct_13_1310,t1_Paradigm,2021.1.4,59.988357127968534,
R,left,Lure,0,32,32,32,418.08999780891463,420.09212889696937,right,0,1,1.2075582889374346,M28B11,2021_Oct_13_1310,t1_Paradigm,2021.1.4,59.988357127968534,
S,left,Distractor,0,33,33,33,421.59000117727555,423.5916308517335,left,1,1,0.7000978767173365,M28B11,2021_Oct_13_1310,t1_Paradigm,2021.1.4,59.988357127968534,
R,left,Lure,0,34,34,34,425.0898890569806,427.08996284147725,left,1,1,1.2177825713297352,M28B11,2021_Oct_13_1310,t1_Paradigm,2021.1.4,59.988357127968534,
P,left,Pretarget,0,35,35,35,428.5899992524646,430.5900707913097,left,1,1,0.7575804723892361,M28B11,2021_Oct_13_1310,t1_Paradigm,2021.1.4,59.988357127968534,
P,right,Target,0,36,36,36,432.0898377286503,434.08984125743154,left,0,1,1.1140169004211202,M28B11,2021_Oct_13_1310,t1_Paradigm,2021.1.4,59.988357127968534,
Y,left,Pretarget,0,37,37,37,435.58984141785186,437.59016671113204,left,1,1,1.0214103292673826,M28B11,2021_Oct_13_1310,t1_Paradigm,2021.1.4,59.988357127968534,
Y,right,Target,0,38,38,38,439.08948035514913,441.09021370869596,left,0,1,1.2015291351126507,M28B11,2021_Oct_13_1310,t1_Paradigm,2021.1.4,59.988357127968534,
J,left,Distractor,0,39,39,39,442.590474039549,444.5901676735375,left,1,1,1.2374217524193227,M28B11,2021_Oct_13_1310,t1_Paradigm,2021.1.4,59.988357127968534,
Y,left,Lure,0,40,40,40,446.08992017479613,448.0902130670147,left,1,1,0.7775074129458517,M28B11,2021_Oct_13_1310,t1_Paradigm,2021.1.4,59.988357127968534,
T,left,Distractor,0,41,41,41,449.58986323245335,451.5904207864078,left,1,1,0.7495049221906811,M28B11,2021_Oct_13_1310,t1_Paradigm,2021.1.4,59.988357127968534,
V,left,Distractor,0,42,42,42,453.0898524855729,455.09006870619487,left,1,1,0.577713496168144,M28B11,2021_Oct_13_1310,t1_Paradigm,2021.1.4,59.988357127968534,
N,left,Pretarget,0,43,43,43,456.59055680641904,458.59315947350115,left,1,1,0.6429161933483556,M28B11,2021_Oct_13_1310,t1_Paradigm,2021.1.4,59.988357127968534,
N,right,Target,0,44,44,44,460.08980596926995,462.0898300294066,right,1,1,1.1140281285624951,M28B11,2021_Oct_13_1310,t1_Paradigm,2021.1.4,59.988357127968534,
N,right,Target,0,45,45,45,463.58980131766293,465.58992771361955,right,1,1,0.605653109611012,M28B11,2021_Oct_13_1310,t1_Paradigm,2021.1.4,59.988357127968534,
X,left,Distractor,0,46,46,46,467.0898011572426,469.09113858104683,left,1,1,0.7364524489967152,M28B11,2021_Oct_13_1310,t1_Paradigm,2021.1.4,59.988357127968534,
Z,left,Distractor,0,47,47,47,470.58972817473114,472.59160486678593,left,1,1,0.6762478478485718,M28B11,2021_Oct_13_1310,t1_Paradigm,2021.1.4,59.988357127968534,
H,left,Pretarget,0,48,48,48,474.09062273125164,476.08995000936557,left,1,1,0.77788980898913,M28B11,2021_Oct_13_1310,t1_Paradigm,2021.1.4,59.988357127968534,
H,right,Target,0,49,49,49,477.59002042538486,479.58996428502724,right,1,1,0.749604691634886,M28B11,2021_Oct_13_1310,t1_Paradigm,2021.1.4,59.988357127968534,
K,left,Distractor,0,50,50,50,481.09065224509686,483.0921410873998,left,1,1,1.0555244198767468,M28B11,2021_Oct_13_1310,t1_Paradigm,2021.1.4,59.988357127968534,
V,left,Pretarget,0,51,51,51,484.58996460586786,486.590242099599,left,1,1,1.349565489566885,M28B11,2021_Oct_13_1310,t1_Paradigm,2021.1.4,59.988357127968534,
V,right,Target,0,52,52,52,488.0897264103405,490.09026535775047,left,0,1,1.177674935781397,M28B11,2021_Oct_13_1310,t1_Paradigm,2021.1.4,59.988357127968534,
R,left,Distractor,0,53,53,53,491.5898811973166,493.5901602951344,left,1,1,0.6855151776690036,M28B11,2021_Oct_13_1310,t1_Paradigm,2021.1.4,59.988357127968534,
V,left,Lure,0,54,54,54,495.08985858084634,497.09027690661605,left,1,1,0.9935088912025094,M28B11,2021_Oct_13_1310,t1_Paradigm,2021.1.4,59.988357127968534,
Y,left,Distractor,0,55,55,55,498.5898991622962,500.5901837137062,left,1,1,1.14150899508968,M28B11,2021_Oct_13_1310,t1_Paradigm,2021.1.4,59.988357127968534,
Q,left,Distractor,0,56,56,56,502.08976811461616,504.0902785107028,left,1,1,0.6816257735481486,M28B11,2021_Oct_13_1310,t1_Paradigm,2021.1.4,59.988357127968534,
Z,left,Pretarget,0,57,57,57,505.5898799141869,507.60297729971353,left,1,1,0.6567462908569723,M28B11,2021_Oct_13_1310,t1_Paradigm,2021.1.4,59.988357127968534,
Z,right,Target,0,58,58,58,509.08971646544524,511.08985280629713,right,1,1,1.0098980267066509,M28B11,2021_Oct_13_1310,t1_Paradigm,2021.1.4,59.988357127968534,
B,left,Distractor,0,59,59,59,512.589722721139,514.590095172287,left,1,1,0.6457257777219638,M28B11,2021_Oct_13_1310,t1_Paradigm,2021.1.4,59.988357127968534,
S,left,Pretarget,0,60,60,60,516.0898637135979,518.0900340594817,left,1,1,0.9215638972818851,M28B11,2021_Oct_13_1310,t1_Paradigm,2021.1.4,59.988357127968534,
S,right,Target,0,61,61,61,519.5898504003417,521.5898568163393,right,1,1,0.6858844207599759,M28B11,2021_Oct_13_1310,t1_Paradigm,2021.1.4,59.988357127968534,
T,left,Distractor,0,62,62,62,523.0906012376072,525.0916714331834,left,1,1,0.6719808595953509,M28B11,2021_Oct_13_1310,t1_Paradigm,2021.1.4,59.988357127968534,
D,left,Distractor,0,63,63,63,526.5898414178519,528.5918015184579,left,1,1,0.8519726279191673,M28B11,2021_Oct_13_1310,t1_Paradigm,2021.1.4,59.988357127968534,
R,left,Distractor,0,0,0,0,551.0607076187152,553.0584382649977,None,0,1,,M28B11,2021_Oct_13_1310,t1_Paradigm,2021.1.4,59.988357127968534,
V,left,Distractor,0,1,1,1,554.5563583448529,556.5566332722083,left,1,1,0.9351755285169929,M28B11,2021_Oct_13_1310,t1_Paradigm,2021.1.4,59.988357127968534,
N,left,Pretarget,0,2,2,2,558.0563636380248,560.0566780241206,left,1,1,0.587096635485068,M28B11,2021_Oct_13_1310,t1_Paradigm,2021.1.4,59.988357127968534,
N,right,Target,0,3,3,3,561.556485703215,563.5565110465977,right,1,1,0.7993492209352553,M28B11,2021_Oct_13_1310,t1_Paradigm,2021.1.4,59.988357127968534,
S,left,Distractor,0,4,4,4,565.0567890215898,567.0569304953096,left,1,1,0.7226810582214966,M28B11,2021_Oct_13_1310,t1_Paradigm,2021.1.4,59.988357127968534,
N,left,Lure,0,5,5,5,568.5564382245066,570.5568077885546,left,1,1,1.1589192434912547,M28B11,2021_Oct_13_1310,t1_Paradigm,2021.1.4,59.988357127968534,
Z,left,Distractor,0,6,6,6,572.0564351769863,574.0696137254126,left,1,1,1.2141533376416191,M28B11,2021_Oct_13_1310,t1_Paradigm,2021.1.4,59.988357127968534,
L,left,Pretarget,0,7,7,7,575.5565678286366,577.5567917483859,left,1,1,0.9269652414368466,M28B11,2021_Oct_13_1310,t1_Paradigm,2021.1.4,59.988357127968534,
L,right,Target,0,8,8,8,579.0565853122389,581.0564534626901,right,1,1,0.4833482881076634,M28B11,2021_Oct_13_1310,t1_Paradigm,2021.1.4,59.988357127968534,
H,left,Distractor,0,9,9,9,582.5565078386571,584.5565703950124,left,1,1,0.7431934626074508,M28B11,2021_Oct_13_1310,t1_Paradigm,2021.1.4,59.988357127968534,
L,left,Lure,0,10,10,10,586.0565105654532,588.0566834777128,left,1,1,0.7793565159663558,M28B11,2021_Oct_13_1310,t1_Paradigm,2021.1.4,59.988357127968534,
X,left,Pretarget,0,11,11,11,589.5564286004519,591.5588391071651,left,1,1,0.6367686635348946,M28B11,2021_Oct_13_1310,t1_Paradigm,2021.1.4,59.988357127968534,
X,right,Target,0,12,12,12,593.05726637505,595.0569356281776,right,1,1,0.7547692839289084,M28B11,2021_Oct_13_1310,t1_Paradigm,2021.1.4,59.988357127968534,
X,right,Target,0,13,13,13,596.557197563001,598.5569393173791,right,1,1,0.42278503021225333,M28B11,2021_Oct_13_1310,t1_Paradigm,2021.1.4,59.988357127968534,
R,left,Distractor,0,14,14,14,600.0567970416741,602.0568156482186,left,1,1,0.6189833974931389,M28B11,2021_Oct_13_1310,t1_Paradigm,2021.1.4,59.988357127968534,
T,left,Distractor,0,15,15,15,603.5565482596867,605.5568209413905,left,1,1,0.9908969209063798,M28B11,2021_Oct_13_1310,t1_Paradigm,2021.1.4,59.988357127968534,
V,left,Pretarget,0,16,16,16,607.0572743951343,609.0696300863056,left,1,1,0.6780129007529467,M28B11,2021_Oct_13_1310,t1_Paradigm,2021.1.4,59.988357127968534,
V,right,Target,0,17,17,17,610.5561716380762,612.5564189763973,right,1,1,1.3033568407408893,M28B11,2021_Oct_13_1310,t1_Paradigm,2021.1.4,59.988357127968534,
N,left,Distractor,0,18,18,18,614.0565644601593,616.0567534125876,left,1,1,0.7948711450444534,M28B11,2021_Oct_13_1310,t1_Paradigm,2021.1.4,59.988357127968534,
B,left,Distractor,0,19,19,19,617.5564160891809,619.5582988765091,left,1,1,0.6053505933377892,M28B11,2021_Oct_13_1310,t1_Paradigm,2021.1.4,59.988357127968534,
V,left,Lure,0,20,20,20,621.0564916380681,623.073199971579,left,1,1,0.6425302684074268,M28B11,2021_Oct_13_1310,t1_Paradigm,2021.1.4,59.988357127968534,
P,left,Distractor,0,21,21,21,624.5566384050762,626.557544350042,left,1,1,1.04633857391309,M28B11,2021_Oct_13_1310,t1_Paradigm,2021.1.4,59.988357127968534,
K,left,Pretarget,0,22,22,22,628.0566623047926,630.0586214429932,left,1,1,0.6972302271751687,M28B11,2021_Oct_13_1310,t1_Paradigm,2021.1.4,59.988357127968534,
K,right,Target,0,23,23,23,631.5566685604863,633.5566605404019,right,1,1,0.6390072202775627,M28B11,2021_Oct_13_1310,t1_Paradigm,2021.1.4,59.988357127968534,
J,left,Pretarget,0,24,24,24,635.0566436982481,637.0584902348928,left,1,1,0.6572887670481578,M28B11,2021_Oct_13_1310,t1_Paradigm,2021.1.4,59.988357127968534,
J,right,Target,0,25,25,25,638.556732079247,640.5570567309624,right,1,1,0.7586984675144777,M28B11,2021_Oct_13_1310,t1_Paradigm,2021.1.4,59.988357127968534,
H,left,Distractor,0,26,26,26,642.0572034978541,644.058466816321,left,1,1,0.7134448463330045,M28B11,2021_Oct_13_1310,t1_Paradigm,2021.1.4,59.988357127968534,
J,left,Lure,0,27,27,27,645.5563307558186,647.5564484902425,left,1,1,1.167239886475727,M28B11,2021_Oct_13_1310,t1_Paradigm,2021.1.4,59.988357127968534,
V,left,Distractor,0,28,28,28,649.0563453523209,651.0564181744121,left,1,1,0.9154218209441751,M28B11,2021_Oct_13_1310,t1_Paradigm,2021.1.4,59.988357127968534,
Z,left,Pretarget,0,29,29,29,652.5564494526479,654.5567426657071,left,1,1,0.6631578406086192,M28B11,2021_Oct_13_1310,t1_Paradigm,2021.1.4,59.988357127968534,
Z,right,Target,0,30,30,30,656.0563883398427,658.0569815027993,right,1,1,0.6348104877397418,M28B11,2021_Oct_13_1310,t1_Paradigm,2021.1.4,59.988357127968534,
T,left,Distractor,0,31,31,31,659.5568661744474,661.5569829464657,left,1,1,0.7187095287954435,M28B11,2021_Oct_13_1310,t1_Paradigm,2021.1.4,59.988357127968534,
Z,left,Lure,0,32,32,32,663.0570844803005,665.0590108965989,left,1,1,0.8007729405071586,M28B11,2021_Oct_13_1310,t1_Paradigm,2021.1.4,59.988357127968534,
F,left,Distractor,0,33,33,33,666.5564574727323,668.5567728211172,left,1,1,0.9190038967644796,M28B11,2021_Oct_13_1310,t1_Paradigm,2021.1.4,59.988357127968534,
Y,left,Pretarget,0,34,34,34,670.0563501643483,672.0581110469066,left,1,1,0.7137579490663484,M28B11,2021_Oct_13_1310,t1_Paradigm,2021.1.4,59.988357127968534,
Y,right,Target,0,35,35,35,673.5573002196616,675.5569736431353,right,1,1,0.8309870406519622,M28B11,2021_Oct_13_1310,t1_Paradigm,2021.1.4,59.988357127968534,
Y,right,Target,0,36,36,36,677.0573561995989,679.0571274678223,right,1,1,0.5467888194834813,M28B11,2021_Oct_13_1310,t1_Paradigm,2021.1.4,59.988357127968534,
W,left,Distractor,0,37,37,37,680.5572921995772,682.5568109964952,left,1,1,0.5508992563700303,M28B11,2021_Oct_13_1310,t1_Paradigm,2021.1.4,59.988357127968534,
Q,left,Distractor,0,38,38,38,684.056543287239,686.0571034075692,left,1,1,0.9545571055496112,M28B11,2021_Oct_13_1310,t1_Paradigm,2021.1.4,59.988357127968534,
P,left,Pretarget,0,39,39,39,687.5565315779531,689.5567243800033,left,1,1,0.6070136311464012,M28B11,2021_Oct_13_1310,t1_Paradigm,2021.1.4,59.988357127968534,
P,right,Target,0,40,40,40,691.0573799390113,693.0569394777995,right,1,1,0.5470085690030828,M28B11,2021_Oct_13_1310,t1_Paradigm,2021.1.4,59.988357127968534,
J,left,Distractor,0,41,41,41,694.5573021444725,696.5588551472174,left,1,1,1.0130502276588231,M28B11,2021_Oct_13_1310,t1_Paradigm,2021.1.4,59.988357127968534,
P,left,Lure,0,42,42,42,698.0566260541091,700.0587497637607,left,1,1,0.8890162829775363,M28B11,2021_Oct_13_1310,t1_Paradigm,2021.1.4,59.988357127968534,
L,left,Distractor,0,43,43,43,701.5567891820101,703.5579559390899,left,1,1,0.7497272380860522,M28B11,2021_Oct_13_1310,t1_Paradigm,2021.1.4,59.988357127968534,
Z,left,Distractor,0,44,44,44,705.0564082295168,707.0584373025922,left,1,1,0.625371849630028,M28B11,2021_Oct_13_1310,t1_Paradigm,2021.1.4,59.988357127968534,
F,left,Pretarget,0,45,45,45,708.5565376732266,710.5567984852241,left,1,1,0.5189595619449392,M28B11,2021_Oct_13_1310,t1_Paradigm,2021.1.4,59.988357127968534,
F,right,Target,0,46,46,46,712.0564682194963,714.0565028662095,right,1,1,0.6832804704317823,M28B11,2021_Oct_13_1310,t1_Paradigm,2021.1.4,59.988357127968534,
G,left,Pretarget,0,47,47,47,715.5565540341195,717.556637763395,left,1,1,0.6071079469984397,M28B11,2021_Oct_13_1310,t1_Paradigm,2021.1.4,59.988357127968534,
G,right,Target,0,48,48,48,719.0564858636353,721.0564855429111,right,1,1,0.6752533614635468,M28B11,2021_Oct_13_1310,t1_Paradigm,2021.1.4,59.988357127968534,
V,left,Distractor,0,49,49,49,722.5563050917117,724.569638908375,left,1,1,0.6664277761010453,M28B11,2021_Oct_13_1310,t1_Paradigm,2021.1.4,59.988357127968534,
G,left,Lure,0,50,50,50,726.0564916380681,728.0565718385624,left,1,1,1.0994560159742832,M28B11,2021_Oct_13_1310,t1_Paradigm,2021.1.4,59.988357127968534,
Q,left,Pretarget,0,51,51,51,729.5569999489235,731.5568815730512,left,1,1,0.7349475665250793,M28B11,2021_Oct_13_1310,t1_Paradigm,2021.1.4,59.988357127968534,
Q,right,Target,0,52,52,52,733.0565310966922,735.0565878787311,right,1,1,0.8030496726278216,M28B11,2021_Oct_13_1310,t1_Paradigm,2021.1.4,59.988357127968534,
Y,left,Distractor,0,53,53,53,736.5565200290876,738.556751648197,left,1,1,0.6311841413844377,M28B11,2021_Oct_13_1310,t1_Paradigm,2021.1.4,59.988357127968534,
V,left,Distractor,0,54,54,54,740.0569227960659,742.0568047409179,left,1,1,0.8269933757837862,M28B11,2021_Oct_13_1310,t1_Paradigm,2021.1.4,59.988357127968534,
B,left,Distractor,0,55,55,55,743.5565700741718,745.5569563198369,left,1,1,0.6706938018323854,M28B11,2021_Oct_13_1310,t1_Paradigm,2021.1.4,59.988357127968534,
J,left,Pretarget,0,56,56,56,747.0566417734371,749.0567854928086,left,1,1,0.7710442139068618,M28B11,2021_Oct_13_1310,t1_Paradigm,2021.1.4,59.988357127968534,
J,right,Target,0,57,57,57,750.5565412020078,752.5564529814292,right,1,1,0.9033336787251756,M28B11,2021_Oct_13_1310,t1_Paradigm,2021.1.4,59.988357127968534,
H,left,Distractor,0,58,58,58,754.0573552371934,756.058342666016,left,1,1,0.649452535319142,M28B11,2021_Oct_13_1310,t1_Paradigm,2021.1.4,59.988357127968534,
J,left,Lure,0,59,59,59,757.5572350968141,759.5696857455187,left,1,1,0.9300632269587368,M28B11,2021_Oct_13_1310,t1_Paradigm,2021.1.4,59.988357127968534,
D,left,Pretarget,0,60,60,60,761.0564601995284,763.056709783501,left,1,1,0.5631628772243857,M28B11,2021_Oct_13_1310,t1_Paradigm,2021.1.4,59.988357127968534,
D,right,Target,0,61,61,61,764.5564892321127,766.5566560490988,right,1,1,0.7271421316545457,M28B11,2021_Oct_13_1310,t1_Paradigm,2021.1.4,59.988357127968534,
R,left,Distractor,0,62,62,62,768.0565827458631,770.0567675278289,left,1,1,0.6350514100631699,M28B11,2021_Oct_13_1310,t1_Paradigm,2021.1.4,59.988357127968534,
F,left,Distractor,0,63,63,63,771.556547938846,773.5696867079241,left,1,1,0.5301125661935657,M28B11,2021_Oct_13_1310,t1_Paradigm,2021.1.4,59.988357127968534,
F,left,Distractor,0,0,0,0,929.9434127628338,931.940192872542,None,0,2,,M28B11,2021_Oct_13_1310,t1_Paradigm,2021.1.4,59.988357127968534,
N,left,Pretarget,0,1,1,1,933.4401352886343,935.440443900181,None,0,2,,M28B11,2021_Oct_13_1310,t1_Paradigm,2021.1.4,59.988357127968534,
V,left,Distractor,0,2,2,2,936.9400382459862,938.9402721106308,left,1,2,0.6636724071577191,M28B11,2021_Oct_13_1310,t1_Paradigm,2021.1.4,59.988357127968534,
N,right,Target,0,3,3,3,940.4399075191468,942.4403152585728,None,0,2,,M28B11,2021_Oct_13_1310,t1_Paradigm,2021.1.4,59.988357127968534,
N,left,Lure,0,4,4,4,943.9398704664782,945.9398544264259,left,1,2,1.3118282605428249,M28B11,2021_Oct_13_1310,t1_Paradigm,2021.1.4,59.988357127968534,
X,left,Distractor,0,5,5,5,947.439869664493,949.4402889527846,None,0,2,,M28B11,2021_Oct_13_1310,t1_Paradigm,2021.1.4,59.988357127968534,
G,left,Pretarget,0,6,6,6,950.9399641407654,952.9403722009156,left,1,2,1.0316185714909807,M28B11,2021_Oct_13_1310,t1_Paradigm,2021.1.4,59.988357127968534,
H,left,Pretarget,0,7,7,7,954.4397650830215,956.4403800605796,None,0,2,,M28B11,2021_Oct_13_1310,t1_Paradigm,2021.1.4,59.988357127968534,
G,right,Target,0,8,8,8,957.939906396321,959.9401964014396,right,1,2,0.575580804143101,M28B11,2021_Oct_13_1310,t1_Paradigm,2021.1.4,59.988357127968534,
H,right,Target,0,9,9,9,961.4398754389258,963.4401702560717,None,0,2,,M28B11,2021_Oct_13_1310,t1_Paradigm,2021.1.4,59.988357127968534,
T,left,Pretarget,0,10,10,10,964.939949704567,966.9405236195307,left,1,2,0.9671617391286418,M28B11,2021_Oct_13_1310,t1_Paradigm,2021.1.4,59.988357127968534,
K,left,Distractor,0,11,11,11,968.4399604514474,970.4405407824088,None,0,2,,M28B11,2021_Oct_13_1310,t1_Paradigm,2021.1.4,59.988357127968534,
T,right,Target,0,12,12,12,971.9398720705649,973.941779238754,right,1,2,1.0219585800077766,M28B11,2021_Oct_13_1310,t1_Paradigm,2021.1.4,59.988357127968534,
T,left,Lure,0,13,13,13,975.4397621958051,977.4399011031492,None,0,2,,M28B11,2021_Oct_13_1310,t1_Paradigm,2021.1.4,59.988357127968534,
J,left,Distractor,0,14,14,14,978.9398531431798,980.9401684915647,left,1,2,0.7755813173716888,M28B11,2021_Oct_13_1310,t1_Paradigm,2021.1.4,59.988357127968534,
Q,left,Pretarget,0,15,15,15,982.4398792885477,984.4400759402197,None,0,2,,M28B11,2021_Oct_13_1310,t1_Paradigm,2021.1.4,59.988357127968534,
M,left,Distractor,0,16,16,16,985.9398765617516,987.9417160407174,left,1,2,0.7180932681076229,M28B11,2021_Oct_13_1310,t1_Paradigm,2021.1.4,59.988357127968534,
Q,right,Target,0,17,17,17,989.439667879953,991.4530337768374,None,0,2,,M28B11,2021_Oct_13_1310,t1_Paradigm,2021.1.4,59.988357127968534,
R,left,Distractor,0,18,18,18,992.9396564915078,994.9400501156924,left,1,2,0.91961919516325,M28B11,2021_Oct_13_1310,t1_Paradigm,2021.1.4,59.988357127968534,
W,left,Distractor,0,19,19,19,996.4398568323813,998.4399944564793,None,0,2,,M28B11,2021_Oct_13_1310,t1_Paradigm,2021.1.4,59.988357127968534,
C,left,Pretarget,0,20,20,20,999.939732521656,1001.9417025670409,left,1,2,0.8303829702781513,M28B11,2021_Oct_13_1310,t1_Paradigm,2021.1.4,59.988357127968534,
T,left,Distractor,0,21,21,21,1003.4397721407004,1005.4401070580352,None,0,2,,M28B11,2021_Oct_13_1310,t1_Paradigm,2021.1.4,59.988357127968534,
C,right,Target,0,22,22,22,1006.9405688525876,1008.9414940456627,right,1,2,0.5983946423511952,M28B11,2021_Oct_13_1310,t1_Paradigm,2021.1.4,59.988357127968534,
F,left,Pretarget,0,23,23,23,1010.4397872183472,1012.4407861960353,None,0,2,,M28B11,2021_Oct_13_1310,t1_Paradigm,2021.1.4,59.988357127968534,
C,right,Target,0,24,24,24,1013.9399981456809,1015.940559228533,right,1,2,0.8794265470933169,M28B11,2021_Oct_13_1310,t1_Paradigm,2021.1.4,59.988357127968534,
F,right,Target,0,25,25,25,1017.4399675091263,1019.4409174040193,None,0,2,,M28B11,2021_Oct_13_1310,t1_Paradigm,2021.1.4,59.988357127968534,
H,left,Distractor,0,26,26,26,1020.9400895743165,1022.940454967902,left,1,2,0.9194385835435241,M28B11,2021_Oct_13_1310,t1_Paradigm,2021.1.4,59.988357127968534,
H,left,Lure,0,27,27,27,1024.4404320304748,1026.440227679559,None,0,2,,M28B11,2021_Oct_13_1310,t1_Paradigm,2021.1.4,59.988357127968534,
P,left,Distractor,0,28,28,28,1027.9406683011912,1029.9417789179133,left,1,2,1.374048461089842,M28B11,2021_Oct_13_1310,t1_Paradigm,2021.1.4,59.988357127968534,
G,left,Pretarget,0,29,29,29,1031.4397272283677,1033.4399014238734,None,0,2,,M28B11,2021_Oct_13_1310,t1_Paradigm,2021.1.4,59.988357127968534,
K,left,Distractor,0,30,30,30,1034.939831007854,1036.9396584163187,left,1,2,0.6642905927728862,M28B11,2021_Oct_13_1310,t1_Paradigm,2021.1.4,59.988357127968534,
G,right,Target,0,31,31,31,1038.4398196194088,1040.4414839404635,None,0,2,,M28B11,2021_Oct_13_1310,t1_Paradigm,2021.1.4,59.988357127968534,
M,left,Pretarget,0,32,32,32,1041.9396439802367,1043.93996317836,left,1,2,0.9278856226010248,M28B11,2021_Oct_13_1310,t1_Paradigm,2021.1.4,59.988357127968534,
B,left,Distractor,0,33,33,33,1045.4397407020442,1047.4396932233358,None,0,2,,M28B11,2021_Oct_13_1310,t1_Paradigm,2021.1.4,59.988357127968534,
M,right,Target,0,34,34,34,1048.9398303662892,1050.9400218850933,right,1,2,1.1278296746313572,M28B11,2021_Oct_13_1310,t1_Paradigm,2021.1.4,59.988357127968534,
M,left,Lure,0,35,35,35,1052.4398565116571,1054.4398225066252,None,0,2,,M28B11,2021_Oct_13_1310,t1_Paradigm,2021.1.4,59.988357127968534,
T,left,Distractor,0,36,36,36,1055.9398470479064,1057.9420827174326,left,1,2,0.49402297649066895,M28B11,2021_Oct_13_1310,t1_Paradigm,2021.1.4,59.988357127968534,
F,left,Distractor,0,37,37,37,1059.439818015322,1061.4397362108575,None,0,2,,M28B11,2021_Oct_13_1310,t1_Paradigm,2021.1.4,59.988357127968534,
X,left,Distractor,0,38,38,38,1062.9397228976013,1064.9400574940955,left,1,2,0.7277975302422419,M28B11,2021_Oct_13_1310,t1_Paradigm,2021.1.4,59.988357127968534,
C,left,Distractor,0,39,39,39,1066.4398751180852,1068.44007754419,None,0,2,,M28B11,2021_Oct_13_1310,t1_Paradigm,2021.1.4,59.988357127968534,
R,left,Distractor,0,40,40,40,1069.939724180731,1071.9401768324897,left,1,2,1.0715327633079141,M28B11,2021_Oct_13_1310,t1_Paradigm,2021.1.4,59.988357127968534,
B,left,Pretarget,0,41,41,41,1073.4567717624595,1075.441530777607,None,0,2,,M28B11,2021_Oct_13_1310,t1_Paradigm,2021.1.4,59.988357127968534,
H,left,Distractor,0,42,42,42,1076.9398489727173,1078.940089253476,left,1,2,0.807657994213514,M28B11,2021_Oct_13_1310,t1_Paradigm,2021.1.4,59.988357127968534,
B,right,Target,0,43,43,43,1080.4397907472448,1082.4401269477094,None,0,2,,M28B11,2021_Oct_13_1310,t1_Paradigm,2021.1.4,59.988357127968534,
W,left,Pretarget,0,44,44,44,1083.9397280303529,1085.9404572134372,left,1,2,0.7673777672462165,M28B11,2021_Oct_13_1310,t1_Paradigm,2021.1.4,59.988357127968534,
L,left,Pretarget,0,45,45,45,1087.4396839201218,1089.4400720905978,None,0,2,,M28B11,2021_Oct_13_1310,t1_Paradigm,2021.1.4,59.988357127968534,
W,right,Target,0,46,46,46,1090.940643920214,1092.941505915369,right,1,2,0.8222182370955124,M28B11,2021_Oct_13_1310,t1_Paradigm,2021.1.4,59.988357127968534,
L,right,Target,0,47,47,47,1094.4396601807093,1096.4402081107255,None,0,2,,M28B11,2021_Oct_13_1310,t1_Paradigm,2021.1.4,59.988357127968534,
W,right,Target,0,48,48,48,1097.9398922810797,1099.940067759715,right,1,2,0.9438448832370341,M28B11,2021_Oct_13_1310,t1_Paradigm,2021.1.4,59.988357127968534,
X,left,Distractor,0,49,49,49,1101.4397602709942,1103.44007754419,None,0,2,,M28B11,2021_Oct_13_1310,t1_Paradigm,2021.1.4,59.988357127968534,
R,left,Distractor,0,50,50,50,1104.9397629977902,1106.942165484419,left,1,2,0.6617623517522588,M28B11,2021_Oct_13_1310,t1_Paradigm,2021.1.4,59.988357127968534,
V,left,Pretarget,0,51,51,51,1108.4397034890717,1110.440184371313,None,0,2,,M28B11,2021_Oct_13_1310,t1_Paradigm,2021.1.4,59.988357127968534,
Z,left,Distractor,0,52,52,52,1111.9397780755535,1113.9400456243893,left,1,2,0.9116742113837972,M28B11,2021_Oct_13_1310,t1_Paradigm,2021.1.4,59.988357127968534,
V,right,Target,0,53,53,53,1115.4398305267096,1117.4400101758074,None,0,2,,M28B11,2021_Oct_13_1310,t1_Paradigm,2021.1.4,59.988357127968534,
V,left,Lure,0,54,54,54,1118.9397796795238,1120.9398387070978,left,1,2,1.383968302165158,M28B11,2021_Oct_13_1310,t1_Paradigm,2021.1.4,59.988357127968534,
N,left,Distractor,0,55,55,55,1122.4397532133153,1124.4416052036686,None,0,2,,M28B11,2021_Oct_13_1310,t1_Paradigm,2021.1.4,59.988357127968534,
B,left,Distractor,0,56,56,56,1125.9397434288403,1127.9398290830432,left,1,2,0.7999988450901583,M28B11,2021_Oct_13_1310,t1_Paradigm,2021.1.4,59.988357127968534,
V,left,Lure,0,57,57,57,1129.4397179251537,1131.4399890028872,None,0,2,,M28B11,2021_Oct_13_1310,t1_Paradigm,2021.1.4,59.988357127968534,
J,left,Distractor,0,58,58,58,1132.9397360504372,1134.9400626269635,left,1,2,1.0319242958212271,M28B11,2021_Oct_13_1310,t1_Paradigm,2021.1.4,59.988357127968534,
H,left,Distractor,0,59,59,59,1136.4398475291673,1138.4415625369875,None,0,2,,M28B11,2021_Oct_13_1310,t1_Paradigm,2021.1.4,59.988357127968534,
X,left,Pretarget,0,60,60,60,1139.9397440705216,1141.9412957900204,left,1,2,0.734497802099213,M28B11,2021_Oct_13_1310,t1_Paradigm,2021.1.4,59.988357127968534,
P,left,Distractor,0,61,61,61,1143.4398228273494,1145.4397878600284,None,0,2,,M28B11,2021_Oct_13_1310,t1_Paradigm,2021.1.4,59.988357127968534,
X,right,Target,0,62,62,62,1146.939820421394,1148.9399144164054,right,1,2,0.8078418138902634,M28B11,2021_Oct_13_1310,t1_Paradigm,2021.1.4,59.988357127968534,
Q,left,Distractor,0,63,63,63,1150.4397493636934,1152.4398885918781,None,0,2,,M28B11,2021_Oct_13_1310,t1_Paradigm,2021.1.4,59.988357127968534,
B,left,Pretarget,0,0,0,0,1192.6950083520496,1194.7030441227835,None,0,2,,M28B11,2021_Oct_13_1310,t1_Paradigm,2021.1.4,59.988357127968534,
F,left,Distractor,0,1,1,1,1196.1897149577271,1198.1901024866384,None,0,2,,M28B11,2021_Oct_13_1310,t1_Paradigm,2021.1.4,59.988357127968534,
B,right,Target,0,2,2,2,1199.6897622760152,1201.690095910104,right,1,2,0.8896861176472157,M28B11,2021_Oct_13_1310,t1_Paradigm,2021.1.4,59.988357127968534,
V,left,Distractor,0,3,3,3,1203.1898827372352,1205.1902048224583,None,0,2,,M28B11,2021_Oct_13_1310,t1_Paradigm,2021.1.4,59.988357127968534,
G,left,Pretarget,0,4,4,4,1206.6898841807852,1208.6922051836737,None,0,2,,M28B11,2021_Oct_13_1310,t1_Paradigm,2021.1.4,59.988357127968534,
B,left,Lure,0,5,5,5,1210.1898144063307,1212.1901480405359,None,0,2,,M28B11,2021_Oct_13_1310,t1_Paradigm,2021.1.4,59.988357127968534,
G,right,Target,0,6,6,6,1213.6897311581997,1215.6900410529925,None,0,2,,M28B11,2021_Oct_13_1310,t1_Paradigm,2021.1.4,59.988357127968534,
Y,left,Pretarget,0,7,7,7,1217.190071689547,1219.1898496946087,None,0,2,,M28B11,2021_Oct_13_1310,t1_Paradigm,2021.1.4,59.988357127968534,
P,left,Distractor,0,8,8,8,1220.6898694238625,1222.6901048925938,None,0,2,,M28B11,2021_Oct_13_1310,t1_Paradigm,2021.1.4,59.988357127968534,
Y,right,Target,0,9,9,9,1224.1906873087864,1226.2029820475727,right,1,2,1.2568527329713106,M28B11,2021_Oct_13_1310,t1_Paradigm,2021.1.4,59.988357127968534,
X,left,Distractor,0,10,10,10,1227.6898306068033,1229.6898059051018,None,0,2,,M28B11,2021_Oct_13_1310,t1_Paradigm,2021.1.4,59.988357127968534,
Y,right,Target,0,11,11,11,1231.1896925015608,1233.190064311144,None,0,2,,M28B11,2021_Oct_13_1310,t1_Paradigm,2021.1.4,59.988357127968534,
N,left,Distractor,0,12,12,12,1234.6897619551746,1236.6899682309013,left,1,2,0.9300603396259248,M28B11,2021_Oct_13_1310,t1_Paradigm,2021.1.4,59.988357127968534,
Y,right,Target,0,13,13,13,1238.1897563411621,1240.2065599529305,None,0,2,,M28B11,2021_Oct_13_1310,t1_Paradigm,2021.1.4,59.988357127968534,
Y,left,Lure,0,14,14,14,1241.6899938951246,1243.6900490730768,None,0,2,,M28B11,2021_Oct_13_1310,t1_Paradigm,2021.1.4,59.988357127968534,
K,left,Distractor,0,15,15,15,1245.1900007923832,1247.1916949480074,left,1,2,1.292227896512486,M28B11,2021_Oct_13_1310,t1_Paradigm,2021.1.4,59.988357127968534,
T,left,Pretarget,0,16,16,16,1248.6901020053774,1250.6917499655392,None,0,2,,M28B11,2021_Oct_13_1310,t1_Paradigm,2021.1.4,59.988357127968534,
J,left,Distractor,0,17,17,17,1252.1899449727498,1254.1916702461895,None,0,2,,M28B11,2021_Oct_13_1310,t1_Paradigm,2021.1.4,59.988357127968534,
T,right,Target,0,18,18,18,1255.6897282709833,1257.6916415344458,None,0,2,,M28B11,2021_Oct_13_1310,t1_Paradigm,2021.1.4,59.988357127968534,
S,left,Pretarget,0,19,19,19,1259.1898185767932,1261.190046667005,None,0,2,,M28B11,2021_Oct_13_1310,t1_Paradigm,2021.1.4,59.988357127968534,
R,left,Distractor,0,20,20,20,1262.689846646972,1264.6899460955756,None,0,2,,M28B11,2021_Oct_13_1310,t1_Paradigm,2021.1.4,59.988357127968534,
S,right,Target,0,21,21,21,1266.1896540053422,1268.1900331933284,None,0,2,,M28B11,2021_Oct_13_1310,t1_Paradigm,2021.1.4,59.988357127968534,
Q,left,Distractor,0,22,22,22,1269.6896811131155,1271.6897324414458,None,0,2,,M28B11,2021_Oct_13_1310,t1_Paradigm,2021.1.4,59.988357127968534,
D,left,Distractor,0,23,23,23,1273.1896883310983,1275.1916429781122,None,0,2,,M28B11,2021_Oct_13_1310,t1_Paradigm,2021.1.4,59.988357127968534,
F,left,Distractor,0,24,24,24,1276.6897362910677,1278.6900458650198,left,1,2,1.3458775491453707,M28B11,2021_Oct_13_1310,t1_Paradigm,2021.1.4,59.988357127968534,
Z,left,Distractor,0,25,25,25,1280.1897139953217,1282.19015734375,None,0,2,,M28B11,2021_Oct_13_1310,t1_Paradigm,2021.1.4,59.988357127968534,
P,left,Distractor,0,26,26,26,1283.6899156194413,1285.69071602053,None,0,2,,M28B11,2021_Oct_13_1310,t1_Paradigm,2021.1.4,59.988357127968534,
H,left,Distractor,0,27,27,27,1287.1897431883262,1289.1902317698114,None,0,2,,M28B11,2021_Oct_13_1310,t1_Paradigm,2021.1.4,59.988357127968534,
Z,left,Pretarget,0,28,28,28,1290.690205945284,1292.690522576915,None,0,2,,M28B11,2021_Oct_13_1310,t1_Paradigm,2021.1.4,59.988357127968534,
J,left,Pretarget,0,29,29,29,1294.1898618850391,1296.1902603212511,None,0,2,,M28B11,2021_Oct_13_1310,t1_Paradigm,2021.1.4,59.988357127968534,
Z,right,Target,0,30,30,30,1297.6898729527602,1299.690478626988,None,0,2,,M28B11,2021_Oct_13_1310,t1_Paradigm,2021.1.4,59.988357127968534,
J,right,Target,0,31,31,31,1301.1898756795563,1303.1905076595722,None,0,2,,M28B11,2021_Oct_13_1310,t1_Paradigm,2021.1.4,59.988357127968534,
V,left,Pretarget,0,32,32,32,1304.6898626870243,1306.6904151082272,None,0,2,,M28B11,2021_Oct_13_1310,t1_Paradigm,2021.1.4,59.988357127968534,
Z,left,Lure,0,33,33,33,1308.1906042209594,1310.1903017046861,left,1,2,1.0136777164880186,M28B11,2021_Oct_13_1310,t1_Paradigm,2021.1.4,59.988357127968534,
V,right,Target,0,34,34,34,1311.6900041607441,1313.690476702177,None,0,2,,M28B11,2021_Oct_13_1310,t1_Paradigm,2021.1.4,59.988357127968534,
X,left,Distractor,0,35,35,35,1315.1898570730118,1317.1902978550643,None,0,2,,M28B11,2021_Oct_13_1310,t1_Paradigm,2021.1.4,59.988357127968534,
S,left,Distractor,0,36,36,36,1318.6897994891042,1320.6902158901794,None,0,2,,M28B11,2021_Oct_13_1310,t1_Paradigm,2021.1.4,59.988357127968534,
Q,left,Distractor,0,37,37,37,1322.1898352585267,1324.191825835267,None,0,2,,M28B11,2021_Oct_13_1310,t1_Paradigm,2021.1.4,59.988357127968534,
P,left,Distractor,0,38,38,38,1325.6898508174345,1327.6896102158353,None,0,2,,M28B11,2021_Oct_13_1310,t1_Paradigm,2021.1.4,59.988357127968534,
S,left,Lure,0,39,39,39,1329.1898763211211,1331.189635077957,left,1,2,0.9901228253729641,M28B11,2021_Oct_13_1310,t1_Paradigm,2021.1.4,59.988357127968534,
K,left,Pretarget,0,40,40,40,1332.6896929828217,1334.6900943061337,None,0,2,,M28B11,2021_Oct_13_1310,t1_Paradigm,2021.1.4,59.988357127968534,
L,left,Distractor,0,41,41,41,1336.1898163311416,1338.1901230178773,None,0,2,,M28B11,2021_Oct_13_1310,t1_Paradigm,2021.1.4,59.988357127968534,
K,right,Target,0,42,42,42,1339.6895033887122,1341.6917246221565,right,1,2,1.2720638832543045,M28B11,2021_Oct_13_1310,t1_Paradigm,2021.1.4,59.988357127968534,
B,left,Distractor,0,43,43,43,1343.189688651939,1345.1900482710917,None,0,2,,M28B11,2021_Oct_13_1310,t1_Paradigm,2021.1.4,59.988357127968534,
N,left,Distractor,0,44,44,44,1346.6897180053638,1348.6900076896418,None,0,2,,M28B11,2021_Oct_13_1310,t1_Paradigm,2021.1.4,59.988357127968534,
S,left,Pretarget,0,45,45,45,1350.1899449727498,1352.1900219653035,left,1,2,1.2377358175581321,M28B11,2021_Oct_13_1310,t1_Paradigm,2021.1.4,59.988357127968534,
Z,left,Distractor,0,46,46,46,1353.6898719903547,1355.6899977447465,None,0,2,,M28B11,2021_Oct_13_1310,t1_Paradigm,2021.1.4,59.988357127968534,
S,right,Target,0,47,47,47,1357.1905503262533,1359.1916269379435,None,0,2,,M28B11,2021_Oct_13_1310,t1_Paradigm,2021.1.4,59.988357127968534,
C,left,Distractor,0,48,48,48,1360.6897375743138,1362.6901350480039,left,1,2,1.281822360935621,M28B11,2021_Oct_13_1310,t1_Paradigm,2021.1.4,59.988357127968534,
T,left,Pretarget,0,49,49,49,1364.1897515291348,1366.1901393788867,None,0,2,,M28B11,2021_Oct_13_1310,t1_Paradigm,2021.1.4,59.988357127968534,
S,left,Lure,0,50,50,50,1367.6898649326758,1369.690132481628,None,0,2,,M28B11,2021_Oct_13_1310,t1_Paradigm,2021.1.4,59.988357127968534,
T,right,Target,0,51,51,51,1371.1898772835266,1373.1901445116382,right,1,2,0.8461228023516014,M28B11,2021_Oct_13_1310,t1_Paradigm,2021.1.4,59.988357127968534,
N,left,Pretarget,0,52,52,52,1374.690358005464,1376.6902717096964,None,0,2,,M28B11,2021_Oct_13_1310,t1_Paradigm,2021.1.4,59.988357127968534,
B,left,Distractor,0,53,53,53,1378.1898856244516,1380.1903607322602,None,0,2,,M28B11,2021_Oct_13_1310,t1_Paradigm,2021.1.4,59.988357127968534,
N,right,Target,0,54,54,54,1381.6897276294185,1383.690222306177,right,1,2,0.7298112047137693,M28B11,2021_Oct_13_1310,t1_Paradigm,2021.1.4,59.988357127968534,
N,left,Lure,0,55,55,55,1385.1898314089049,1387.1897537747864,None,0,2,,M28B11,2021_Oct_13_1310,t1_Paradigm,2021.1.4,59.988357127968534,
X,left,Distractor,0,56,56,56,1388.689827719587,1390.7029751503142,None,0,2,,M28B11,2021_Oct_13_1310,t1_Paradigm,2021.1.4,59.988357127968534,
W,left,Distractor,0,57,57,57,1392.1898326920345,1394.1901320003672,left,1,2,0.8216196204302832,M28B11,2021_Oct_13_1310,t1_Paradigm,2021.1.4,59.988357127968534,
S,left,Distractor,0,58,58,58,1395.6897789577488,1397.6898139251862,None,0,2,,M28B11,2021_Oct_13_1310,t1_Paradigm,2021.1.4,59.988357127968534,
L,left,Distractor,0,59,59,59,1399.189915459021,1401.190037363791,None,0,2,,M28B11,2021_Oct_13_1310,t1_Paradigm,2021.1.4,59.988357127968534,
K,left,Pretarget,0,60,60,60,1402.6897632384207,1404.6902527823113,left,1,2,0.8336067100754008,M28B11,2021_Oct_13_1310,t1_Paradigm,2021.1.4,59.988357127968534,
V,left,Pretarget,0,61,61,61,1406.1897415842395,1408.1916407324607,None,0,2,,M28B11,2021_Oct_13_1310,t1_Paradigm,2021.1.4,59.988357127968534,
K,right,Target,0,62,62,62,1409.6897966018878,1411.6900089727715,None,0,2,,M28B11,2021_Oct_13_1310,t1_Paradigm,2021.1.4,59.988357127968534,
V,right,Target,0,63,63,63,1413.1898654138204,1415.1901576645905,None,0,2,,M28B11,2021_Oct_13_1310,t1_Paradigm,2021.1.4,59.988357127968534,
R,left,Distractor,0,0,0,0,1862.2462438088842,1864.2407016325742,left,1,3,1.0435036460403353,M28B11,2021_Oct_13_1310,t1_Paradigm,2021.1.4,59.988357127968534,
P,left,Lure,0,1,1,1,1865.7399418129353,1867.7403007904068,left,1,3,1.4477918712655082,M28B11,2021_Oct_13_1310,t1_Paradigm,2021.1.4,59.988357127968534,
V,left,Distractor,0,2,2,2,1869.2398944945307,1871.2408100636676,None,0,3,,M28B11,2021_Oct_13_1310,t1_Paradigm,2021.1.4,59.988357127968534,
P,left,Pretarget,0,3,3,3,1872.7398917677347,1874.740619026008,None,0,3,,M28B11,2021_Oct_13_1310,t1_Paradigm,2021.1.4,59.988357127968534,
Z,left,Distractor,0,4,4,4,1876.2400045297109,1878.2407943443395,None,0,3,,M28B11,2021_Oct_13_1310,t1_Paradigm,2021.1.4,59.988357127968534,
L,left,Pretarget,0,5,5,5,1879.7400143141858,1881.7408076575957,None,0,3,,M28B11,2021_Oct_13_1310,t1_Paradigm,2021.1.4,59.988357127968534,
P,right,Target,0,6,6,6,1883.2399846399203,1885.2401771212462,None,0,3,,M28B11,2021_Oct_13_1310,t1_Paradigm,2021.1.4,59.988357127968534,
S,left,Distractor,0,7,7,7,1886.7400181638077,1888.7404701738851,left,1,3,1.3114596590166911,M28B11,2021_Oct_13_1310,t1_Paradigm,2021.1.4,59.988357127968534,
L,right,Target,0,8,8,8,1890.2397308854852,1892.241154605057,None,0,3,,M28B11,2021_Oct_13_1310,t1_Paradigm,2021.1.4,59.988357127968534,
D,left,Distractor,0,9,9,9,1893.7397615221562,1895.7399623441743,None,0,3,,M28B11,2021_Oct_13_1310,t1_Paradigm,2021.1.4,59.988357127968534,
G,left,Distractor,0,10,10,10,1897.2398316173349,1899.2398168605287,left,1,3,1.1164501841412857,M28B11,2021_Oct_13_1310,t1_Paradigm,2021.1.4,59.988357127968534,
M,left,Pretarget,0,11,11,11,1900.739678113605,1902.7397358579328,left,1,3,0.8964537577703595,M28B11,2021_Oct_13_1310,t1_Paradigm,2021.1.4,59.988357127968534,
Y,left,Distractor,0,12,12,12,1904.239636248909,1906.2398707552347,None,0,3,,M28B11,2021_Oct_13_1310,t1_Paradigm,2021.1.4,59.988357127968534,
V,left,Distractor,0,13,13,13,1907.7405984946527,1909.7414730010787,right,0,3,1.3984313420951366,M28B11,2021_Oct_13_1310,t1_Paradigm,2021.1.4,59.988357127968534,
M,right,Target,0,14,14,14,1911.2397944043623,1913.2401229056995,None,0,3,,M28B11,2021_Oct_13_1310,t1_Paradigm,2021.1.4,59.988357127968534,
S,left,Pretarget,0,15,15,15,1914.739774674992,1916.7400897026528,None,0,3,,M28B11,2021_Oct_13_1310,t1_Paradigm,2021.1.4,59.988357127968534,
Q,left,Distractor,0,16,16,16,1918.239754304057,1920.240099166287,None,0,3,,M28B11,2021_Oct_13_1310,t1_Paradigm,2021.1.4,59.988357127968534,
R,left,Pretarget,0,17,17,17,1921.7397467652336,1923.7399905747734,None,0,3,,M28B11,2021_Oct_13_1310,t1_Paradigm,2021.1.4,59.988357127968534,
S,right,Target,0,18,18,18,1925.2402236375492,1927.2529556294903,right,1,3,1.4229916267795488,M28B11,2021_Oct_13_1310,t1_Paradigm,2021.1.4,59.988357127968534,
F,left,Distractor,0,19,19,19,1928.7396537326276,1930.7400431863498,None,0,3,,M28B11,2021_Oct_13_1310,t1_Paradigm,2021.1.4,59.988357127968534,
R,right,Target,0,20,20,20,1932.239720299025,1934.2416290713008,None,0,3,,M28B11,2021_Oct_13_1310,t1_Paradigm,2021.1.4,59.988357127968534,
P,left,Distractor,0,21,21,21,1935.7398327401606,1937.740019767778,None,0,3,,M28B11,2021_Oct_13_1310,t1_Paradigm,2021.1.4,59.988357127968534,
L,left,Distractor,0,22,22,22,1939.2398781336378,1941.2416948357131,left,1,3,1.3701657936908305,M28B11,2021_Oct_13_1310,t1_Paradigm,2021.1.4,59.988357127968534,
R,right,Target,0,23,23,23,1942.7396829256322,1944.740125311655,left,0,3,1.4238080679206178,M28B11,2021_Oct_13_1310,t1_Paradigm,2021.1.4,59.988357127968534,
H,left,Pretarget,0,24,24,24,1946.2398024244467,1948.2417567505036,None,0,3,,M28B11,2021_Oct_13_1310,t1_Paradigm,2021.1.4,59.988357127968534,
G,left,Pretarget,0,25,25,25,1949.739690624876,1951.7416812016163,None,0,3,,M28B11,2021_Oct_13_1310,t1_Paradigm,2021.1.4,59.988357127968534,
T,left,Distractor,0,26,26,26,1953.2398389958544,1955.2397764393827,None,0,3,,M28B11,2021_Oct_13_1310,t1_Paradigm,2021.1.4,59.988357127968534,
H,right,Target,0,27,27,27,1956.7397117977962,1958.7414823044091,None,0,3,,M28B11,2021_Oct_13_1310,t1_Paradigm,2021.1.4,59.988357127968534,
G,right,Target,0,28,28,28,1960.2397408303805,1962.2397119582165,None,0,3,,M28B11,2021_Oct_13_1310,t1_Paradigm,2021.1.4,59.988357127968534,
D,left,Distractor,0,29,29,29,1963.7397217426915,1965.7401910760673,None,0,3,,M28B11,2021_Oct_13_1310,t1_Paradigm,2021.1.4,59.988357127968534,
N,left,Pretarget,0,30,30,30,1967.2397565497085,1969.240004850435,None,0,3,,M28B11,2021_Oct_13_1310,t1_Paradigm,2021.1.4,59.988357127968534,
V,left,Distractor,0,31,31,31,1970.7398680284387,1972.7399899332086,left,1,3,1.3919209851883352,M28B11,2021_Oct_13_1310,t1_Paradigm,2021.1.4,59.988357127968534,
R,left,Distractor,0,32,32,32,1974.240616299212,1976.2414827855537,None,0,3,,M28B11,2021_Oct_13_1310,t1_Paradigm,2021.1.4,59.988357127968534,
N,right,Target,0,33,33,33,1977.7397073066095,1979.7400030860445,None,0,3,,M28B11,2021_Oct_13_1310,t1_Paradigm,2021.1.4,59.988357127968534,
Z,left,Distractor,0,34,34,34,1981.2398200684693,1983.2400808805833,None,0,3,,M28B11,2021_Oct_13_1310,t1_Paradigm,2021.1.4,59.988357127968534,
N,left,Lure,0,35,35,35,1984.7399293015478,1986.740098364302,None,0,3,,M28B11,2021_Oct_13_1310,t1_Paradigm,2021.1.4,59.988357127968534,
Y,left,Pretarget,0,36,36,36,1988.2397446800023,1990.2399118179455,None,0,3,,M28B11,2021_Oct_13_1310,t1_Paradigm,2021.1.4,59.988357127968534,
Y,left,Lure,0,37,37,37,1991.7404050510377,1993.7403729708167,None,0,3,,M28B11,2021_Oct_13_1310,t1_Paradigm,2021.1.4,59.988357127968534,
B,left,Distractor,0,38,38,38,1995.2401893116767,1997.2402614920866,None,0,3,,M28B11,2021_Oct_13_1310,t1_Paradigm,2021.1.4,59.988357127968534,
Y,right,Target,0,39,39,39,1998.7399488704978,2000.7401445597643,right,1,3,0.9917714272160083,M28B11,2021_Oct_13_1310,t1_Paradigm,2021.1.4,59.988357127968534,
J,left,Distractor,0,40,40,40,2002.2399066850776,2004.2405078681186,None,0,3,,M28B11,2021_Oct_13_1310,t1_Paradigm,2021.1.4,59.988357127968534,
X,left,Distractor,0,41,41,41,2005.739992820425,2007.7415265750606,None,0,3,,M28B11,2021_Oct_13_1310,t1_Paradigm,2021.1.4,59.988357127968534,
W,left,Pretarget,0,42,42,42,2009.2397427551914,2011.2397533416515,None,0,3,,M28B11,2021_Oct_13_1310,t1_Paradigm,2021.1.4,59.988357127968534,
S,left,Pretarget,0,43,43,43,2012.7397255923133,2014.7398125296459,None,0,3,,M28B11,2021_Oct_13_1310,t1_Paradigm,2021.1.4,59.988357127968534,
R,left,Distractor,0,44,44,44,2016.239818464499,2018.239893852966,None,0,3,,M28B11,2021_Oct_13_1310,t1_Paradigm,2021.1.4,59.988357127968534,
W,right,Target,0,45,45,45,2019.7398933718214,2021.740044469596,right,1,3,0.9359743256354704,M28B11,2021_Oct_13_1310,t1_Paradigm,2021.1.4,59.988357127968534,
S,right,Target,0,46,46,46,2023.2397045798134,2025.2416807204718,None,0,3,,M28B11,2021_Oct_13_1310,t1_Paradigm,2021.1.4,59.988357127968534,
D,left,Distractor,0,47,47,47,2026.7397419532062,2028.7397682589944,None,0,3,,M28B11,2021_Oct_13_1310,t1_Paradigm,2021.1.4,59.988357127968534,
T,left,Distractor,0,48,48,48,2030.2398252013372,2032.2399599382188,None,0,3,,M28B11,2021_Oct_13_1310,t1_Paradigm,2021.1.4,59.988357127968534,
S,right,Target,0,49,49,49,2033.7398381938692,2035.7397980935639,None,0,3,,M28B11,2021_Oct_13_1310,t1_Paradigm,2021.1.4,59.988357127968534,
K,left,Distractor,0,50,50,50,2037.2397045798134,2039.2398816625355,left,1,3,1.3400036635575816,M28B11,2021_Oct_13_1310,t1_Paradigm,2021.1.4,59.988357127968534,
S,left,Lure,0,51,51,51,2040.7397211011266,2042.741529462277,None,0,3,,M28B11,2021_Oct_13_1310,t1_Paradigm,2021.1.4,59.988357127968534,
T,left,Pretarget,0,52,52,52,2044.2398521486903,2046.2398691512644,right,0,3,1.252104862476699,M28B11,2021_Oct_13_1310,t1_Paradigm,2021.1.4,59.988357127968534,
V,left,Distractor,0,53,53,53,2047.739866424352,2049.7397098729853,left,1,3,1.2881934897741303,M28B11,2021_Oct_13_1310,t1_Paradigm,2021.1.4,59.988357127968534,
B,left,Distractor,0,54,54,54,2051.239726715139,2053.2397478880594,left,1,3,1.324140001903288,M28B11,2021_Oct_13_1310,t1_Paradigm,2021.1.4,59.988357127968534,
T,right,Target,0,55,55,55,2054.7398577627027,2056.7396293516504,right,1,3,1.3123296741396189,M28B11,2021_Oct_13_1310,t1_Paradigm,2021.1.4,59.988357127968534,
Y,left,Pretarget,0,56,56,56,2058.2405713868793,2060.241621372057,None,0,3,,M28B11,2021_Oct_13_1310,t1_Paradigm,2021.1.4,59.988357127968534,
T,left,Lure,0,57,57,57,2061.7396248604637,2063.740125311655,right,0,3,1.159875875338912,M28B11,2021_Oct_13_1310,t1_Paradigm,2021.1.4,59.988357127968534,
P,left,Pretarget,0,58,58,58,2065.2398672264535,2067.2401026950683,left,1,3,0.9717447172151878,M28B11,2021_Oct_13_1310,t1_Paradigm,2021.1.4,59.988357127968534,
Y,right,Target,0,59,59,59,2068.739824399352,2070.740289883106,left,0,3,1.0555613121250644,M28B11,2021_Oct_13_1310,t1_Paradigm,2021.1.4,59.988357127968534,
R,left,Distractor,0,60,60,60,2072.239721903112,2074.2564841313288,right,0,3,0.8674603095278144,M28B11,2021_Oct_13_1310,t1_Paradigm,2021.1.4,59.988357127968534,
P,right,Target,0,61,61,61,2075.73990171263,2077.7418098432245,right,1,3,1.1099799274234101,M28B11,2021_Oct_13_1310,t1_Paradigm,2021.1.4,59.988357127968534,
L,left,Distractor,0,62,62,62,2079.2399304243736,2081.2400529708248,left,1,3,0.6679336208617315,M28B11,2021_Oct_13_1310,t1_Paradigm,2021.1.4,59.988357127968534,
V,left,Distractor,0,63,63,63,2082.739758955664,2084.739950153744,left,1,3,0.7360469552222639,M28B11,2021_Oct_13_1310,t1_Paradigm,2021.1.4,59.988357127968534,
H,left,Lure,0,0,0,0,2096.375848802156,2098.375099729281,left,1,3,1.0688444421393797,M28B11,2021_Oct_13_1310,t1_Paradigm,2021.1.4,59.988357127968534,
B,left,Distractor,0,1,1,1,2099.8730560598196,2101.873055738979,left,1,3,1.1387937265681103,M28B11,2021_Oct_13_1310,t1_Paradigm,2021.1.4,59.988357127968534,
T,left,Distractor,0,2,2,2,2103.373216300388,2105.3729984757956,left,1,3,1.3833581367507577,M28B11,2021_Oct_13_1310,t1_Paradigm,2021.1.4,59.988357127968534,
R,left,Distractor,0,3,3,3,2106.872955969535,2108.87304707733,left,1,3,1.1470633619464934,M28B11,2021_Oct_13_1310,t1_Paradigm,2021.1.4,59.988357127968534,
H,left,Pretarget,0,4,4,4,2110.373147328035,2112.373058465775,None,0,3,,M28B11,2021_Oct_13_1310,t1_Paradigm,2021.1.4,59.988357127968534,
K,left,Distractor,0,5,5,5,2113.87302750838,2115.8732321801363,None,0,3,,M28B11,2021_Oct_13_1310,t1_Paradigm,2021.1.4,59.988357127968534,
G,left,Distractor,0,6,6,6,2117.3730892628664,2119.3732239996316,None,0,3,,M28B11,2021_Oct_13_1310,t1_Paradigm,2021.1.4,59.988357127968534,
H,right,Target,0,7,7,7,2120.873089744011,2122.8732722804416,right,1,3,0.9705580704612657,M28B11,2021_Oct_13_1310,t1_Paradigm,2021.1.4,59.988357127968534,
Y,left,Pretarget,0,8,8,8,2124.3738983256044,2126.374903077609,right,0,3,1.1330972443101928,M28B11,2021_Oct_13_1310,t1_Paradigm,2021.1.4,59.988357127968534,
S,left,Distractor,0,9,9,9,2127.873059588601,2129.8729681600817,left,1,3,1.283318581758067,M28B11,2021_Oct_13_1310,t1_Paradigm,2021.1.4,59.988357127968534,
P,left,Distractor,0,10,10,10,2131.3729997590417,2133.3734376538778,left,1,3,1.4147110841004178,M28B11,2021_Oct_13_1310,t1_Paradigm,2021.1.4,59.988357127968534,
Y,right,Target,0,11,11,11,2134.8732119696215,2136.873424340505,right,1,3,1.2905093599110842,M28B11,2021_Oct_13_1310,t1_Paradigm,2021.1.4,59.988357127968534,
H,left,Lure,0,12,12,12,2138.3732130924473,2140.373221433256,left,1,3,1.1188542747404426,M28B11,2021_Oct_13_1310,t1_Paradigm,2021.1.4,59.988357127968534,
Q,left,Distractor,0,13,13,13,2141.8740550373914,2143.8748583256966,left,1,3,1.3132866267114878,M28B11,2021_Oct_13_1310,t1_Paradigm,2021.1.4,59.988357127968534,
V,left,Pretarget,0,14,14,14,2145.3731056237593,2147.3751077493653,None,0,3,,M28B11,2021_Oct_13_1310,t1_Paradigm,2021.1.4,59.988357127968534,
G,left,Distractor,0,15,15,15,2148.8730939144734,2150.8733935435303,right,0,3,1.034612617106177,M28B11,2021_Oct_13_1310,t1_Paradigm,2021.1.4,59.988357127968534,
Z,left,Pretarget,0,16,16,16,2152.37309824524,2154.3734668468824,None,0,3,,M28B11,2021_Oct_13_1310,t1_Paradigm,2021.1.4,59.988357127968534,
V,right,Target,0,17,17,17,2155.873159358045,2157.8749779849313,None,0,3,,M28B11,2021_Oct_13_1310,t1_Paradigm,2021.1.4,59.988357127968534,
N,left,Distractor,0,18,18,18,2159.373045312939,2161.3734716589097,None,0,3,,M28B11,2021_Oct_13_1310,t1_Paradigm,2021.1.4,59.988357127968534,
Z,right,Target,0,19,19,19,2162.8730688919313,2164.8733643505257,right,1,3,0.5225227103801444,M28B11,2021_Oct_13_1310,t1_Paradigm,2021.1.4,59.988357127968534,
R,left,Distractor,0,20,20,20,2166.3731755585177,2168.3730953580234,left,1,3,1.3110689220484346,M28B11,2021_Oct_13_1310,t1_Paradigm,2021.1.4,59.988357127968534,
P,left,Distractor,0,21,21,21,2169.873232821701,2171.8733406112297,None,0,3,,M28B11,2021_Oct_13_1310,t1_Paradigm,2021.1.4,59.988357127968534,
Z,right,Target,0,22,22,22,2173.373125192593,2175.3753916592104,None,0,3,,M28B11,2021_Oct_13_1310,t1_Paradigm,2021.1.4,59.988357127968534,
D,left,Pretarget,0,23,23,23,2176.873107708874,2178.873511919519,left,1,3,1.162676797946915,M28B11,2021_Oct_13_1310,t1_Paradigm,2021.1.4,59.988357127968534,
K,left,Distractor,0,24,24,24,2180.373151498381,2182.3733831174904,None,0,3,,M28B11,2021_Oct_13_1310,t1_Paradigm,2021.1.4,59.988357127968534,
W,left,Distractor,0,25,25,25,2183.8730919896625,2185.873366596177,left,1,3,1.2026593206683174,M28B11,2021_Oct_13_1310,t1_Paradigm,2021.1.4,59.988357127968534,
D,right,Target,0,26,26,26,2187.3731614432763,2189.37352298724,left,0,3,1.0306423709262162,M28B11,2021_Oct_13_1310,t1_Paradigm,2021.1.4,59.988357127968534,
G,left,Pretarget,0,27,27,27,2190.8732940949267,2192.8750398997217,None,0,3,,M28B11,2021_Oct_13_1310,t1_Paradigm,2021.1.4,59.988357127968534,
V,left,Distractor,0,28,28,28,2194.3729660748504,2196.373539348133,left,1,3,1.0543393770931289,M28B11,2021_Oct_13_1310,t1_Paradigm,2021.1.4,59.988357127968534,
D,right,Target,0,29,29,29,2197.8731635285076,2199.8734808017034,right,1,3,0.9306361792841926,M28B11,2021_Oct_13_1310,t1_Paradigm,2021.1.4,59.988357127968534,
G,right,Target,0,30,30,30,2201.373213734012,2203.3734222553903,right,1,3,0.9025570169324055,M28B11,2021_Oct_13_1310,t1_Paradigm,2021.1.4,59.988357127968534,
B,left,Pretarget,0,31,31,31,2204.873069533496,2206.8729210020974,right,0,3,1.4191744030686095,M28B11,2021_Oct_13_1310,t1_Paradigm,2021.1.4,59.988357127968534,
N,left,Distractor,0,32,32,32,2208.3739271977684,2210.375114165363,left,1,3,0.70088640821632,M28B11,2021_Oct_13_1310,t1_Paradigm,2021.1.4,59.988357127968534,
F,left,Distractor,0,33,33,33,2211.873028150061,2213.8733784658834,left,1,3,1.2665451255161315,M28B11,2021_Oct_13_1310,t1_Paradigm,2021.1.4,59.988357127968534,
B,right,Target,0,34,34,34,2215.3731771626044,2217.3734921901487,right,1,3,0.9828913055825979,M28B11,2021_Oct_13_1310,t1_Paradigm,2021.1.4,59.988357127968534,
Q,left,Pretarget,0,35,35,35,2218.873209082405,2220.87356356869,None,0,3,,M28B11,2021_Oct_13_1310,t1_Paradigm,2021.1.4,59.988357127968534,
S,left,Pretarget,0,36,36,36,2222.373180370545,2224.3898351301905,None,0,3,,M28B11,2021_Oct_13_1310,t1_Paradigm,2021.1.4,59.988357127968534,
W,left,Distractor,0,37,37,37,2225.8730496437056,2227.8734445511363,left,1,3,1.3944466597167775,M28B11,2021_Oct_13_1310,t1_Paradigm,2021.1.4,59.988357127968534,
Q,right,Target,0,38,38,38,2229.3731518192217,2231.373403007281,right,1,3,0.6467475323006511,M28B11,2021_Oct_13_1310,t1_Paradigm,2021.1.4,59.988357127968534,
S,right,Target,0,39,39,39,2232.8730737039587,2234.873041944462,right,1,3,1.0833803040441126,M28B11,2021_Oct_13_1310,t1_Paradigm,2021.1.4,59.988357127968534,
T,left,Distractor,0,40,40,40,2236.37307867629,2238.3733215235407,left,1,3,0.9746620911173522,M28B11,2021_Oct_13_1310,t1_Paradigm,2021.1.4,59.988357127968534,
G,left,Distractor,0,41,41,41,2239.8730441901134,2241.8754672080977,None,0,3,,M28B11,2021_Oct_13_1310,t1_Paradigm,2021.1.4,59.988357127968534,
D,left,Distractor,0,42,42,42,2243.3730363304494,2245.3729230873287,None,0,3,,M28B11,2021_Oct_13_1310,t1_Paradigm,2021.1.4,59.988357127968534,
S,left,Lure,0,43,43,43,2246.8729655935895,2248.8734089420177,None,0,3,,M28B11,2021_Oct_13_1310,t1_Paradigm,2021.1.4,59.988357127968534,
Z,left,Pretarget,0,44,44,44,2250.373053012183,2252.373413593741,left,1,3,1.1506194528192282,M28B11,2021_Oct_13_1310,t1_Paradigm,2021.1.4,59.988357127968534,
J,left,Distractor,0,45,45,45,2253.8731067464687,2255.873395789182,left,1,3,1.4106699406402186,M28B11,2021_Oct_13_1310,t1_Paradigm,2021.1.4,59.988357127968534,
M,left,Pretarget,0,46,46,46,2257.3729012728436,2259.3863252348965,None,0,3,,M28B11,2021_Oct_13_1310,t1_Paradigm,2021.1.4,59.988357127968534,
Z,right,Target,0,47,47,47,2260.873184701428,2262.875125233084,right,1,3,0.6488070815103129,M28B11,2021_Oct_13_1310,t1_Paradigm,2021.1.4,59.988357127968534,
P,left,Distractor,0,48,48,48,2264.3730607114267,2266.3734302753583,right,0,3,1.1830830167746171,M28B11,2021_Oct_13_1310,t1_Paradigm,2021.1.4,59.988357127968534,
M,right,Target,0,49,49,49,2267.873069854337,2269.873462195159,left,0,3,0.9784356857417151,M28B11,2021_Oct_13_1310,t1_Paradigm,2021.1.4,59.988357127968534,
K,left,Distractor,0,50,50,50,2271.3731043405132,2273.3733247314813,right,0,3,1.4469683724455535,M28B11,2021_Oct_13_1310,t1_Paradigm,2021.1.4,59.988357127968534,
Y,left,Distractor,0,51,51,51,2274.873599819257,2276.8739363406785,left,1,3,0.8102327514206991,M28B11,2021_Oct_13_1310,t1_Paradigm,2021.1.4,59.988357127968534,
X,left,Distractor,0,52,52,52,2278.373155348003,2280.3726821650052,left,1,3,1.0552437180886045,M28B11,2021_Oct_13_1310,t1_Paradigm,2021.1.4,59.988357127968534,
F,left,Pretarget,0,53,53,53,2281.873206515913,2283.873538225307,left,1,3,1.44248997583054,M28B11,2021_Oct_13_1310,t1_Paradigm,2021.1.4,59.988357127968534,
M,left,Lure,0,54,54,54,2285.3731694633607,2287.373509192723,right,0,3,1.3505580512573943,M28B11,2021_Oct_13_1310,t1_Paradigm,2021.1.4,59.988357127968534,
V,left,Distractor,0,55,55,55,2288.873275488382,2290.8734265861567,right,0,3,1.3866800420219079,M28B11,2021_Oct_13_1310,t1_Paradigm,2021.1.4,59.988357127968534,
F,right,Target,0,56,56,56,2292.3737510774517,2294.3746031277115,right,1,3,1.0692810537293553,M28B11,2021_Oct_13_1310,t1_Paradigm,2021.1.4,59.988357127968534,
S,left,Distractor,0,57,57,57,2295.8737201200565,2297.8736347866943,left,1,3,1.3626510055037215,M28B11,2021_Oct_13_1310,t1_Paradigm,2021.1.4,59.988357127968534,
D,left,Distractor,0,58,58,58,2299.3731489320053,2301.373707448365,None,0,3,,M28B11,2021_Oct_13_1310,t1_Paradigm,2021.1.4,59.988357127968534,
F,right,Target,0,59,59,59,2302.8731025761226,2304.8737993581453,None,0,3,,M28B11,2021_Oct_13_1310,t1_Paradigm,2021.1.4,59.988357127968534,
V,left,Pretarget,0,60,60,60,2306.373202505987,2308.375072140363,left,1,3,0.8450734588550404,M28B11,2021_Oct_13_1310,t1_Paradigm,2021.1.4,59.988357127968534,
J,left,Distractor,0,61,61,61,2309.8738474784186,2311.886300051934,left,1,3,1.1737091806717217,M28B11,2021_Oct_13_1310,t1_Paradigm,2021.1.4,59.988357127968534,
V,left,Lure,0,62,62,62,2313.373206676333,2315.3735887516523,None,0,3,,M28B11,2021_Oct_13_1310,t1_Paradigm,2021.1.4,59.988357127968534,
V,right,Target,0,63,63,63,2316.873096480849,2318.873163849348,left,0,3,1.2747951919445768,M28B11,2021_Oct_13_1310,t1_Paradigm,2021.1.4,59.988357127968534,
R,left,Distractor,0,0,0,0,2427.4278646099847,2429.4234330502804,left,1,4,0.8686209714505821,M28B11,2021_Oct_13_1310,t1_Paradigm,2021.1.4,59.988357127968534,
F,left,Distractor,0,1,1,1,2430.92333953653,2432.923758503981,left,1,4,0.6803967808373272,M28B11,2021_Oct_13_1310,t1_Paradigm,2021.1.4,59.988357127968534,
P,left,Pretarget,0,2,2,2,2434.4233262232738,2436.4235931305448,left,1,4,1.0683308381121606,M28B11,2021_Oct_13_1310,t1_Paradigm,2021.1.4,59.988357127968534,
H,left,Distractor,0,3,3,3,2437.923196137999,2439.9242714665597,left,1,4,1.4237506444333121,M28B11,2021_Oct_13_1310,t1_Paradigm,2021.1.4,59.988357127968534,
Z,left,Distractor,0,4,4,4,2441.42393735121,2443.4250437974697,left,1,4,1.1229236487997696,M28B11,2021_Oct_13_1310,t1_Paradigm,2021.1.4,59.988357127968534,
T,left,Distractor,0,5,5,5,2444.9230915565277,2446.9234415516257,left,1,4,1.1445020782994106,M28B11,2021_Oct_13_1310,t1_Paradigm,2021.1.4,59.988357127968534,
P,right,Target,0,6,6,6,2448.4231783335563,2450.423214904964,None,0,4,,M28B11,2021_Oct_13_1310,t1_Paradigm,2021.1.4,59.988357127968534,
G,left,Distractor,0,7,7,7,2451.923153150594,2453.9233555766987,left,1,4,1.1846886312123388,M28B11,2021_Oct_13_1310,t1_Paradigm,2021.1.4,59.988357127968534,
L,left,Distractor,0,8,8,8,2455.4230872257613,2457.4232014312875,left,1,4,1.1248346666106954,M28B11,2021_Oct_13_1310,t1_Paradigm,2021.1.4,59.988357127968534,
P,left,Lure,0,9,9,9,2458.9234848598717,2460.923489671899,right,0,4,1.0005161704029888,M28B11,2021_Oct_13_1310,t1_Paradigm,2021.1.4,59.988357127968534,
Q,left,Pretarget,0,10,10,10,2462.4231254011393,2464.4235238373512,left,1,4,0.924467155826278,M28B11,2021_Oct_13_1310,t1_Paradigm,2021.1.4,59.988357127968534,
D,left,Distractor,0,11,11,11,2465.9232760177692,2467.923618955072,left,1,4,0.9126674145227298,M28B11,2021_Oct_13_1310,t1_Paradigm,2021.1.4,59.988357127968534,
M,left,Pretarget,0,12,12,12,2469.423229341046,2471.423504589242,left,1,4,0.8044352167053148,M28B11,2021_Oct_13_1310,t1_Paradigm,2021.1.4,59.988357127968534,
C,left,Distractor,0,13,13,13,2472.9231778522953,2474.9257994467625,right,0,4,1.3181227177847177,M28B11,2021_Oct_13_1310,t1_Paradigm,2021.1.4,59.988357127968534,
Q,right,Target,0,14,14,14,2476.423013120424,2478.4234426744515,right,1,4,1.2608454353176057,M28B11,2021_Oct_13_1310,t1_Paradigm,2021.1.4,59.988357127968534,
R,left,Distractor,0,15,15,15,2479.923117862316,2481.923460158054,left,1,4,1.152688305126503,M28B11,2021_Oct_13_1310,t1_Paradigm,2021.1.4,59.988357127968534,
M,right,Target,0,16,16,16,2483.4231058321893,2485.4233746643877,right,1,4,1.1725414613028988,M28B11,2021_Oct_13_1310,t1_Paradigm,2021.1.4,59.988357127968534,
S,left,Distractor,0,17,17,17,2486.9231903635664,2488.923386694398,left,1,4,0.9846775314072147,M28B11,2021_Oct_13_1310,t1_Paradigm,2021.1.4,59.988357127968534,
Z,left,Distractor,0,18,18,18,2490.4230618823785,2492.42542940157,left,1,4,0.8906020075082779,M28B11,2021_Oct_13_1310,t1_Paradigm,2021.1.4,59.988357127968534,
L,left,Pretarget,0,19,19,19,2493.9231464137556,2495.9229956367053,left,1,4,1.1049195958767086,M28B11,2021_Oct_13_1310,t1_Paradigm,2021.1.4,59.988357127968534,
M,right,Target,0,20,20,20,2497.4229332407704,2499.4234253510367,right,1,4,0.5807662485167384,M28B11,2021_Oct_13_1310,t1_Paradigm,2021.1.4,59.988357127968534,
P,left,Distractor,0,21,21,21,2500.9232134612976,2502.923400488915,None,0,4,,M28B11,2021_Oct_13_1310,t1_Paradigm,2021.1.4,59.988357127968534,
F,left,Distractor,0,22,22,22,2504.423195977579,2506.423492077971,right,0,4,0.9884411811362952,M28B11,2021_Oct_13_1310,t1_Paradigm,2021.1.4,59.988357127968534,
L,right,Target,0,23,23,23,2507.923070062767,2509.924958303687,None,0,4,,M28B11,2021_Oct_13_1310,t1_Paradigm,2021.1.4,59.988357127968534,
L,left,Lure,0,24,24,24,2511.4230512959184,2513.423220358556,left,1,4,1.3332145295571536,M28B11,2021_Oct_13_1310,t1_Paradigm,2021.1.4,59.988357127968534,
V,left,Pretarget,0,25,25,25,2514.9230652507395,2516.9233090603957,left,1,4,1.192687188857235,M28B11,2021_Oct_13_1310,t1_Paradigm,2021.1.4,59.988357127968534,
Z,left,Distractor,0,26,26,26,2518.4231430452783,2520.42357292003,left,1,4,0.9404427774716169,M28B11,2021_Oct_13_1310,t1_Paradigm,2021.1.4,59.988357127968534,
H,left,Distractor,0,27,27,27,2521.9233215716667,2523.923657451407,left,1,4,0.9923831967171282,M28B11,2021_Oct_13_1310,t1_Paradigm,2021.1.4,59.988357127968534,
X,left,Distractor,0,28,28,28,2525.4239043085836,2527.4254659729777,left,1,4,0.8664186652749777,M28B11,2021_Oct_13_1310,t1_Paradigm,2021.1.4,59.988357127968534,
V,right,Target,0,29,29,29,2528.9230161680607,2530.923460799735,right,1,4,1.2085672114044428,M28B11,2021_Oct_13_1310,t1_Paradigm,2021.1.4,59.988357127968534,
C,left,Distractor,0,30,30,30,2532.423255646834,2534.423437220743,left,1,4,0.9084825518075377,M28B11,2021_Oct_13_1310,t1_Paradigm,2021.1.4,59.988357127968534,
S,left,Pretarget,0,31,31,31,2535.9231733611086,2537.923434173106,left,1,4,1.0245734375203028,M28B11,2021_Oct_13_1310,t1_Paradigm,2021.1.4,59.988357127968534,
D,left,Distractor,0,32,32,32,2539.4230974913808,2541.42547142657,left,1,4,1.0264950417913496,M28B11,2021_Oct_13_1310,t1_Paradigm,2021.1.4,59.988357127968534,
V,left,Distractor,0,33,33,33,2542.9232262934092,2544.923741501523,right,0,4,0.8082530819810927,M28B11,2021_Oct_13_1310,t1_Paradigm,2021.1.4,59.988357127968534,
R,left,Distractor,0,34,34,34,2546.4233448298182,2548.423502664431,right,0,4,0.764744303189218,M28B11,2021_Oct_13_1310,t1_Paradigm,2021.1.4,59.988357127968534,
S,right,Target,0,35,35,35,2549.9231130502885,2551.923490955145,right,1,4,0.9608323144493625,M28B11,2021_Oct_13_1310,t1_Paradigm,2021.1.4,59.988357127968534,
Y,left,Distractor,0,36,36,36,2553.42327778216,2555.4236861631507,left,1,4,0.6922828177921474,M28B11,2021_Oct_13_1310,t1_Paradigm,2021.1.4,59.988357127968534,
N,left,Pretarget,0,37,37,37,2556.9232721681474,2558.9251058726804,left,1,4,0.8388768463628367,M28B11,2021_Oct_13_1310,t1_Paradigm,2021.1.4,59.988357127968534,
Z,left,Pretarget,0,38,38,38,2560.4231177018955,2562.4232113760663,left,1,4,1.0206975070759654,M28B11,2021_Oct_13_1310,t1_Paradigm,2021.1.4,59.988357127968534,
P,left,Pretarget,0,39,39,39,2563.9231242783135,2565.9234258322977,right,0,4,0.7527469478081912,M28B11,2021_Oct_13_1310,t1_Paradigm,2021.1.4,59.988357127968534,
M,left,Distractor,0,40,40,40,2567.423045200645,2569.4230127997,left,1,4,0.7089834520593286,M28B11,2021_Oct_13_1310,t1_Paradigm,2021.1.4,59.988357127968534,
N,right,Target,0,41,41,41,2570.923162453808,2572.9230565890903,left,0,4,1.2728739083977416,M28B11,2021_Oct_13_1310,t1_Paradigm,2021.1.4,59.988357127968534,
Z,right,Target,0,42,42,42,2574.4231767294696,2576.4249414616497,left,0,4,1.0669568427838385,M28B11,2021_Oct_13_1310,t1_Paradigm,2021.1.4,59.988357127968534,
P,right,Target,0,43,43,43,2577.9230803285027,2579.923558002687,left,0,4,0.9443940963828936,M28B11,2021_Oct_13_1310,t1_Paradigm,2021.1.4,59.988357127968534,
X,left,Pretarget,0,44,44,44,2581.423194694449,2583.423370493925,left,1,4,0.8206613847287372,M28B11,2021_Oct_13_1310,t1_Paradigm,2021.1.4,59.988357127968534,
Z,left,Lure,0,45,45,45,2584.9232808297966,2586.9234165290836,left,1,4,0.9526752806268632,M28B11,2021_Oct_13_1310,t1_Paradigm,2021.1.4,59.988357127968534,
R,left,Pretarget,0,46,46,46,2588.423203997663,2590.4234311254695,left,1,4,1.388607099885121,M28B11,2021_Oct_13_1310,t1_Paradigm,2021.1.4,59.988357127968534,
K,left,Distractor,0,47,47,47,2591.923974724603,2593.925463566906,left,1,4,0.9906319383298978,M28B11,2021_Oct_13_1310,t1_Paradigm,2021.1.4,59.988357127968534,
X,right,Target,0,48,48,48,2595.423137591686,2597.423378193169,right,1,4,1.0287028016755357,M28B11,2021_Oct_13_1310,t1_Paradigm,2021.1.4,59.988357127968534,
B,left,Distractor,0,49,49,49,2598.9231714362977,2600.923255165573,None,0,4,,M28B11,2021_Oct_13_1310,t1_Paradigm,2021.1.4,59.988357127968534,
R,right,Target,0,50,50,50,2602.4231584437657,2604.4234112357954,left,0,4,0.7967308345250785,M28B11,2021_Oct_13_1310,t1_Paradigm,2021.1.4,59.988357127968534,
Y,left,Pretarget,0,51,51,51,2605.923063646769,2607.92337867443,None,0,4,,M28B11,2021_Oct_13_1310,t1_Paradigm,2021.1.4,59.988357127968534,
W,left,Pretarget,0,52,52,52,2609.4238269953057,2611.4250534215244,left,1,4,0.9470747183077037,M28B11,2021_Oct_13_1310,t1_Paradigm,2021.1.4,59.988357127968534,
Z,left,Distractor,0,53,53,53,2612.9232067244593,2614.923389581614,left,1,4,1.0166367946658283,M28B11,2021_Oct_13_1310,t1_Paradigm,2021.1.4,59.988357127968534,
Q,left,Distractor,0,54,54,54,2616.4230881881667,2618.423243135563,left,1,4,0.7330063933040947,M28B11,2021_Oct_13_1310,t1_Paradigm,2021.1.4,59.988357127968534,
Y,right,Target,0,55,55,55,2619.923034774605,2621.9230331705185,None,0,4,,M28B11,2021_Oct_13_1310,t1_Paradigm,2021.1.4,59.988357127968534,
W,right,Target,0,56,56,56,2623.4231234763283,2625.4246312460164,right,1,4,0.8994490865152329,M28B11,2021_Oct_13_1310,t1_Paradigm,2021.1.4,59.988357127968534,
H,left,Pretarget,0,57,57,57,2626.9230665339855,2628.923002694384,left,1,4,0.9690470928326249,M28B11,2021_Oct_13_1310,t1_Paradigm,2021.1.4,59.988357127968534,
M,left,Distractor,0,58,58,58,2630.423031406128,2632.423365361057,None,0,4,,M28B11,2021_Oct_13_1310,t1_Paradigm,2021.1.4,59.988357127968534,
R,left,Pretarget,0,59,59,59,2633.923070704448,2635.9233555766987,left,1,4,1.2488057342125103,M28B11,2021_Oct_13_1310,t1_Paradigm,2021.1.4,59.988357127968534,
J,left,Distractor,0,60,60,60,2637.423107436276,2639.42346160172,left,1,4,0.8526241768850014,M28B11,2021_Oct_13_1310,t1_Paradigm,2021.1.4,59.988357127968534,
H,right,Target,0,61,61,61,2640.9229574613273,2642.9250433162088,right,1,4,1.175034093321301,M28B11,2021_Oct_13_1310,t1_Paradigm,2021.1.4,59.988357127968534,
Z,left,Distractor,0,62,62,62,2644.422967887367,2646.422916238196,left,1,4,0.7812980100279674,M28B11,2021_Oct_13_1310,t1_Paradigm,2021.1.4,59.988357127968534,
R,right,Target,0,63,63,63,2647.92317849386,2649.922976388596,right,1,4,0.6570234638638794,M28B11,2021_Oct_13_1310,t1_Paradigm,2021.1.4,59.988357127968534,
J,left,Pretarget,0,0,0,0,2682.2822124562226,2684.2898347130977,left,1,4,0.930371196824126,M28B11,2021_Oct_13_1310,t1_Paradigm,2021.1.4,59.988357127968534,
G,left,Pretarget,0,1,1,1,2685.7908248687163,2687.7901813397184,left,1,4,1.0618432579794899,M28B11,2021_Oct_13_1310,t1_Paradigm,2021.1.4,59.988357127968534,
Z,left,Distractor,0,2,2,2,2689.289883475052,2691.290168026462,left,1,4,0.5699122318765149,M28B11,2021_Oct_13_1310,t1_Paradigm,2021.1.4,59.988357127968534,
F,left,Distractor,0,3,3,3,2692.7898570088437,2694.7902849587845,left,1,4,0.8139399400679395,M28B11,2021_Oct_13_1310,t1_Paradigm,2021.1.4,59.988357127968534,
J,right,Target,0,4,4,4,2696.2899415402208,2698.290161931189,right,1,4,0.5140464784344658,M28B11,2021_Oct_13_1310,t1_Paradigm,2021.1.4,59.988357127968534,
G,right,Target,0,5,5,5,2699.7898871642537,2701.79079182609,right,1,4,1.0294756137300283,M28B11,2021_Oct_13_1310,t1_Paradigm,2021.1.4,59.988357127968534,
H,left,Distractor,0,6,6,6,2703.289762853412,2705.2904018911067,left,1,4,1.161605960689485,M28B11,2021_Oct_13_1310,t1_Paradigm,2021.1.4,59.988357127968534,
P,left,Distractor,0,7,7,7,2706.7898120966274,2708.7921770493267,left,1,4,1.1318457955494523,M28B11,2021_Oct_13_1310,t1_Paradigm,2021.1.4,59.988357127968534,
G,left,Lure,0,8,8,8,2710.289859094075,2712.2900968083413,right,0,4,1.1699833855964243,M28B11,2021_Oct_13_1310,t1_Paradigm,2021.1.4,59.988357127968534,
S,left,Distractor,0,9,9,9,2713.7899612694746,2715.790302923764,left,1,4,1.1577329175779596,M28B11,2021_Oct_13_1310,t1_Paradigm,2021.1.4,59.988357127968534,
R,left,Pretarget,0,10,10,10,2717.28973654774,2719.289982282091,left,1,4,1.194350226665847,M28B11,2021_Oct_13_1310,t1_Paradigm,2021.1.4,59.988357127968534,
T,left,Pretarget,0,11,11,11,2720.789886843413,2722.790044678026,left,1,4,0.7500226967968047,M28B11,2021_Oct_13_1310,t1_Paradigm,2021.1.4,59.988357127968534,
X,left,Distractor,0,12,12,12,2724.2896290790522,2726.2915096206125,left,1,4,0.8484338604612276,M28B11,2021_Oct_13_1310,t1_Paradigm,2021.1.4,59.988357127968534,
F,left,Pretarget,0,13,13,13,2727.7898691993905,2729.7900908736046,None,0,4,,M28B11,2021_Oct_13_1310,t1_Paradigm,2021.1.4,59.988357127968534,
R,right,Target,0,14,14,14,2731.289842091617,2733.289811294526,right,1,4,0.7781576787820086,M28B11,2021_Oct_13_1310,t1_Paradigm,2021.1.4,59.988357127968534,
T,right,Target,0,15,15,15,2734.7898586129304,2736.7899741015863,left,0,4,1.1499916430329904,M28B11,2021_Oct_13_1310,t1_Paradigm,2021.1.4,59.988357127968534,
C,left,Distractor,0,16,16,16,2738.2896444775397,2740.289732056437,left,1,4,1.0903173277620226,M28B11,2021_Oct_13_1310,t1_Paradigm,2021.1.4,59.988357127968534,
F,right,Target,0,17,17,17,2741.79059004155,2743.791639705887,right,1,4,0.9482944076880813,M28B11,2021_Oct_13_1310,t1_Paradigm,2021.1.4,59.988357127968534,
M,left,Distractor,0,18,18,18,2745.289733339683,2747.290241490118,left,1,4,0.889761506114155,M28B11,2021_Oct_13_1310,t1_Paradigm,2021.1.4,59.988357127968534,
N,left,Distractor,0,19,19,19,2748.7899574198527,2750.790162091609,left,1,4,0.9419098051730543,M28B11,2021_Oct_13_1310,t1_Paradigm,2021.1.4,59.988357127968534,
R,left,Lure,0,20,20,20,2752.2898719261866,2754.2901051492663,left,1,4,0.8498903017025441,M28B11,2021_Oct_13_1310,t1_Paradigm,2021.1.4,59.988357127968534,
F,right,Target,0,21,21,21,2755.7897376704495,2757.789720667992,left,0,4,1.2223533588694409,M28B11,2021_Oct_13_1310,t1_Paradigm,2021.1.4,59.988357127968534,
P,left,Distractor,0,22,22,22,2759.290259775822,2761.290386171895,left,1,4,1.0817493464564905,M28B11,2021_Oct_13_1310,t1_Paradigm,2021.1.4,59.988357127968534,
L,left,Pretarget,0,23,23,23,2762.789908337174,2764.7902718059486,left,1,4,1.2139515531016514,M28B11,2021_Oct_13_1310,t1_Paradigm,2021.1.4,59.988357127968534,
T,left,Distractor,0,24,24,24,2766.289880266995,2768.2912106331205,left,1,4,0.8809542064554989,M28B11,2021_Oct_13_1310,t1_Paradigm,2021.1.4,59.988357127968534,
F,left,Distractor,0,25,25,25,2769.789885239443,2771.790195455076,right,0,4,1.0777980275452137,M28B11,2021_Oct_13_1310,t1_Paradigm,2021.1.4,59.988357127968534,
V,left,Distractor,0,26,26,26,2773.289862943697,2775.2917633750476,left,1,4,0.9201918268809095,M28B11,2021_Oct_13_1310,t1_Paradigm,2021.1.4,59.988357127968534,
L,right,Target,0,27,27,27,2776.789724196773,2778.7899859712925,right,1,4,0.9899701237445697,M28B11,2021_Oct_13_1310,t1_Paradigm,2021.1.4,59.988357127968534,
S,left,Pretarget,0,28,28,28,2780.289825089043,2782.290099695674,left,1,4,0.8018335121450946,M28B11,2021_Oct_13_1310,t1_Paradigm,2021.1.4,59.988357127968534,
W,left,Distractor,0,29,29,29,2783.789829419926,2785.790062322165,left,1,4,1.2539106572512537,M28B11,2021_Oct_13_1310,t1_Paradigm,2021.1.4,59.988357127968534,
Q,left,Distractor,0,30,30,30,2787.2897740815533,2789.2899851693073,left,1,4,0.9059700299985707,M28B11,2021_Oct_13_1310,t1_Paradigm,2021.1.4,59.988357127968534,
L,right,Target,0,31,31,31,2790.789614803274,2792.79216357565,right,1,4,0.8120523407123983,M28B11,2021_Oct_13_1310,t1_Paradigm,2021.1.4,59.988357127968534,
S,right,Target,0,32,32,32,2794.2897500214167,2796.289705109084,right,1,4,0.7863775898003951,M28B11,2021_Oct_13_1310,t1_Paradigm,2021.1.4,59.988357127968534,
Z,left,Pretarget,0,33,33,33,2797.7897950940533,2799.790290412493,left,1,4,0.8699885505484417,M28B11,2021_Oct_13_1310,t1_Paradigm,2021.1.4,59.988357127968534,
F,left,Distractor,0,34,34,34,2801.2905542721273,2803.291690553073,right,0,4,0.9042794032720849,M28B11,2021_Oct_13_1310,t1_Paradigm,2021.1.4,59.988357127968534,
V,left,Distractor,0,35,35,35,2804.7898416103562,2806.790064246976,left,1,4,0.7339976716320962,M28B11,2021_Oct_13_1310,t1_Paradigm,2021.1.4,59.988357127968534,
M,left,Distractor,0,36,36,36,2808.2905449689133,2810.2917614502367,left,1,4,1.2163081649923697,M28B11,2021_Oct_13_1310,t1_Paradigm,2021.1.4,59.988357127968534,
Z,right,Target,0,37,37,37,2811.789739916101,2813.7900273547275,left,0,4,0.7740273522213101,M28B11,2021_Oct_13_1310,t1_Paradigm,2021.1.4,59.988357127968534,
H,left,Pretarget,0,38,38,38,2815.2899367281934,2817.2901439663256,right,0,4,0.7140858088387176,M28B11,2021_Oct_13_1310,t1_Paradigm,2021.1.4,59.988357127968534,
L,left,Distractor,0,39,39,39,2818.789848026354,2820.7900719462195,left,1,4,0.7820721053285524,M28B11,2021_Oct_13_1310,t1_Paradigm,2021.1.4,59.988357127968534,
G,left,Distractor,0,40,40,40,2822.2898777006194,2824.2898812294006,left,1,4,0.9622149714268744,M28B11,2021_Oct_13_1310,t1_Paradigm,2021.1.4,59.988357127968534,
K,left,Distractor,0,41,41,41,2825.789702382288,2827.7900664926274,left,1,4,1.126041844720021,M28B11,2021_Oct_13_1310,t1_Paradigm,2021.1.4,59.988357127968534,
H,right,Target,0,42,42,42,2829.289717620355,2831.2897115250817,None,0,4,,M28B11,2021_Oct_13_1310,t1_Paradigm,2021.1.4,59.988357127968534,
B,left,Distractor,0,43,43,43,2832.7897395952605,2834.789974422427,left,1,4,0.8943342185812071,M28B11,2021_Oct_13_1310,t1_Paradigm,2021.1.4,59.988357127968534,
Z,left,Distractor,0,44,44,44,2836.2898562068585,2838.289703825838,left,1,4,1.2666904487414286,M28B11,2021_Oct_13_1310,t1_Paradigm,2021.1.4,59.988357127968534,
T,left,Pretarget,0,45,45,45,2839.7897120063426,2841.7916207786184,left,1,4,1.0927150023635477,M28B11,2021_Oct_13_1310,t1_Paradigm,2021.1.4,59.988357127968534,
H,right,Target,0,46,46,46,2843.2899559763027,2845.290035535232,left,0,4,0.9700829626526684,M28B11,2021_Oct_13_1310,t1_Paradigm,2021.1.4,59.988357127968534,
F,left,Distractor,0,47,47,47,2846.7898332695477,2848.790036978782,left,1,4,0.9899499132297933,M28B11,2021_Oct_13_1310,t1_Paradigm,2021.1.4,59.988357127968534,
R,left,Distractor,0,48,48,48,2850.289755475009,2852.289968166733,left,1,4,1.1539840246550739,M28B11,2021_Oct_13_1310,t1_Paradigm,2021.1.4,59.988357127968534,
T,right,Target,0,49,49,49,2853.789878181764,2855.790116858552,right,1,4,1.1260598096996546,M28B11,2021_Oct_13_1310,t1_Paradigm,2021.1.4,59.988357127968534,
H,right,Target,0,50,50,50,2857.28981931461,2859.291710442747,right,1,4,0.5362751737702638,M28B11,2021_Oct_13_1310,t1_Paradigm,2021.1.4,59.988357127968534,
Y,left,Pretarget,0,51,51,51,2860.7900485276477,2862.7909923273837,left,1,4,0.9890420433366671,M28B11,2021_Oct_13_1310,t1_Paradigm,2021.1.4,59.988357127968534,
H,left,Distractor,0,52,52,52,2864.290016607847,2866.2920963675715,right,0,4,1.359869010047987,M28B11,2021_Oct_13_1310,t1_Paradigm,2021.1.4,59.988357127968534,
S,left,Distractor,0,53,53,53,2867.7900424324907,2869.792080167099,left,1,4,0.8680772118968889,M28B11,2021_Oct_13_1310,t1_Paradigm,2021.1.4,59.988357127968534,
Q,left,Distractor,0,54,54,54,2871.290076918667,2873.291975104483,right,0,4,0.919993571122177,M28B11,2021_Oct_13_1310,t1_Paradigm,2021.1.4,59.988357127968534,
Y,right,Target,0,55,55,55,2874.7897434448823,2876.7916381019168,right,1,4,0.7805341803468764,M28B11,2021_Oct_13_1310,t1_Paradigm,2021.1.4,59.988357127968534,
R,left,Distractor,0,56,56,56,2878.289717620355,2880.2899707332253,left,1,4,0.9302720689447597,M28B11,2021_Oct_13_1310,t1_Paradigm,2021.1.4,59.988357127968534,
H,left,Pretarget,0,57,57,57,2881.789936567773,2883.7901717156637,right,0,4,0.6620321462396532,M28B11,2021_Oct_13_1310,t1_Paradigm,2021.1.4,59.988357127968534,
J,left,Distractor,0,58,58,58,2885.2898286178242,2887.2900387431728,left,1,4,0.890091932262294,M28B11,2021_Oct_13_1310,t1_Paradigm,2021.1.4,59.988357127968534,
V,left,Distractor,0,59,59,59,2888.7898964674678,2890.790065530222,left,1,4,1.1504032321972772,M28B11,2021_Oct_13_1310,t1_Paradigm,2021.1.4,59.988357127968534,
Y,left,Lure,0,60,60,60,2892.29065179592,2894.3029134921962,left,1,4,1.3492895998060703,M28B11,2021_Oct_13_1310,t1_Paradigm,2021.1.4,59.988357127968534,
H,right,Target,0,61,61,61,2895.7896863421192,2897.7896497707115,right,1,4,0.9185499618761241,M28B11,2021_Oct_13_1310,t1_Paradigm,2021.1.4,59.988357127968534,
L,left,Distractor,0,62,62,62,2899.289712166763,2901.2902921768837,left,1,4,0.8737345561385155,M28B11,2021_Oct_13_1310,t1_Paradigm,2021.1.4,59.988357127968534,
P,left,Distractor,0,63,63,63,2902.7899256604724,2904.7898733697366,left,1,4,0.8143820053664967,M28B11,2021_Oct_13_1310,t1_Paradigm,2021.1.4,59.988357127968534,
