Letter,CorrAnswer,Stimulus,nback_run.thisRepN,nback_run.thisTrialN,nback_run.thisN,nback_run.thisIndex,fixcross.started,nback_trial.started,trial_resp.keys,trial_resp.corr,currentlevel,trial_resp.rt,Participant,date,expName,psychopyVersion,frameRate,
H,left,Distractor,0,0,0,0,255.01733645284548,257.0037084693904,None,0,1,,R27R01,2021_Oct_19_1358,t1_Paradigm,2021.1.4,60.00467764822241,
Q,left,Pretarget,0,1,1,1,258.50043067650404,260.50367687043035,left,1,1,0.8918012349749915,R27R01,2021_Oct_19_1358,t1_Paradigm,2021.1.4,60.00467764822241,
Q,right,Target,0,2,2,2,261.99752693856135,263.9973116805195,right,1,1,0.6463826864492148,R27R01,2021_Oct_19_1358,t1_Paradigm,2021.1.4,60.00467764822241,
T,left,Distractor,0,3,3,3,265.49767049739603,267.4987432587659,left,1,1,0.5525147817097604,R27R01,2021_Oct_19_1358,t1_Paradigm,2021.1.4,60.00467764822241,
Q,left,Lure,0,4,4,4,268.99705985106993,270.997325154196,left,1,1,0.6539070938597433,R27R01,2021_Oct_19_1358,t1_Paradigm,2021.1.4,60.00467764822241,
L,left,Distractor,0,5,5,5,272.4969891142682,274.49886420107214,left,1,1,0.7042303177295253,R27R01,2021_Oct_19_1358,t1_Paradigm,2021.1.4,60.00467764822241,
V,left,Pretarget,0,6,6,6,275.9966787384474,277.99968368938426,left,1,1,0.579606177227106,R27R01,2021_Oct_19_1358,t1_Paradigm,2021.1.4,60.00467764822241,
V,right,Target,0,7,7,7,279.4968569438788,281.4970375553239,right,1,1,0.49007326789433137,R27R01,2021_Oct_19_1358,t1_Paradigm,2021.1.4,60.00467764822241,
K,left,Distractor,0,8,8,8,282.99692222703015,284.99688116443576,left,1,1,0.6062744350638241,R27R01,2021_Oct_19_1358,t1_Paradigm,2021.1.4,60.00467764822241,
G,left,Pretarget,0,9,9,9,286.4970946580288,288.49870732892305,left,1,1,0.6245229275082238,R27R01,2021_Oct_19_1358,t1_Paradigm,2021.1.4,60.00467764822241,
G,right,Target,0,10,10,10,289.99706883350154,291.9970098059857,right,1,1,0.4862316657672636,R27R01,2021_Oct_19_1358,t1_Paradigm,2021.1.4,60.00467764822241,
G,right,Target,0,11,11,11,293.497314728098,295.49681941006565,right,1,1,0.4742670399718918,R27R01,2021_Oct_19_1358,t1_Paradigm,2021.1.4,60.00467764822241,
P,left,Pretarget,0,12,12,12,296.99686512432527,298.9964467987302,left,1,1,0.5427810120163485,R27R01,2021_Oct_19_1358,t1_Paradigm,2021.1.4,60.00467764822241,
P,right,Target,0,13,13,13,300.4970372345415,302.4969005729072,right,1,1,0.674235665530432,R27R01,2021_Oct_19_1358,t1_Paradigm,2021.1.4,60.00467764822241,
G,left,Lure,0,14,14,14,303.9969713097089,305.9973601215752,left,1,1,0.5017514177015983,R27R01,2021_Oct_19_1358,t1_Paradigm,2021.1.4,60.00467764822241,
Y,left,Distractor,0,15,15,15,307.4968213348766,309.49671386624686,left,1,1,0.6666676290915348,R27R01,2021_Oct_19_1358,t1_Paradigm,2021.1.4,60.00467764822241,
B,left,Distractor,0,16,16,16,310.99752725934377,312.99902412079973,left,1,1,0.5561228401493281,R27R01,2021_Oct_19_1358,t1_Paradigm,2021.1.4,60.00467764822241,
T,left,Pretarget,0,17,17,17,314.49668306927197,316.49878400057787,left,1,1,0.49657816701801494,R27R01,2021_Oct_19_1358,t1_Paradigm,2021.1.4,60.00467764822241,
T,right,Target,0,18,18,18,317.9967640717514,319.99682502407813,right,1,1,0.4222689095768146,R27R01,2021_Oct_19_1358,t1_Paradigm,2021.1.4,60.00467764822241,
S,left,Distractor,0,19,19,19,321.49685341503937,323.49882634641835,left,1,1,0.45636854227632284,R27R01,2021_Oct_19_1358,t1_Paradigm,2021.1.4,60.00467764822241,
T,left,Lure,0,20,20,20,324.9967528436682,326.99867476755753,left,1,1,0.4126852750778198,R27R01,2021_Oct_19_1358,t1_Paradigm,2021.1.4,60.00467764822241,
J,left,Distractor,0,21,21,21,328.4967777058482,330.4966689539724,left,1,1,0.49873331387061626,R27R01,2021_Oct_19_1358,t1_Paradigm,2021.1.4,60.00467764822241,
P,left,Distractor,0,22,22,22,331.99711567058694,333.99738771055127,left,1,1,0.5018277685740031,R27R01,2021_Oct_19_1358,t1_Paradigm,2021.1.4,60.00467764822241,
F,left,Distractor,0,23,23,23,335.4968848536373,337.49673118954524,left,1,1,0.6825277517782524,R27R01,2021_Oct_19_1358,t1_Paradigm,2021.1.4,60.00467764822241,
L,left,Distractor,0,24,24,24,338.99693826714065,340.997706587601,left,1,1,0.4937255970435217,R27R01,2021_Oct_19_1358,t1_Paradigm,2021.1.4,60.00467764822241,
W,left,Pretarget,0,25,25,25,342.4969451643992,344.49661249289056,left,1,1,0.48316351685207337,R27R01,2021_Oct_19_1358,t1_Paradigm,2021.1.4,60.00467764822241,
W,right,Target,0,26,26,26,345.9969732345198,347.99679422710324,right,1,1,0.47041934257140383,R27R01,2021_Oct_19_1358,t1_Paradigm,2021.1.4,60.00467764822241,
V,left,Distractor,0,27,27,27,349.4971604224411,351.49666061316384,left,1,1,0.5383574753068388,R27R01,2021_Oct_19_1358,t1_Paradigm,2021.1.4,60.00467764822241,
W,left,Lure,0,28,28,28,352.9972850539489,354.9970855151769,left,1,1,0.5419838193920441,R27R01,2021_Oct_19_1358,t1_Paradigm,2021.1.4,60.00467764822241,
R,left,Pretarget,0,29,29,29,356.49681908928324,358.4972486429615,left,1,1,0.4821427253773436,R27R01,2021_Oct_19_1358,t1_Paradigm,2021.1.4,60.00467764822241,
R,right,Target,0,30,30,30,360.0142359029269,361.997184001375,right,1,1,0.4380424157716334,R27R01,2021_Oct_19_1358,t1_Paradigm,2021.1.4,60.00467764822241,
G,left,Distractor,0,31,31,31,363.4977080312092,365.4974016654305,left,1,1,0.48971525306114927,R27R01,2021_Oct_19_1358,t1_Paradigm,2021.1.4,60.00467764822241,
R,left,Lure,0,32,32,32,366.9967923022923,368.9971830389695,left,1,1,0.4778940256219357,R27R01,2021_Oct_19_1358,t1_Paradigm,2021.1.4,60.00467764822241,
S,left,Distractor,0,33,33,33,370.4967879714677,372.49699232226703,left,1,1,0.5143210758105852,R27R01,2021_Oct_19_1358,t1_Paradigm,2021.1.4,60.00467764822241,
R,left,Lure,0,34,34,34,373.9968054551864,375.99737584084505,left,1,1,0.469804686261341,R27R01,2021_Oct_19_1358,t1_Paradigm,2021.1.4,60.00467764822241,
P,left,Pretarget,0,35,35,35,377.4967202823027,379.4974353496218,left,1,1,0.5376488239853643,R27R01,2021_Oct_19_1358,t1_Paradigm,2021.1.4,60.00467764822241,
P,right,Target,0,36,36,36,380.99686640751315,382.9968468386214,right,1,1,0.4945513409911655,R27R01,2021_Oct_19_1358,t1_Paradigm,2021.1.4,60.00467764822241,
Y,left,Pretarget,0,37,37,37,384.497079580382,386.4987355595222,left,1,1,0.5610330333001912,R27R01,2021_Oct_19_1358,t1_Paradigm,2021.1.4,60.00467764822241,
Y,right,Target,0,38,38,38,387.9966832296923,389.9969363423297,right,1,1,0.5341514422325417,R27R01,2021_Oct_19_1358,t1_Paradigm,2021.1.4,60.00467764822241,
J,left,Distractor,0,39,39,39,391.496918858611,393.49649924982805,left,1,1,0.5386192495934665,R27R01,2021_Oct_19_1358,t1_Paradigm,2021.1.4,60.00467764822241,
Y,left,Lure,0,40,40,40,394.9969389087637,396.9966572447447,right,0,1,0.5746068012085743,R27R01,2021_Oct_19_1358,t1_Paradigm,2021.1.4,60.00467764822241,
T,left,Distractor,0,41,41,41,398.49703787610633,400.4975469886558,left,1,1,0.6735805881326087,R27R01,2021_Oct_19_1358,t1_Paradigm,2021.1.4,60.00467764822241,
V,left,Distractor,0,42,42,42,401.9969170942204,403.99685582105303,left,1,1,0.5823644315241836,R27R01,2021_Oct_19_1358,t1_Paradigm,2021.1.4,60.00467764822241,
N,left,Pretarget,0,43,43,43,405.4969201418571,407.4966163425124,left,1,1,0.6667507167439908,R27R01,2021_Oct_19_1358,t1_Paradigm,2021.1.4,60.00467764822241,
N,right,Target,0,44,44,44,408.9974377556355,410.99706017185235,right,1,1,0.6220880415057763,R27R01,2021_Oct_19_1358,t1_Paradigm,2021.1.4,60.00467764822241,
N,right,Target,0,45,45,45,412.49745363532566,414.49721431714715,right,1,1,0.5301404566853307,R27R01,2021_Oct_19_1358,t1_Paradigm,2021.1.4,60.00467764822241,
X,left,Distractor,0,46,46,46,415.9972603521892,417.9970787783386,left,1,1,0.5982598424307071,R27R01,2021_Oct_19_1358,t1_Paradigm,2021.1.4,60.00467764822241,
Z,left,Distractor,0,47,47,47,419.4967661569244,421.49865888786735,left,1,1,0.6004281421774067,R27R01,2021_Oct_19_1358,t1_Paradigm,2021.1.4,60.00467764822241,
H,left,Pretarget,0,48,48,48,422.99671338504413,424.99655073852045,left,1,1,0.5266774006886408,R27R01,2021_Oct_19_1358,t1_Paradigm,2021.1.4,60.00467764822241,
H,right,Target,0,49,49,49,426.4971841617371,428.49729483842384,left,0,1,0.4820496928296052,R27R01,2021_Oct_19_1358,t1_Paradigm,2021.1.4,60.00467764822241,
K,left,Distractor,0,50,50,50,429.9974457756616,431.9987668376998,None,0,1,,R27R01,2021_Oct_19_1358,t1_Paradigm,2021.1.4,60.00467764822241,
V,left,Pretarget,0,51,51,51,433.4967777058482,435.49658586631995,left,1,1,0.5224347962648608,R27R01,2021_Oct_19_1358,t1_Paradigm,2021.1.4,60.00467764822241,
V,right,Target,0,52,52,52,436.996603029198,438.9967230090988,right,1,1,0.5104473934625275,R27R01,2021_Oct_19_1358,t1_Paradigm,2021.1.4,60.00467764822241,
R,left,Distractor,0,53,53,53,440.4974234799738,442.4986258452991,left,1,1,0.5286371792317368,R27R01,2021_Oct_19_1358,t1_Paradigm,2021.1.4,60.00467764822241,
V,left,Lure,0,54,54,54,443.9974323019851,445.99841973010916,left,1,1,0.7887346580973826,R27R01,2021_Oct_19_1358,t1_Paradigm,2021.1.4,60.00467764822241,
Y,left,Distractor,0,55,55,55,447.4975187581149,449.49871053698007,left,1,1,0.6966305219102651,R27R01,2021_Oct_19_1358,t1_Paradigm,2021.1.4,60.00467764822241,
Q,left,Distractor,0,56,56,56,450.99690586613724,452.9978743669344,left,1,1,0.5572186992503703,R27R01,2021_Oct_19_1358,t1_Paradigm,2021.1.4,60.00467764822241,
Z,left,Pretarget,0,57,57,57,454.4969024977181,456.49758259765804,left,1,1,0.5774843937833793,R27R01,2021_Oct_19_1358,t1_Paradigm,2021.1.4,60.00467764822241,
Z,right,Target,0,58,58,58,457.99690009170445,459.99686608673073,right,1,1,0.5183163420879282,R27R01,2021_Oct_19_1358,t1_Paradigm,2021.1.4,60.00467764822241,
B,left,Distractor,0,59,59,59,461.4975011139759,463.49838877271395,left,1,1,0.5847264955518767,R27R01,2021_Oct_19_1358,t1_Paradigm,2021.1.4,60.00467764822241,
S,left,Pretarget,0,60,60,60,464.9969203022192,466.99755324429134,left,1,1,0.6375385002465919,R27R01,2021_Oct_19_1358,t1_Paradigm,2021.1.4,60.00467764822241,
S,right,Target,0,61,61,61,468.49688389123185,470.4968758712057,right,1,1,0.4664859910844825,R27R01,2021_Oct_19_1358,t1_Paradigm,2021.1.4,60.00467764822241,
T,left,Distractor,0,62,62,62,471.9967701669666,473.9975038408302,left,1,1,0.5817709481343627,R27R01,2021_Oct_19_1358,t1_Paradigm,2021.1.4,60.00467764822241,
D,left,Distractor,0,63,63,63,475.4968745879596,477.49950580473524,left,1,1,0.5676377017516643,R27R01,2021_Oct_19_1358,t1_Paradigm,2021.1.4,60.00467764822241,
R,left,Distractor,0,0,0,0,499.1294804389472,501.11334827629616,None,0,1,,R27R01,2021_Oct_19_1358,t1_Paradigm,2021.1.4,60.00467764822241,
V,left,Distractor,0,1,1,1,502.6133166773361,504.61353738897014,left,1,1,0.7334916169638745,R27R01,2021_Oct_19_1358,t1_Paradigm,2021.1.4,60.00467764822241,
N,left,Pretarget,0,2,2,2,506.1134191735182,508.11350514838705,left,1,1,0.6255453230114654,R27R01,2021_Oct_19_1358,t1_Paradigm,2021.1.4,60.00467764822241,
N,right,Target,0,3,3,3,509.61327914346475,511.61326406581793,right,1,1,0.5178322520805523,R27R01,2021_Oct_19_1358,t1_Paradigm,2021.1.4,60.00467764822241,
S,left,Distractor,0,4,4,4,513.1132302212063,515.1154630021192,left,1,1,0.5035389256081544,R27R01,2021_Oct_19_1358,t1_Paradigm,2021.1.4,60.00467764822241,
N,left,Lure,0,5,5,5,516.6132435344625,518.6131351034855,left,1,1,0.5258898321189918,R27R01,2021_Oct_19_1358,t1_Paradigm,2021.1.4,60.00467764822241,
Z,left,Distractor,0,6,6,6,520.113249790098,522.1136116546113,left,1,1,0.5935491880518384,R27R01,2021_Oct_19_1358,t1_Paradigm,2021.1.4,60.00467764822241,
L,left,Pretarget,0,7,7,7,523.6133157149306,525.6135033839964,left,1,1,0.5335499387583695,R27R01,2021_Oct_19_1358,t1_Paradigm,2021.1.4,60.00467764822241,
L,right,Target,0,8,8,8,527.1138936394127,529.1133800356765,right,1,1,0.5216770622646436,R27R01,2021_Oct_19_1358,t1_Paradigm,2021.1.4,60.00467764822241,
H,left,Distractor,0,9,9,9,530.6135213489179,532.6143753234064,left,1,1,0.49276447464944795,R27R01,2021_Oct_19_1358,t1_Paradigm,2021.1.4,60.00467764822241,
L,left,Lure,0,10,10,10,534.1135263213073,536.1141839651391,left,1,1,0.4650224930373952,R27R01,2021_Oct_19_1358,t1_Paradigm,2021.1.4,60.00467764822241,
X,left,Pretarget,0,11,11,11,537.6134902311023,539.6139444865403,left,1,1,0.5652778833755292,R27R01,2021_Oct_19_1358,t1_Paradigm,2021.1.4,60.00467764822241,
X,right,Target,0,12,12,12,541.1135696295532,543.1132886071573,right,1,1,0.6659044414409436,R27R01,2021_Oct_19_1358,t1_Paradigm,2021.1.4,60.00467764822241,
X,right,Target,0,13,13,13,544.6133923865273,546.6134876646684,right,1,1,0.7016119330073707,R27R01,2021_Oct_19_1358,t1_Paradigm,2021.1.4,60.00467764822241,
R,left,Distractor,0,14,14,14,548.1134647273575,550.1140643060207,left,1,1,0.5450997677398846,R27R01,2021_Oct_19_1358,t1_Paradigm,2021.1.4,60.00467764822241,
T,left,Distractor,0,15,15,15,551.6134279955295,553.6140753736836,left,1,1,0.7570076758274809,R27R01,2021_Oct_19_1358,t1_Paradigm,2021.1.4,60.00467764822241,
V,left,Pretarget,0,16,16,16,555.1135401158244,557.1142789224396,left,1,1,0.6648984068306163,R27R01,2021_Oct_19_1358,t1_Paradigm,2021.1.4,60.00467764822241,
V,right,Target,0,17,17,17,558.6134061810444,560.6138466419652,right,1,1,0.5572533459053375,R27R01,2021_Oct_19_1358,t1_Paradigm,2021.1.4,60.00467764822241,
N,left,Distractor,0,18,18,18,562.1140633436153,564.1265877686674,left,1,1,0.564710384933278,R27R01,2021_Oct_19_1358,t1_Paradigm,2021.1.4,60.00467764822241,
B,left,Distractor,0,19,19,19,565.613446602074,567.6135255193221,left,1,1,0.6614446541643701,R27R01,2021_Oct_19_1358,t1_Paradigm,2021.1.4,60.00467764822241,
V,left,Lure,0,20,20,20,569.1133335194318,571.1135012987652,left,1,1,0.6334967177244835,R27R01,2021_Oct_19_1358,t1_Paradigm,2021.1.4,60.00467764822241,
P,left,Distractor,0,21,21,21,572.6132903715479,574.6157300696359,left,1,1,0.6032704465906136,R27R01,2021_Oct_19_1358,t1_Paradigm,2021.1.4,60.00467764822241,
K,left,Pretarget,0,22,22,22,576.1132825118839,578.1130322864628,left,1,1,0.5941240650136024,R27R01,2021_Oct_19_1358,t1_Paradigm,2021.1.4,60.00467764822241,
K,right,Target,0,23,23,23,579.6135155744851,581.613516857673,right,1,1,0.5175605328986421,R27R01,2021_Oct_19_1358,t1_Paradigm,2021.1.4,60.00467764822241,
J,left,Pretarget,0,24,24,24,583.1135369077674,585.1140995942405,left,1,1,0.5370001627015881,R27R01,2021_Oct_19_1358,t1_Paradigm,2021.1.4,60.00467764822241,
J,right,Target,0,25,25,25,586.6134790030192,588.6134825318586,right,1,1,0.5255545941763557,R27R01,2021_Oct_19_1358,t1_Paradigm,2021.1.4,60.00467764822241,
H,left,Distractor,0,26,26,26,590.1135689879884,592.1128211988253,left,1,1,0.594236345612444,R27R01,2021_Oct_19_1358,t1_Paradigm,2021.1.4,60.00467764822241,
J,left,Lure,0,27,27,27,593.6139987020288,595.6153188016615,left,1,1,0.563784871599637,R27R01,2021_Oct_19_1358,t1_Paradigm,2021.1.4,60.00467764822241,
V,left,Distractor,0,28,28,28,597.1135298501467,599.1133941509761,left,1,1,0.6978733082651161,R27R01,2021_Oct_19_1358,t1_Paradigm,2021.1.4,60.00467764822241,
Z,left,Pretarget,0,29,29,29,600.6140673536574,602.6157178791473,left,1,1,0.6673599194618873,R27R01,2021_Oct_19_1358,t1_Paradigm,2021.1.4,60.00467764822241,
Z,right,Target,0,30,30,30,604.1134044165956,606.1132991936174,right,1,1,0.6736521269776858,R27R01,2021_Oct_19_1358,t1_Paradigm,2021.1.4,60.00467764822241,
T,left,Distractor,0,31,31,31,607.613442110829,609.6136156646535,left,1,1,0.7574571191798896,R27R01,2021_Oct_19_1358,t1_Paradigm,2021.1.4,60.00467764822241,
Z,left,Lure,0,32,32,32,611.1141486769193,613.1155791323399,left,1,1,0.9195162693504244,R27R01,2021_Oct_19_1358,t1_Paradigm,2021.1.4,60.00467764822241,
F,left,Distractor,0,33,33,33,614.6140535591403,616.6156588516315,left,1,1,0.715418603096623,R27R01,2021_Oct_19_1358,t1_Paradigm,2021.1.4,60.00467764822241,
Y,left,Pretarget,0,34,34,34,618.1133351234021,620.1140049576643,left,1,1,0.688946996757295,R27R01,2021_Oct_19_1358,t1_Paradigm,2021.1.4,60.00467764822241,
Y,right,Target,0,35,35,35,621.6132996748202,623.6133805168793,right,1,1,0.6456445213989355,R27R01,2021_Oct_19_1358,t1_Paradigm,2021.1.4,60.00467764822241,
Y,right,Target,0,36,36,36,625.1134435544373,627.1137239352684,right,1,1,0.7613263103412464,R27R01,2021_Oct_19_1358,t1_Paradigm,2021.1.4,60.00467764822241,
W,left,Distractor,0,37,37,37,628.6136682761135,630.613811674586,left,1,1,0.7494675491470844,R27R01,2021_Oct_19_1358,t1_Paradigm,2021.1.4,60.00467764822241,
Q,left,Distractor,0,38,38,38,632.113325820188,634.1138971682522,left,1,1,0.5610599806532264,R27R01,2021_Oct_19_1358,t1_Paradigm,2021.1.4,60.00467764822241,
P,left,Pretarget,0,39,39,39,635.6132823515218,637.6137054891442,left,1,1,0.613405860203784,R27R01,2021_Oct_19_1358,t1_Paradigm,2021.1.4,60.00467764822241,
P,right,Target,0,40,40,40,639.1133848477039,641.113311384106,right,1,1,0.6177013969863765,R27R01,2021_Oct_19_1358,t1_Paradigm,2021.1.4,60.00467764822241,
J,left,Distractor,0,41,41,41,642.6132971083862,644.6150496489136,left,1,1,0.6202055762405507,R27R01,2021_Oct_19_1358,t1_Paradigm,2021.1.4,60.00467764822241,
P,left,Lure,0,42,42,42,646.1132494693156,648.1139064715244,left,1,1,0.8651843054685742,R27R01,2021_Oct_19_1358,t1_Paradigm,2021.1.4,60.00467764822241,
L,left,Distractor,0,43,43,43,649.6135078752413,651.6139294088352,left,1,1,0.7250949493027292,R27R01,2021_Oct_19_1358,t1_Paradigm,2021.1.4,60.00467764822241,
Z,left,Distractor,0,44,44,44,653.1135304917698,655.1153093380271,left,1,1,0.8237055885838345,R27R01,2021_Oct_19_1358,t1_Paradigm,2021.1.4,60.00467764822241,
F,left,Pretarget,0,45,45,45,656.6134077850147,658.6142479651025,left,1,1,0.7328339731320739,R27R01,2021_Oct_19_1358,t1_Paradigm,2021.1.4,60.00467764822241,
F,right,Target,0,46,46,46,660.1135279253358,662.1136469428311,right,1,1,0.6574102501035668,R27R01,2021_Oct_19_1358,t1_Paradigm,2021.1.4,60.00467764822241,
G,left,Pretarget,0,47,47,47,663.6133811585023,665.6135861508665,left,1,1,0.6136140606249683,R27R01,2021_Oct_19_1358,t1_Paradigm,2021.1.4,60.00467764822241,
G,right,Target,0,48,48,48,667.1134024917847,669.1133970381925,right,1,1,0.6335663317586295,R27R01,2021_Oct_19_1358,t1_Paradigm,2021.1.4,60.00467764822241,
V,left,Distractor,0,49,49,49,670.6134376195841,672.6136788625736,left,1,1,0.6533626931486651,R27R01,2021_Oct_19_1358,t1_Paradigm,2021.1.4,60.00467764822241,
G,left,Lure,0,50,50,50,674.11328379513,676.1137050079415,left,1,1,0.5294183317455463,R27R01,2021_Oct_19_1358,t1_Paradigm,2021.1.4,60.00467764822241,
Q,left,Pretarget,0,51,51,51,677.6140833937097,679.6151529470808,left,1,1,0.6597418379387818,R27R01,2021_Oct_19_1358,t1_Paradigm,2021.1.4,60.00467764822241,
Q,right,Target,0,52,52,52,681.1130829731701,683.1132757750456,right,1,1,0.6979008972411975,R27R01,2021_Oct_19_1358,t1_Paradigm,2021.1.4,60.00467764822241,
Y,left,Distractor,0,53,53,53,684.6134892686969,686.6131572388113,left,1,1,0.6377896880730987,R27R01,2021_Oct_19_1358,t1_Paradigm,2021.1.4,60.00467764822241,
V,left,Distractor,0,54,54,54,688.1140543611837,690.1138759953319,left,1,1,0.6411356513854116,R27R01,2021_Oct_19_1358,t1_Paradigm,2021.1.4,60.00467764822241,
B,left,Distractor,0,55,55,55,691.613359343959,693.6299377420219,left,1,1,0.6770385113195516,R27R01,2021_Oct_19_1358,t1_Paradigm,2021.1.4,60.00467764822241,
J,left,Pretarget,0,56,56,56,695.113226050802,697.1136434139917,left,1,1,0.889291922969278,R27R01,2021_Oct_19_1358,t1_Paradigm,2021.1.4,60.00467764822241,
J,right,Target,0,57,57,57,698.6134863814805,700.6132762562484,right,1,1,0.7657966840779409,R27R01,2021_Oct_19_1358,t1_Paradigm,2021.1.4,60.00467764822241,
H,left,Distractor,0,58,58,58,702.1133007976459,704.1145012381603,left,1,1,0.7845279834000394,R27R01,2021_Oct_19_1358,t1_Paradigm,2021.1.4,60.00467764822241,
J,left,Lure,0,59,59,59,705.6133134692791,707.6138142409618,left,1,1,0.8211154344608076,R27R01,2021_Oct_19_1358,t1_Paradigm,2021.1.4,60.00467764822241,
D,left,Pretarget,0,60,60,60,709.1133383314591,711.1147030225256,left,1,1,0.792314485879615,R27R01,2021_Oct_19_1358,t1_Paradigm,2021.1.4,60.00467764822241,
D,right,Target,0,61,61,61,712.6131383114844,714.6131405570777,right,1,1,0.7980138516286388,R27R01,2021_Oct_19_1358,t1_Paradigm,2021.1.4,60.00467764822241,
R,left,Distractor,0,62,62,62,716.113226050802,718.1131862713373,left,1,1,0.8979696130263619,R27R01,2021_Oct_19_1358,t1_Paradigm,2021.1.4,60.00467764822241,
F,left,Distractor,0,63,63,63,719.6134405068005,721.6136541608721,left,1,1,0.7092617739690468,R27R01,2021_Oct_19_1358,t1_Paradigm,2021.1.4,60.00467764822241,
F,left,Distractor,0,0,0,0,866.5246371009271,868.5131523946766,None,0,2,,R27R01,2021_Oct_19_1358,t1_Paradigm,2021.1.4,60.00467764822241,
N,left,Pretarget,0,1,1,1,870.0132119034533,872.013570880692,None,0,2,,R27R01,2021_Oct_19_1358,t1_Paradigm,2021.1.4,60.00467764822241,
V,left,Distractor,0,2,2,2,873.5131825500284,875.5137000034447,left,1,2,1.0012228966807015,R27R01,2021_Oct_19_1358,t1_Paradigm,2021.1.4,60.00467764822241,
N,right,Target,0,3,3,3,877.0131493470399,879.0137322440278,right,1,2,0.5730605362332426,R27R01,2021_Oct_19_1358,t1_Paradigm,2021.1.4,60.00467764822241,
N,left,Lure,0,4,4,4,880.5132640337106,882.5133204948506,left,1,2,0.8175628747558221,R27R01,2021_Oct_19_1358,t1_Paradigm,2021.1.4,60.00467764822241,
X,left,Distractor,0,5,5,5,884.0138579983613,886.0149012459442,left,1,2,0.9643499319208786,R27R01,2021_Oct_19_1358,t1_Paradigm,2021.1.4,60.00467764822241,
G,left,Pretarget,0,6,6,6,887.5130571165355,889.5131568859215,left,1,2,0.7298845209297724,R27R01,2021_Oct_19_1358,t1_Paradigm,2021.1.4,60.00467764822241,
H,left,Pretarget,0,7,7,7,891.0130428408738,893.0138012164389,left,1,2,0.6371625204919837,R27R01,2021_Oct_19_1358,t1_Paradigm,2021.1.4,60.00467764822241,
G,right,Target,0,8,8,8,894.5138642539969,896.5137224595528,right,1,2,0.48131922708125785,R27R01,2021_Oct_19_1358,t1_Paradigm,2021.1.4,60.00467764822241,
H,right,Target,0,9,9,9,898.0131974673714,900.0135474621784,right,1,2,0.4533992003998719,R27R01,2021_Oct_19_1358,t1_Paradigm,2021.1.4,60.00467764822241,
T,left,Pretarget,0,10,10,10,901.5132053269772,903.5133965248824,left,1,2,0.5214184959186241,R27R01,2021_Oct_19_1358,t1_Paradigm,2021.1.4,60.00467764822241,
K,left,Distractor,0,11,11,11,905.0132558532641,907.0136607052409,left,1,2,0.6211573953623883,R27R01,2021_Oct_19_1358,t1_Paradigm,2021.1.4,60.00467764822241,
T,right,Target,0,12,12,12,908.5131302593509,910.5321557339048,right,1,2,0.5907431342639029,R27R01,2021_Oct_19_1358,t1_Paradigm,2021.1.4,60.00467764822241,
T,left,Lure,0,13,13,13,912.014049517049,914.0134075925453,left,1,2,0.6455187670653686,R27R01,2021_Oct_19_1358,t1_Paradigm,2021.1.4,60.00467764822241,
J,left,Distractor,0,14,14,14,915.5140028403839,917.5150390303461,left,1,2,0.5838885611156002,R27R01,2021_Oct_19_1358,t1_Paradigm,2021.1.4,60.00467764822241,
Q,left,Pretarget,0,15,15,15,919.0129828508943,921.0134794521728,left,1,2,0.5413492732914165,R27R01,2021_Oct_19_1358,t1_Paradigm,2021.1.4,60.00467764822241,
M,left,Distractor,0,16,16,16,922.5131061992142,924.5150204238598,left,1,2,0.5597713196184486,R27R01,2021_Oct_19_1358,t1_Paradigm,2021.1.4,60.00467764822241,
Q,right,Target,0,17,17,17,926.0130880739307,928.0155332256109,right,1,2,0.4192710163188167,R27R01,2021_Oct_19_1358,t1_Paradigm,2021.1.4,60.00467764822241,
R,left,Distractor,0,18,18,18,929.5130548709421,931.5126962144277,left,1,2,0.49012074660276994,R27R01,2021_Oct_19_1358,t1_Paradigm,2021.1.4,60.00467764822241,
W,left,Distractor,0,19,19,19,933.0129943997599,935.015007431386,left,1,2,0.49190697132144123,R27R01,2021_Oct_19_1358,t1_Paradigm,2021.1.4,60.00467764822241,
C,left,Pretarget,0,20,20,20,936.513096895942,938.5146434816997,left,1,2,0.5443198984721676,R27R01,2021_Oct_19_1358,t1_Paradigm,2021.1.4,60.00467764822241,
T,left,Distractor,0,21,21,21,940.0130983395502,942.0134310111171,left,1,2,0.5333690065308474,R27R01,2021_Oct_19_1358,t1_Paradigm,2021.1.4,60.00467764822241,
C,right,Target,0,22,22,22,943.5130259987782,945.5155359524069,right,1,2,0.43931407429045066,R27R01,2021_Oct_19_1358,t1_Paradigm,2021.1.4,60.00467764822241,
F,left,Pretarget,0,23,23,23,947.0133806451922,949.0134874721989,left,1,2,0.5573313006898388,R27R01,2021_Oct_19_1358,t1_Paradigm,2021.1.4,60.00467764822241,
C,right,Target,0,24,24,24,950.513125768106,952.5133018883644,right,1,2,0.6415279920911416,R27R01,2021_Oct_19_1358,t1_Paradigm,2021.1.4,60.00467764822241,
F,right,Target,0,25,25,25,954.013286650239,956.0128821191029,right,1,2,0.6620301175280474,R27R01,2021_Oct_19_1358,t1_Paradigm,2021.1.4,60.00467764822241,
H,left,Distractor,0,26,26,26,957.5141292363405,959.5154599223752,left,1,2,0.5353137073107064,R27R01,2021_Oct_19_1358,t1_Paradigm,2021.1.4,60.00467764822241,
H,left,Lure,0,27,27,27,961.0139134970959,963.0134229910327,left,1,2,0.5734377992339432,R27R01,2021_Oct_19_1358,t1_Paradigm,2021.1.4,60.00467764822241,
P,left,Distractor,0,28,28,28,964.5135399232968,966.5154750000802,left,1,2,0.7033744184300303,R27R01,2021_Oct_19_1358,t1_Paradigm,2021.1.4,60.00467764822241,
G,left,Pretarget,0,29,29,29,968.0133322041365,970.0143478628015,left,1,2,0.5485881670610979,R27R01,2021_Oct_19_1358,t1_Paradigm,2021.1.4,60.00467764822241,
K,left,Distractor,0,30,30,30,971.5130166955059,973.5129400238511,left,1,2,0.537835851428099,R27R01,2021_Oct_19_1358,t1_Paradigm,2021.1.4,60.00467764822241,
G,right,Target,0,31,31,31,975.0137745898683,977.0135240436066,right,1,2,0.46139967773342505,R27R01,2021_Oct_19_1358,t1_Paradigm,2021.1.4,60.00467764822241,
M,left,Pretarget,0,32,32,32,978.5137205347419,980.5134658180759,left,1,2,0.6413531550206244,R27R01,2021_Oct_19_1358,t1_Paradigm,2021.1.4,60.00467764822241,
B,left,Distractor,0,33,33,33,982.0130617681425,984.0133921940578,left,1,2,0.5497491490095854,R27R01,2021_Oct_19_1358,t1_Paradigm,2021.1.4,60.00467764822241,
M,right,Target,0,34,34,34,985.5131764548132,987.513772504637,right,1,2,0.40912886580917984,R27R01,2021_Oct_19_1358,t1_Paradigm,2021.1.4,60.00467764822241,
M,left,Lure,0,35,35,35,989.0130787706585,991.0131949009374,left,1,2,0.5415991779882461,R27R01,2021_Oct_19_1358,t1_Paradigm,2021.1.4,60.00467764822241,
T,left,Distractor,0,36,36,36,992.5131084448076,994.51508747146,left,1,2,0.5596721918554977,R27R01,2021_Oct_19_1358,t1_Paradigm,2021.1.4,60.00467764822241,
F,left,Distractor,0,37,37,37,996.0130457280902,998.0132872918621,left,1,2,0.5977148000965826,R27R01,2021_Oct_19_1358,t1_Paradigm,2021.1.4,60.00467764822241,
X,left,Distractor,0,38,38,38,999.513085026294,1001.5134099985589,left,1,2,0.5534560143714771,R27R01,2021_Oct_19_1358,t1_Paradigm,2021.1.4,60.00467764822241,
C,left,Distractor,0,39,39,39,1003.013021347113,1005.013304294378,left,1,2,0.557480794377625,R27R01,2021_Oct_19_1358,t1_Paradigm,2021.1.4,60.00467764822241,
R,left,Distractor,0,40,40,40,1006.5130478132633,1008.5130038634525,left,1,2,0.5938452882110141,R27R01,2021_Oct_19_1358,t1_Paradigm,2021.1.4,60.00467764822241,
B,left,Pretarget,0,41,41,41,1010.0128317532362,1012.0148489552666,left,1,2,0.6761431533377618,R27R01,2021_Oct_19_1358,t1_Paradigm,2021.1.4,60.00467764822241,
H,left,Distractor,0,42,42,42,1013.5129541391507,1015.5133124748245,left,1,2,0.5854406005237252,R27R01,2021_Oct_19_1358,t1_Paradigm,2021.1.4,60.00467764822241,
B,right,Target,0,43,43,43,1017.0130037030322,1019.0126277232775,right,1,2,0.4465847274987027,R27R01,2021_Oct_19_1358,t1_Paradigm,2021.1.4,60.00467764822241,
W,left,Pretarget,0,44,44,44,1020.5130282443715,1022.5126923648058,left,1,2,0.6101384934154339,R27R01,2021_Oct_19_1358,t1_Paradigm,2021.1.4,60.00467764822241,
L,left,Pretarget,0,45,45,45,1024.0131025100127,1026.0125507308403,left,1,2,0.6468212226172909,R27R01,2021_Oct_19_1358,t1_Paradigm,2021.1.4,60.00467764822241,
W,right,Target,0,46,46,46,1027.5135588506237,1029.513589968381,right,1,2,0.5532580796279944,R27R01,2021_Oct_19_1358,t1_Paradigm,2021.1.4,60.00467764822241,
L,right,Target,0,47,47,47,1031.013023913547,1033.0134842642,right,1,2,0.4933810557704419,R27R01,2021_Oct_19_1358,t1_Paradigm,2021.1.4,60.00467764822241,
W,right,Target,0,48,48,48,1034.5131575274863,1036.5129698584205,right,1,2,0.4501821993617341,R27R01,2021_Oct_19_1358,t1_Paradigm,2021.1.4,60.00467764822241,
X,left,Distractor,0,49,49,49,1038.0132840838633,1040.0146099578706,left,1,2,0.532131994550582,R27R01,2021_Oct_19_1358,t1_Paradigm,2021.1.4,60.00467764822241,
R,left,Distractor,0,50,50,50,1041.513083743106,1043.5129791616928,left,1,2,0.6178685347549617,R27R01,2021_Oct_19_1358,t1_Paradigm,2021.1.4,60.00467764822241,
V,left,Pretarget,0,51,51,51,1045.013358189084,1047.0128923847806,left,1,2,0.6538336302037351,R27R01,2021_Oct_19_1358,t1_Paradigm,2021.1.4,60.00467764822241,
Z,left,Distractor,0,52,52,52,1048.5129361742293,1050.5154859073227,left,1,2,0.6393831108580343,R27R01,2021_Oct_19_1358,t1_Paradigm,2021.1.4,60.00467764822241,
V,right,Target,0,53,53,53,1052.013279271836,1054.014373206126,right,1,2,0.4205038577783853,R27R01,2021_Oct_19_1358,t1_Paradigm,2021.1.4,60.00467764822241,
V,left,Lure,0,54,54,54,1055.5130372268031,1057.5129551015561,left,1,2,0.7139820524025708,R27R01,2021_Oct_19_1358,t1_Paradigm,2021.1.4,60.00467764822241,
N,left,Distractor,0,55,55,55,1059.012961677974,1061.012893347186,left,1,2,0.83000292890938,R27R01,2021_Oct_19_1358,t1_Paradigm,2021.1.4,60.00467764822241,
B,left,Distractor,0,56,56,56,1062.5130458884523,1064.5135171464062,left,1,2,0.6892594578093849,R27R01,2021_Oct_19_1358,t1_Paradigm,2021.1.4,60.00467764822241,
V,left,Lure,0,57,57,57,1066.0130794122815,1068.0134826601716,left,1,2,0.5653638583025895,R27R01,2021_Oct_19_1358,t1_Paradigm,2021.1.4,60.00467764822241,
J,left,Distractor,0,58,58,58,1069.513041718048,1071.5134196226136,left,1,2,0.5534165557473898,R27R01,2021_Oct_19_1358,t1_Paradigm,2021.1.4,60.00467764822241,
H,left,Distractor,0,59,59,59,1073.01306144736,1075.013346961001,left,1,2,0.49352028383873403,R27R01,2021_Oct_19_1358,t1_Paradigm,2021.1.4,60.00467764822241,
X,left,Pretarget,0,60,60,60,1076.5130766854272,1078.5150608448894,left,1,2,0.5596105979057029,R27R01,2021_Oct_19_1358,t1_Paradigm,2021.1.4,60.00467764822241,
P,left,Distractor,0,61,61,61,1080.0129023296176,1082.0133245048928,left,1,2,0.517501826165244,R27R01,2021_Oct_19_1358,t1_Paradigm,2021.1.4,60.00467764822241,
X,right,Target,0,62,62,62,1083.5130920839147,1085.513286489877,right,1,2,0.4575080304639414,R27R01,2021_Oct_19_1358,t1_Paradigm,2021.1.4,60.00467764822241,
Q,left,Distractor,0,63,63,63,1087.013175652828,1089.012530199485,left,1,2,0.5582250547013246,R27R01,2021_Oct_19_1358,t1_Paradigm,2021.1.4,60.00467764822241,
B,left,Pretarget,0,0,0,0,1105.1268209916307,1107.1125135498587,None,0,2,,R27R01,2021_Oct_19_1358,t1_Paradigm,2021.1.4,60.00467764822241,
F,left,Distractor,0,1,1,1,1108.613164296432,1110.6126086676377,None,0,2,,R27R01,2021_Oct_19_1358,t1_Paradigm,2021.1.4,60.00467764822241,
B,right,Target,0,2,2,2,1112.1128927376703,1114.1148701602942,right,1,2,0.6399454764905386,R27R01,2021_Oct_19_1358,t1_Paradigm,2021.1.4,60.00467764822241,
V,left,Distractor,0,3,3,3,1115.6132255695993,1117.612812376814,left,1,2,0.6141132282791659,R27R01,2021_Oct_19_1358,t1_Paradigm,2021.1.4,60.00467764822241,
G,left,Pretarget,0,4,4,4,1119.1131464919308,1121.112639625033,left,1,2,0.6341601359308697,R27R01,2021_Oct_19_1358,t1_Paradigm,2021.1.4,60.00467764822241,
B,left,Lure,0,5,5,5,1122.6130449581542,1124.6136772586033,left,1,2,0.7652006342541426,R27R01,2021_Oct_19_1358,t1_Paradigm,2021.1.4,60.00467764822241,
G,right,Target,0,6,6,6,1126.1130691787112,1128.1261748966645,right,1,2,0.5966285649919882,R27R01,2021_Oct_19_1358,t1_Paradigm,2021.1.4,60.00467764822241,
Y,left,Pretarget,0,7,7,7,1129.6132246071938,1131.6150852579158,left,1,2,0.5798734052223153,R27R01,2021_Oct_19_1358,t1_Paradigm,2021.1.4,60.00467764822241,
P,left,Distractor,0,8,8,8,1133.1132947023725,1135.114897749212,left,1,2,0.5678863232024014,R27R01,2021_Oct_19_1358,t1_Paradigm,2021.1.4,60.00467764822241,
Y,right,Target,0,9,9,9,1136.6131841861643,1138.6126670535887,right,1,2,0.41425014653941616,R27R01,2021_Oct_19_1358,t1_Paradigm,2021.1.4,60.00467764822241,
X,left,Distractor,0,10,10,10,1140.1130935596302,1142.113703403913,left,1,2,0.49722843238851056,R27R01,2021_Oct_19_1358,t1_Paradigm,2021.1.4,60.00467764822241,
Y,right,Target,0,11,11,11,1143.6128858404118,1145.6148106515175,right,1,2,0.41990812873700634,R27R01,2021_Oct_19_1358,t1_Paradigm,2021.1.4,60.00467764822241,
N,left,Distractor,0,12,12,12,1147.1129119857796,1149.1140877245343,left,1,2,0.47271050937706605,R27R01,2021_Oct_19_1358,t1_Paradigm,2021.1.4,60.00467764822241,
Y,right,Target,0,13,13,13,1150.6130314844777,1152.6140256493818,right,1,2,0.5566168749937788,R27R01,2021_Oct_19_1358,t1_Paradigm,2021.1.4,60.00467764822241,
Y,left,Lure,0,14,14,14,1154.1130245872191,1156.1130909931962,left,1,2,0.6096717266482301,R27R01,2021_Oct_19_1358,t1_Paradigm,2021.1.4,60.00467764822241,
K,left,Distractor,0,15,15,15,1157.6129884970142,1159.6145937895053,left,1,2,0.5002038695965894,R27R01,2021_Oct_19_1358,t1_Paradigm,2021.1.4,60.00467764822241,
T,left,Pretarget,0,16,16,16,1161.1131952538271,1163.1133338402142,left,1,2,0.5373658767784946,R27R01,2021_Oct_19_1358,t1_Paradigm,2021.1.4,60.00467764822241,
J,left,Distractor,0,17,17,17,1164.6131601260277,1166.6150413080468,left,1,2,0.49176581850042567,R27R01,2021_Oct_19_1358,t1_Paradigm,2021.1.4,60.00467764822241,
T,right,Target,0,18,18,18,1168.1128744519665,1170.1139847471495,right,1,2,0.4489185609272681,R27R01,2021_Oct_19_1358,t1_Paradigm,2021.1.4,60.00467764822241,
S,left,Pretarget,0,19,19,19,1171.6128527978435,1173.6131691084593,left,1,2,0.5016224553692155,R27R01,2021_Oct_19_1358,t1_Paradigm,2021.1.4,60.00467764822241,
R,left,Distractor,0,20,20,20,1175.1128064419609,1177.113082331547,left,1,2,0.521775227622129,R27R01,2021_Oct_19_1358,t1_Paradigm,2021.1.4,60.00467764822241,
S,right,Target,0,21,21,21,1178.6135200656718,1180.61323262722,right,1,2,0.493515151028987,R27R01,2021_Oct_19_1358,t1_Paradigm,2021.1.4,60.00467764822241,
Q,left,Distractor,0,22,22,22,1182.1131070333067,1184.11277821142,left,1,2,0.43415846780408174,R27R01,2021_Oct_19_1358,t1_Paradigm,2021.1.4,60.00467764822241,
D,left,Distractor,0,23,23,23,1185.6132544417633,1187.614783383382,left,1,2,0.5481226835981943,R27R01,2021_Oct_19_1358,t1_Paradigm,2021.1.4,60.00467764822241,
F,left,Distractor,0,24,24,24,1189.1128920960473,1191.113124356605,left,1,2,0.5056472353753634,R27R01,2021_Oct_19_1358,t1_Paradigm,2021.1.4,60.00467764822241,
Z,left,Distractor,0,25,25,25,1192.6129156749812,1194.6148645462235,left,1,2,0.6038876693346538,R27R01,2021_Oct_19_1358,t1_Paradigm,2021.1.4,60.00467764822241,
P,left,Distractor,0,26,26,26,1196.1127891186625,1198.113154511957,left,1,2,0.4657189538120292,R27R01,2021_Oct_19_1358,t1_Paradigm,2021.1.4,60.00467764822241,
H,left,Distractor,0,27,27,27,1199.6129493591725,1201.615317197633,left,1,2,0.5154249549959786,R27R01,2021_Oct_19_1358,t1_Paradigm,2021.1.4,60.00467764822241,
Z,left,Pretarget,0,28,28,28,1203.112773720175,1205.1128404469346,left,1,2,0.5377986384555697,R27R01,2021_Oct_19_1358,t1_Paradigm,2021.1.4,60.00467764822241,
J,left,Pretarget,0,29,29,29,1206.6128954644664,1208.6130866623716,None,0,2,,R27R01,2021_Oct_19_1358,t1_Paradigm,2021.1.4,60.00467764822241,
Z,right,Target,0,30,30,30,1210.1127820610418,1212.1145535288379,right,1,2,0.4646368892281316,R27R01,2021_Oct_19_1358,t1_Paradigm,2021.1.4,60.00467764822241,
J,right,Target,0,31,31,31,1213.612885198847,1215.6134376195841,right,1,2,0.42128148151095957,R27R01,2021_Oct_19_1358,t1_Paradigm,2021.1.4,60.00467764822241,
V,left,Pretarget,0,32,32,32,1217.1131150533329,1219.1124070436344,left,1,2,0.6665656140539795,R27R01,2021_Oct_19_1358,t1_Paradigm,2021.1.4,60.00467764822241,
Z,left,Lure,0,33,33,33,1220.613510441617,1222.613515574485,left,1,2,0.7814065813436173,R27R01,2021_Oct_19_1358,t1_Paradigm,2021.1.4,60.00467764822241,
V,right,Target,0,34,34,34,1224.1129613892408,1226.1137075743754,right,1,2,0.44921337778214365,R27R01,2021_Oct_19_1358,t1_Paradigm,2021.1.4,60.00467764822241,
X,left,Distractor,0,35,35,35,1227.6136050781934,1229.6149726564763,left,1,2,0.5316857591969892,R27R01,2021_Oct_19_1358,t1_Paradigm,2021.1.4,60.00467764822241,
S,left,Distractor,0,36,36,36,1231.112883434398,1233.1131936497986,left,1,2,0.6334662415320054,R27R01,2021_Oct_19_1358,t1_Paradigm,2021.1.4,60.00467764822241,
Q,left,Distractor,0,37,37,37,1234.6128999557113,1236.6133336797939,left,1,2,0.5573697969666682,R27R01,2021_Oct_19_1358,t1_Paradigm,2021.1.4,60.00467764822241,
P,left,Distractor,0,38,38,38,1238.1128962665098,1240.113012717571,left,1,2,0.5937323659309186,R27R01,2021_Oct_19_1358,t1_Paradigm,2021.1.4,60.00467764822241,
S,left,Lure,0,39,39,39,1241.6131671836483,1243.614168085449,left,1,2,0.5647982846130617,R27R01,2021_Oct_19_1358,t1_Paradigm,2021.1.4,60.00467764822241,
K,left,Pretarget,0,40,40,40,1245.113124356605,1247.1132520357496,left,1,2,0.6015037907636724,R27R01,2021_Oct_19_1358,t1_Paradigm,2021.1.4,60.00467764822241,
L,left,Distractor,0,41,41,41,1248.6128495897865,1250.6132971083862,left,1,2,0.5573938571033068,R27R01,2021_Oct_19_1358,t1_Paradigm,2021.1.4,60.00467764822241,
K,right,Target,0,42,42,42,1252.1130082263262,1254.1135324165807,right,1,2,0.3851168472901918,R27R01,2021_Oct_19_1358,t1_Paradigm,2021.1.4,60.00467764822241,
B,left,Distractor,0,43,43,43,1255.6128797451966,1257.6134732285864,left,1,2,0.5173029290162958,R27R01,2021_Oct_19_1358,t1_Paradigm,2021.1.4,60.00467764822241,
N,left,Distractor,0,44,44,44,1259.1129921862157,1261.1149372078362,left,1,2,0.4397551768925041,R27R01,2021_Oct_19_1358,t1_Paradigm,2021.1.4,60.00467764822241,
S,left,Pretarget,0,45,45,45,1262.6127498204587,1264.612809168757,left,1,2,0.4939328350010328,R27R01,2021_Oct_19_1358,t1_Paradigm,2021.1.4,60.00467764822241,
Z,left,Distractor,0,46,46,46,1266.1130451185163,1268.1139116043341,left,1,2,0.4969512596144341,R27R01,2021_Oct_19_1358,t1_Paradigm,2021.1.4,60.00467764822241,
S,right,Target,0,47,47,47,1269.6127661813516,1271.6130917952396,right,1,2,0.43754421052290127,R27R01,2021_Oct_19_1358,t1_Paradigm,2021.1.4,60.00467764822241,
C,left,Distractor,0,48,48,48,1273.1129684469197,1275.1131606072304,left,1,2,0.45743392524309456,R27R01,2021_Oct_19_1358,t1_Paradigm,2021.1.4,60.00467764822241,
T,left,Pretarget,0,49,49,49,1276.6127648981055,1278.6148578093853,left,1,2,0.4918922144570388,R27R01,2021_Oct_19_1358,t1_Paradigm,2021.1.4,60.00467764822241,
S,left,Lure,0,50,50,50,1280.1134634441696,1282.113411795057,left,1,2,0.44954316213261336,R27R01,2021_Oct_19_1358,t1_Paradigm,2021.1.4,60.00467764822241,
T,right,Target,0,51,51,51,1283.612907654955,1285.6135466922424,right,1,2,0.48512201220728457,R27R01,2021_Oct_19_1358,t1_Paradigm,2021.1.4,60.00467764822241,
N,left,Pretarget,0,52,52,52,1287.1128882464254,1289.1131760057178,left,1,2,0.425525690021459,R27R01,2021_Oct_19_1358,t1_Paradigm,2021.1.4,60.00467764822241,
B,left,Distractor,0,53,53,53,1290.6128845572239,1292.6135210280772,left,1,2,0.5092556145973504,R27R01,2021_Oct_19_1358,t1_Paradigm,2021.1.4,60.00467764822241,
N,right,Target,0,54,54,54,1294.1128702815622,1296.1147104009287,right,1,2,0.38404184026876464,R27R01,2021_Oct_19_1358,t1_Paradigm,2021.1.4,60.00467764822241,
N,left,Lure,0,55,55,55,1297.6126859808573,1299.6128919356852,left,1,2,0.5338402644265443,R27R01,2021_Oct_19_1358,t1_Paradigm,2021.1.4,60.00467764822241,
X,left,Distractor,0,56,56,56,1301.112760567281,1303.1139353436884,left,1,2,0.6327383421594277,R27R01,2021_Oct_19_1358,t1_Paradigm,2021.1.4,60.00467764822241,
W,left,Distractor,0,57,57,57,1304.6129198454437,1306.613864286046,left,1,2,0.8289542276761495,R27R01,2021_Oct_19_1358,t1_Paradigm,2021.1.4,60.00467764822241,
S,left,Distractor,0,58,58,58,1308.113044797734,1310.114054040343,left,1,2,0.48079214961035177,R27R01,2021_Oct_19_1358,t1_Paradigm,2021.1.4,60.00467764822241,
L,left,Distractor,0,59,59,59,1311.6135954541387,1313.6134950431297,left,1,2,0.4692647766787559,R27R01,2021_Oct_19_1358,t1_Paradigm,2021.1.4,60.00467764822241,
K,left,Pretarget,0,60,60,60,1315.1128205572604,1317.1135205468745,left,1,2,0.4731275517260656,R27R01,2021_Oct_19_1358,t1_Paradigm,2021.1.4,60.00467764822241,
V,left,Pretarget,0,61,61,61,1318.6128534394666,1320.613392707368,left,1,2,0.49333389790263027,R27R01,2021_Oct_19_1358,t1_Paradigm,2021.1.4,60.00467764822241,
K,right,Target,0,62,62,62,1322.1131233941996,1324.1149080148898,right,1,2,0.46396384690888226,R27R01,2021_Oct_19_1358,t1_Paradigm,2021.1.4,60.00467764822241,
V,right,Target,0,63,63,63,1325.6131582012167,1327.6152020297595,right,1,2,0.48353949666488916,R27R01,2021_Oct_19_1358,t1_Paradigm,2021.1.4,60.00467764822241,
R,left,Distractor,0,0,0,0,1433.791163769667,1435.779680025822,None,0,3,,R27R01,2021_Oct_19_1358,t1_Paradigm,2021.1.4,60.00467764822241,
P,left,Lure,0,1,1,1,1437.2794434344396,1439.2797924668994,None,0,3,,R27R01,2021_Oct_19_1358,t1_Paradigm,2021.1.4,60.00467764822241,
V,left,Distractor,0,2,2,2,1440.7795151336468,1442.7796659105225,None,0,3,,R27R01,2021_Oct_19_1358,t1_Paradigm,2021.1.4,60.00467764822241,
P,left,Pretarget,0,3,3,3,1444.2794145622756,1446.2797202864313,left,1,3,0.7152017410262488,R27R01,2021_Oct_19_1358,t1_Paradigm,2021.1.4,60.00467764822241,
Z,left,Distractor,0,4,4,4,1447.779413439508,1449.7804897297174,left,1,3,0.6221088935853913,R27R01,2021_Oct_19_1358,t1_Paradigm,2021.1.4,60.00467764822241,
L,left,Pretarget,0,5,5,5,1451.2797459505964,1453.280282652122,left,1,3,0.5464804989169352,R27R01,2021_Oct_19_1358,t1_Paradigm,2021.1.4,60.00467764822241,
P,right,Target,0,6,6,6,1454.7794185723178,1456.7803062310559,right,1,3,0.37431544897845015,R27R01,2021_Oct_19_1358,t1_Paradigm,2021.1.4,60.00467764822241,
S,left,Distractor,0,7,7,7,1458.2795422414201,1460.2801838451414,left,1,3,0.5064457111875527,R27R01,2021_Oct_19_1358,t1_Paradigm,2021.1.4,60.00467764822241,
L,right,Target,0,8,8,8,1461.7802895493223,1463.7810710226768,left,0,3,0.9096528955851682,R27R01,2021_Oct_19_1358,t1_Paradigm,2021.1.4,60.00467764822241,
D,left,Distractor,0,9,9,9,1465.2793119057314,1467.2794264319818,left,1,3,0.4513037226861343,R27R01,2021_Oct_19_1358,t1_Paradigm,2021.1.4,60.00467764822241,
G,left,Distractor,0,10,10,10,1468.7795305321924,1470.7799607274355,left,1,3,0.4706897785072215,R27R01,2021_Oct_19_1358,t1_Paradigm,2021.1.4,60.00467764822241,
M,left,Pretarget,0,11,11,11,1472.279589399288,1474.2805123462458,left,1,3,0.6341598151484504,R27R01,2021_Oct_19_1358,t1_Paradigm,2021.1.4,60.00467764822241,
Y,left,Distractor,0,12,12,12,1475.7796149030328,1477.7810334888636,left,1,3,0.5415616441168822,R27R01,2021_Oct_19_1358,t1_Paradigm,2021.1.4,60.00467764822241,
V,left,Distractor,0,13,13,13,1479.2794537001173,1481.2802338902256,left,1,3,0.5305635943077505,R27R01,2021_Oct_19_1358,t1_Paradigm,2021.1.4,60.00467764822241,
M,right,Target,0,14,14,14,1482.779510000837,1484.7816173481988,left,0,3,0.629143115831539,R27R01,2021_Oct_19_1358,t1_Paradigm,2021.1.4,60.00467764822241,
S,left,Pretarget,0,15,15,15,1486.2795236349339,1488.2804459402687,left,1,3,0.7143355760490522,R27R01,2021_Oct_19_1358,t1_Paradigm,2021.1.4,60.00467764822241,
Q,left,Distractor,0,16,16,16,1489.7795424018404,1491.7804611783358,left,1,3,0.7022009252104908,R27R01,2021_Oct_19_1358,t1_Paradigm,2021.1.4,60.00467764822241,
R,left,Pretarget,0,17,17,17,1493.2796468228335,1495.280012216128,left,1,3,0.7066215747618116,R27R01,2021_Oct_19_1358,t1_Paradigm,2021.1.4,60.00467764822241,
S,right,Target,0,18,18,18,1496.7795045471867,1498.7799488577875,right,1,3,0.4225765585433692,R27R01,2021_Oct_19_1358,t1_Paradigm,2021.1.4,60.00467764822241,
F,left,Distractor,0,19,19,19,1500.2794520960888,1502.2799932888593,left,1,3,0.5225303951883689,R27R01,2021_Oct_19_1358,t1_Paradigm,2021.1.4,60.00467764822241,
R,right,Target,0,20,20,20,1503.779446161294,1505.7799655394629,left,0,3,0.7185294186929241,R27R01,2021_Oct_19_1358,t1_Paradigm,2021.1.4,60.00467764822241,
P,left,Distractor,0,21,21,21,1507.2797157952446,1509.2792695598328,left,1,3,0.4835266646114178,R27R01,2021_Oct_19_1358,t1_Paradigm,2021.1.4,60.00467764822241,
L,left,Distractor,0,22,22,22,1510.7796299807378,1512.7813475538278,left,1,3,0.6293962284689769,R27R01,2021_Oct_19_1358,t1_Paradigm,2021.1.4,60.00467764822241,
R,right,Target,0,23,23,23,1514.279362271598,1516.27987170493,right,1,3,0.6507109450176358,R27R01,2021_Oct_19_1358,t1_Paradigm,2021.1.4,60.00467764822241,
H,left,Pretarget,0,24,24,24,1517.7796229231171,1519.7815008971374,left,1,3,0.8452220894978382,R27R01,2021_Oct_19_1358,t1_Paradigm,2021.1.4,60.00467764822241,
G,left,Pretarget,0,25,25,25,1521.2793808780843,1523.2795188229065,left,1,3,0.9151588177192025,R27R01,2021_Oct_19_1358,t1_Paradigm,2021.1.4,60.00467764822241,
T,left,Distractor,0,26,26,26,1524.7793277854216,1526.7806854188093,left,1,3,0.9983456248301081,R27R01,2021_Oct_19_1358,t1_Paradigm,2021.1.4,60.00467764822241,
H,right,Target,0,27,27,27,1528.2798219806282,1530.279926241259,right,1,3,0.5065746735199355,R27R01,2021_Oct_19_1358,t1_Paradigm,2021.1.4,60.00467764822241,
G,right,Target,0,28,28,28,1531.779368848016,1533.7799889580347,right,1,3,0.6225499961874448,R27R01,2021_Oct_19_1358,t1_Paradigm,2021.1.4,60.00467764822241,
D,left,Distractor,0,29,29,29,1535.27949476277,1537.2799948928296,left,1,3,0.5792061373358592,R27R01,2021_Oct_19_1358,t1_Paradigm,2021.1.4,60.00467764822241,
N,left,Pretarget,0,30,30,30,1538.779402211425,1540.7797435445827,left,1,3,0.5667561383452266,R27R01,2021_Oct_19_1358,t1_Paradigm,2021.1.4,60.00467764822241,
V,left,Distractor,0,31,31,31,1542.2793619508157,1544.2964228347992,left,1,3,0.5061768792220391,R27R01,2021_Oct_19_1358,t1_Paradigm,2021.1.4,60.00467764822241,
R,left,Distractor,0,32,32,32,1545.7800518351723,1547.7800120557658,left,1,3,0.7985983525868505,R27R01,2021_Oct_19_1358,t1_Paradigm,2021.1.4,60.00467764822241,
N,right,Target,0,33,33,33,1549.279393710196,1551.2799666622886,right,1,3,0.5788134758477099,R27R01,2021_Oct_19_1358,t1_Paradigm,2021.1.4,60.00467764822241,
Z,left,Distractor,0,34,34,34,1552.7795780108427,1554.7791494195699,left,1,3,0.48754117893986404,R27R01,2021_Oct_19_1358,t1_Paradigm,2021.1.4,60.00467764822241,
N,left,Lure,0,35,35,35,1556.2795451286365,1558.281350922247,left,1,3,0.6812689253129065,R27R01,2021_Oct_19_1358,t1_Paradigm,2021.1.4,60.00467764822241,
Y,left,Pretarget,0,36,36,36,1559.779368848016,1561.7813844460761,left,1,3,0.5891320673981681,R27R01,2021_Oct_19_1358,t1_Paradigm,2021.1.4,60.00467764822241,
Y,left,Lure,0,37,37,37,1563.279290732753,1565.2795531487209,left,1,3,0.6270973624195904,R27R01,2021_Oct_19_1358,t1_Paradigm,2021.1.4,60.00467764822241,
B,left,Distractor,0,38,38,38,1566.7795626123552,1568.7788853996317,left,1,3,0.599835941917263,R27R01,2021_Oct_19_1358,t1_Paradigm,2021.1.4,60.00467764822241,
Y,right,Target,0,39,39,39,1570.279473269009,1572.279658371699,left,0,3,0.8269517825101502,R27R01,2021_Oct_19_1358,t1_Paradigm,2021.1.4,60.00467764822241,
J,left,Distractor,0,40,40,40,1573.7795706323814,1575.7802831333247,left,1,3,0.5742337086703628,R27R01,2021_Oct_19_1358,t1_Paradigm,2021.1.4,60.00467764822241,
X,left,Distractor,0,41,41,41,1577.2793702916242,1579.2796218002914,left,1,3,0.6429982269182801,R27R01,2021_Oct_19_1358,t1_Paradigm,2021.1.4,60.00467764822241,
W,left,Pretarget,0,42,42,42,1580.779342542286,1582.7797092187684,left,1,3,0.5508203064091504,R27R01,2021_Oct_19_1358,t1_Paradigm,2021.1.4,60.00467764822241,
S,left,Pretarget,0,43,43,43,1584.2794216199545,1586.2799349029083,left,1,3,0.5226176532451063,R27R01,2021_Oct_19_1358,t1_Paradigm,2021.1.4,60.00467764822241,
R,left,Distractor,0,44,44,44,1587.7794865823234,1589.7799709931132,left,1,3,0.6545275246608071,R27R01,2021_Oct_19_1358,t1_Paradigm,2021.1.4,60.00467764822241,
W,right,Target,0,45,45,45,1591.2794501712779,1593.280039163481,right,1,3,0.4025662223575637,R27R01,2021_Oct_19_1358,t1_Paradigm,2021.1.4,60.00467764822241,
S,right,Target,0,46,46,46,1594.780033228686,1596.7817151927738,right,1,3,0.43680059182224795,R27R01,2021_Oct_19_1358,t1_Paradigm,2021.1.4,60.00467764822241,
D,left,Distractor,0,47,47,47,1598.279359705164,1600.2799053891213,left,1,3,0.6827561626560055,R27R01,2021_Oct_19_1358,t1_Paradigm,2021.1.4,60.00467764822241,
T,left,Distractor,0,48,48,48,1601.7794426324544,1603.7807742809528,left,1,3,0.4936803639284335,R27R01,2021_Oct_19_1358,t1_Paradigm,2021.1.4,60.00467764822241,
S,right,Target,0,49,49,49,1605.2794184118975,1607.2801626722212,right,1,3,0.46646545972907916,R27R01,2021_Oct_19_1358,t1_Paradigm,2021.1.4,60.00467764822241,
K,left,Distractor,0,50,50,50,1608.7793014796334,1610.7798968878924,left,1,3,0.5187661062227562,R27R01,2021_Oct_19_1358,t1_Paradigm,2021.1.4,60.00467764822241,
S,left,Lure,0,51,51,51,1612.2799981008866,1614.281211052672,left,1,3,0.6013905477011576,R27R01,2021_Oct_19_1358,t1_Paradigm,2021.1.4,60.00467764822241,
T,left,Pretarget,0,52,52,52,1615.7795180209214,1617.78047433123,left,1,3,0.6539715750259347,R27R01,2021_Oct_19_1358,t1_Paradigm,2021.1.4,60.00467764822241,
V,left,Distractor,0,53,53,53,1619.2792955447803,1621.279181660153,left,1,3,0.7713670874945819,R27R01,2021_Oct_19_1358,t1_Paradigm,2021.1.4,60.00467764822241,
B,left,Distractor,0,54,54,54,1622.7794881862937,1624.781698831881,left,1,3,0.5329038437921554,R27R01,2021_Oct_19_1358,t1_Paradigm,2021.1.4,60.00467764822241,
T,right,Target,0,55,55,55,1626.2796118554543,1628.2794767978485,right,1,3,0.39495102799264714,R27R01,2021_Oct_19_1358,t1_Paradigm,2021.1.4,60.00467764822241,
Y,left,Pretarget,0,56,56,56,1629.7792299408466,1631.77955651714,left,1,3,0.5749391519348137,R27R01,2021_Oct_19_1358,t1_Paradigm,2021.1.4,60.00467764822241,
T,left,Lure,0,57,57,57,1633.2793802365195,1635.280502080568,left,1,3,0.4660968584357761,R27R01,2021_Oct_19_1358,t1_Paradigm,2021.1.4,60.00467764822241,
P,left,Pretarget,0,58,58,58,1636.779252717737,1638.7795218705432,left,1,3,0.4710558134247549,R27R01,2021_Oct_19_1358,t1_Paradigm,2021.1.4,60.00467764822241,
Y,right,Target,0,59,59,59,1640.2792313844548,1642.2797090584063,left,0,3,0.5547344097285531,R27R01,2021_Oct_19_1358,t1_Paradigm,2021.1.4,60.00467764822241,
R,left,Distractor,0,60,60,60,1643.7792479057098,1645.7810867419466,left,1,3,0.5095610179705545,R27R01,2021_Oct_19_1358,t1_Paradigm,2021.1.4,60.00467764822241,
P,right,Target,0,61,61,61,1647.2793093392975,1649.2794687778223,right,1,3,0.37100252823438495,R27R01,2021_Oct_19_1358,t1_Paradigm,2021.1.4,60.00467764822241,
L,left,Distractor,0,62,62,62,1650.7792851187405,1652.7795805772766,left,1,3,0.5990810951334424,R27R01,2021_Oct_19_1358,t1_Paradigm,2021.1.4,60.00467764822241,
V,left,Distractor,0,63,63,63,1654.279250632564,1656.279446963279,left,1,3,0.9711660088505596,R27R01,2021_Oct_19_1358,t1_Paradigm,2021.1.4,60.00467764822241,
H,left,Lure,0,0,0,0,1682.6633883925388,1684.645756802056,None,0,3,,R27R01,2021_Oct_19_1358,t1_Paradigm,2021.1.4,60.00467764822241,
B,left,Distractor,0,1,1,1,1686.1467552977847,1688.146561212663,None,0,3,,R27R01,2021_Oct_19_1358,t1_Paradigm,2021.1.4,60.00467764822241,
T,left,Distractor,0,2,2,2,1689.6461353482446,1691.6458135839785,None,0,3,,R27R01,2021_Oct_19_1358,t1_Paradigm,2021.1.4,60.00467764822241,
R,left,Distractor,0,3,3,3,1693.146341784217,1695.1467222552164,left,1,3,1.0800031694816425,R27R01,2021_Oct_19_1358,t1_Paradigm,2021.1.4,60.00467764822241,
H,left,Pretarget,0,4,4,4,1696.6459435087163,1698.6464542252943,left,1,3,1.0039840381941758,R27R01,2021_Oct_19_1358,t1_Paradigm,2021.1.4,60.00467764822241,
K,left,Distractor,0,5,5,5,1700.1468252326013,1702.147593232221,left,1,3,0.7988444076036103,R27R01,2021_Oct_19_1358,t1_Paradigm,2021.1.4,60.00467764822241,
G,left,Distractor,0,6,6,6,1703.6458668370615,1705.6465806211927,left,1,3,0.6120126177556813,R27R01,2021_Oct_19_1358,t1_Paradigm,2021.1.4,60.00467764822241,
H,right,Target,0,7,7,7,1707.146044400928,1709.1465708367177,right,1,3,0.44036919163772836,R27R01,2021_Oct_19_1358,t1_Paradigm,2021.1.4,60.00467764822241,
Y,left,Pretarget,0,8,8,8,1710.645897954877,1712.6458411729545,left,1,3,0.6047368317958899,R27R01,2021_Oct_19_1358,t1_Paradigm,2021.1.4,60.00467764822241,
S,left,Distractor,0,9,9,9,1714.1461826665327,1716.1470584555645,left,1,3,0.6393635419663042,R27R01,2021_Oct_19_1358,t1_Paradigm,2021.1.4,60.00467764822241,
P,left,Distractor,0,10,10,10,1717.6461395186489,1719.6472244705074,left,1,3,0.7232407146366313,R27R01,2021_Oct_19_1358,t1_Paradigm,2021.1.4,60.00467764822241,
Y,right,Target,0,11,11,11,1721.1462481101044,1723.1455731429742,right,1,3,0.4729501483379863,R27R01,2021_Oct_19_1358,t1_Paradigm,2021.1.4,60.00467764822241,
H,left,Lure,0,12,12,12,1724.6459380551241,1726.646527688892,left,1,3,0.6199819773319177,R27R01,2021_Oct_19_1358,t1_Paradigm,2021.1.4,60.00467764822241,
Q,left,Distractor,0,13,13,13,1728.1467129519442,1730.1480221443344,left,1,3,0.5904977208701894,R27R01,2021_Oct_19_1358,t1_Paradigm,2021.1.4,60.00467764822241,
V,left,Pretarget,0,14,14,14,1731.6458196791937,1733.64538916311,left,1,3,0.5812490035314113,R27R01,2021_Oct_19_1358,t1_Paradigm,2021.1.4,60.00467764822241,
G,left,Distractor,0,15,15,15,1735.1462574133184,1737.145763378474,left,1,3,0.552845849248115,R27R01,2021_Oct_19_1358,t1_Paradigm,2021.1.4,60.00467764822241,
Z,left,Pretarget,0,16,16,16,1738.646206566249,1740.6465273681097,left,1,3,0.6999286857317202,R27R01,2021_Oct_19_1358,t1_Paradigm,2021.1.4,60.00467764822241,
V,right,Target,0,17,17,17,1742.1460646114429,1744.1462615837809,right,1,3,0.5922306925058365,R27R01,2021_Oct_19_1358,t1_Paradigm,2021.1.4,60.00467764822241,
N,left,Distractor,0,18,18,18,1745.6462880499312,1747.646489513456,left,1,3,0.6120222418685444,R27R01,2021_Oct_19_1358,t1_Paradigm,2021.1.4,60.00467764822241,
Z,right,Target,0,19,19,19,1749.1459266666207,1751.1464203806827,right,1,3,0.4400208007427864,R27R01,2021_Oct_19_1358,t1_Paradigm,2021.1.4,60.00467764822241,
R,left,Distractor,0,20,20,20,1752.645985212992,1754.6454222057364,left,1,3,0.5090756447752938,R27R01,2021_Oct_19_1358,t1_Paradigm,2021.1.4,60.00467764822241,
P,left,Distractor,0,21,21,21,1756.1461425662856,1758.1457829474239,None,0,3,,R27R01,2021_Oct_19_1358,t1_Paradigm,2021.1.4,60.00467764822241,
Z,right,Target,0,22,22,22,1759.6458443809533,1761.647785552952,right,1,3,0.48265023389831185,R27R01,2021_Oct_19_1358,t1_Paradigm,2021.1.4,60.00467764822241,
D,left,Pretarget,0,23,23,23,1763.1458788671298,1765.1453790578526,left,1,3,0.5052382129942998,R27R01,2021_Oct_19_1358,t1_Paradigm,2021.1.4,60.00467764822241,
K,left,Distractor,0,24,24,24,1766.6466127014137,1768.6591319935978,left,1,3,0.5752865803078748,R27R01,2021_Oct_19_1358,t1_Paradigm,2021.1.4,60.00467764822241,
W,left,Distractor,0,25,25,25,1770.1459224962164,1772.1462015938014,left,1,3,0.44853456114651635,R27R01,2021_Oct_19_1358,t1_Paradigm,2021.1.4,60.00467764822241,
D,right,Target,0,26,26,26,1773.6459576240159,1775.6461555587593,right,1,3,0.4683662106981501,R27R01,2021_Oct_19_1358,t1_Paradigm,2021.1.4,60.00467764822241,
G,left,Pretarget,0,27,27,27,1777.1458166316152,1779.1461695136386,left,1,3,0.5363136467058212,R27R01,2021_Oct_19_1358,t1_Paradigm,2021.1.4,60.00467764822241,
V,left,Distractor,0,28,28,28,1780.6462181151146,1782.647826936387,left,1,3,0.6666900851996616,R27R01,2021_Oct_19_1358,t1_Paradigm,2021.1.4,60.00467764822241,
D,right,Target,0,29,29,29,1784.145858656615,1786.1477703148848,right,1,3,0.7347183632664382,R27R01,2021_Oct_19_1358,t1_Paradigm,2021.1.4,60.00467764822241,
G,right,Target,0,30,30,30,1787.6458626666572,1789.6461706364644,None,0,3,,R27R01,2021_Oct_19_1358,t1_Paradigm,2021.1.4,60.00467764822241,
B,left,Pretarget,0,31,31,31,1791.1459122305387,1793.1461371126352,left,1,3,0.8242727662436664,R27R01,2021_Oct_19_1358,t1_Paradigm,2021.1.4,60.00467764822241,
N,left,Distractor,0,32,32,32,1794.6467044507153,1796.6476402297267,left,1,3,0.7629380188300274,R27R01,2021_Oct_19_1358,t1_Paradigm,2021.1.4,60.00467764822241,
F,left,Distractor,0,33,33,33,1798.1457993083168,1800.1482726905379,left,1,3,0.83046039234614,R27R01,2021_Oct_19_1358,t1_Paradigm,2021.1.4,60.00467764822241,
B,right,Target,0,34,34,34,1801.645897954877,1803.6457680301392,right,1,3,0.5009096336434595,R27R01,2021_Oct_19_1358,t1_Paradigm,2021.1.4,60.00467764822241,
Q,left,Pretarget,0,35,35,35,1805.1464915986871,1807.1462218043162,left,1,3,0.6644184873439372,R27R01,2021_Oct_19_1358,t1_Paradigm,2021.1.4,60.00467764822241,
S,left,Pretarget,0,36,36,36,1808.6459130325238,1810.648042836052,left,1,3,0.6823590099811554,R27R01,2021_Oct_19_1358,t1_Paradigm,2021.1.4,60.00467764822241,
W,left,Distractor,0,37,37,37,1812.1463780348422,1814.1464970523375,left,1,3,0.607907637313474,R27R01,2021_Oct_19_1358,t1_Paradigm,2021.1.4,60.00467764822241,
Q,right,Target,0,38,38,38,1815.646148180298,1817.6477220341912,right,1,3,0.6587890564696863,R27R01,2021_Oct_19_1358,t1_Paradigm,2021.1.4,60.00467764822241,
S,right,Target,0,39,39,39,1819.1465041099582,1821.1461502655293,right,1,3,0.472222248907201,R27R01,2021_Oct_19_1358,t1_Paradigm,2021.1.4,60.00467764822241,
T,left,Distractor,0,40,40,40,1822.6458629874396,1824.6463878193172,left,1,3,0.6040464661782607,R27R01,2021_Oct_19_1358,t1_Paradigm,2021.1.4,60.00467764822241,
G,left,Distractor,0,41,41,41,1826.1460081503028,1828.1482313071028,left,1,3,0.6541438456624746,R27R01,2021_Oct_19_1358,t1_Paradigm,2021.1.4,60.00467764822241,
D,left,Distractor,0,42,42,42,1829.6458382857381,1831.647785552952,left,1,3,0.7386308626155369,R27R01,2021_Oct_19_1358,t1_Paradigm,2021.1.4,60.00467764822241,
S,left,Lure,0,43,43,43,1833.1457694737474,1835.145915759378,left,1,3,0.6166312019922771,R27R01,2021_Oct_19_1358,t1_Paradigm,2021.1.4,60.00467764822241,
Z,left,Pretarget,0,44,44,44,1836.645768671704,1838.6461809020839,left,1,3,0.8922246934380382,R27R01,2021_Oct_19_1358,t1_Paradigm,2021.1.4,60.00467764822241,
J,left,Distractor,0,45,45,45,1840.1458259348292,1842.1482345151599,left,1,3,0.6861775144352578,R27R01,2021_Oct_19_1358,t1_Paradigm,2021.1.4,60.00467764822241,
M,left,Pretarget,0,46,46,46,1843.6462036790326,1845.64816762798,left,1,3,0.5784394209040329,R27R01,2021_Oct_19_1358,t1_Paradigm,2021.1.4,60.00467764822241,
Z,right,Target,0,47,47,47,1847.146608370589,1849.1475836081663,right,1,3,0.5668793261866085,R27R01,2021_Oct_19_1358,t1_Paradigm,2021.1.4,60.00467764822241,
P,left,Distractor,0,48,48,48,1850.6457263258635,1852.646050335723,left,1,3,0.7806648875121027,R27R01,2021_Oct_19_1358,t1_Paradigm,2021.1.4,60.00467764822241,
M,right,Target,0,49,49,49,1854.1462108970736,1856.1463626363548,right,1,3,0.496218868996948,R27R01,2021_Oct_19_1358,t1_Paradigm,2021.1.4,60.00467764822241,
K,left,Distractor,0,50,50,50,1857.6458177543827,1859.646460641292,left,1,3,0.5641422448097728,R27R01,2021_Oct_19_1358,t1_Paradigm,2021.1.4,60.00467764822241,
Y,left,Distractor,0,51,51,51,1861.1458891328075,1863.148230023915,left,1,3,0.6141578197712079,R27R01,2021_Oct_19_1358,t1_Paradigm,2021.1.4,60.00467764822241,
X,left,Distractor,0,52,52,52,1864.6458049223293,1866.64771465573,left,1,3,1.0507065821439028,R27R01,2021_Oct_19_1358,t1_Paradigm,2021.1.4,60.00467764822241,
F,left,Pretarget,0,53,53,53,1868.1460549873882,1870.1453120103106,left,1,3,0.7692677601007745,R27R01,2021_Oct_19_1358,t1_Paradigm,2021.1.4,60.00467764822241,
M,left,Lure,0,54,54,54,1871.6466566512245,1873.6482032369822,left,1,3,0.7381419606390409,R27R01,2021_Oct_19_1358,t1_Paradigm,2021.1.4,60.00467764822241,
V,left,Distractor,0,55,55,55,1875.145791609073,1877.1457601704751,left,1,3,0.6648342464468442,R27R01,2021_Oct_19_1358,t1_Paradigm,2021.1.4,60.00467764822241,
F,right,Target,0,56,56,56,1878.646570997138,1880.6477743248688,right,1,3,0.4265384614118375,R27R01,2021_Oct_19_1358,t1_Paradigm,2021.1.4,60.00467764822241,
S,left,Distractor,0,57,57,57,1882.1458159899921,1884.146097654011,left,1,3,0.656264987483155,R27R01,2021_Oct_19_1358,t1_Paradigm,2021.1.4,60.00467764822241,
D,left,Distractor,0,58,58,58,1885.6457625764888,1887.6457744461368,left,1,3,0.5488152948091738,R27R01,2021_Oct_19_1358,t1_Paradigm,2021.1.4,60.00467764822241,
F,right,Target,0,59,59,59,1889.1457681905013,1891.14549679216,right,1,3,0.4569735745899379,R27R01,2021_Oct_19_1358,t1_Paradigm,2021.1.4,60.00467764822241,
V,left,Pretarget,0,60,60,60,1892.6462521200883,1894.6481961793033,left,1,3,0.5862480587675236,R27R01,2021_Oct_19_1358,t1_Paradigm,2021.1.4,60.00467764822241,
J,left,Distractor,0,61,61,61,1896.1461922905874,1898.1457505464205,left,1,3,0.5767260182183236,R27R01,2021_Oct_19_1358,t1_Paradigm,2021.1.4,60.00467764822241,
V,left,Lure,0,62,62,62,1899.6464580749162,1901.647490736039,left,1,3,0.5790309794829227,R27R01,2021_Oct_19_1358,t1_Paradigm,2021.1.4,60.00467764822241,
V,right,Target,0,63,63,63,1903.1456777243875,1905.1460315688164,left,0,3,0.5204413335304707,R27R01,2021_Oct_19_1358,t1_Paradigm,2021.1.4,60.00467764822241,
R,left,Distractor,0,0,0,0,2021.32462099666,2023.3128395487438,None,0,4,,R27R01,2021_Oct_19_1358,t1_Paradigm,2021.1.4,60.00467764822241,
F,left,Distractor,0,1,1,1,2024.8124476892408,2026.812692781852,None,0,4,,R27R01,2021_Oct_19_1358,t1_Paradigm,2021.1.4,60.00467764822241,
P,left,Pretarget,0,2,2,2,2028.3124597193091,2030.3127782755764,None,0,4,,R27R01,2021_Oct_19_1358,t1_Paradigm,2021.1.4,60.00467764822241,
H,left,Distractor,0,3,3,3,2031.8125346265733,2033.812994014821,None,0,4,,R27R01,2021_Oct_19_1358,t1_Paradigm,2021.1.4,60.00467764822241,
Z,left,Distractor,0,4,4,4,2035.312380160496,2037.3127391377348,left,1,4,0.6415757915237918,R27R01,2021_Oct_19_1358,t1_Paradigm,2021.1.4,60.00467764822241,
T,left,Distractor,0,5,5,5,2038.8123803208582,2040.812783889589,left,1,4,0.6137558550108224,R27R01,2021_Oct_19_1358,t1_Paradigm,2021.1.4,60.00467764822241,
P,right,Target,0,6,6,6,2042.3124921203125,2044.3126701653237,right,1,4,0.5217162000481039,R27R01,2021_Oct_19_1358,t1_Paradigm,2021.1.4,60.00467764822241,
G,left,Distractor,0,7,7,7,2045.8132070272113,2047.8148103948915,left,1,4,0.4916012471076101,R27R01,2021_Oct_19_1358,t1_Paradigm,2021.1.4,60.00467764822241,
L,left,Distractor,0,8,8,8,2049.312373102817,2051.3128796489327,left,1,4,0.5935049174004234,R27R01,2021_Oct_19_1358,t1_Paradigm,2021.1.4,60.00467764822241,
P,left,Lure,0,9,9,9,2052.8126443407964,2054.8122260152013,left,1,4,0.8060829805326648,R27R01,2021_Oct_19_1358,t1_Paradigm,2021.1.4,60.00467764822241,
Q,left,Pretarget,0,10,10,10,2056.3126268570777,2058.3121597695863,left,1,4,0.5862310562515631,R27R01,2021_Oct_19_1358,t1_Paradigm,2021.1.4,60.00467764822241,
D,left,Distractor,0,11,11,11,2059.812405664241,2061.814129332546,left,1,4,0.7321423243847676,R27R01,2021_Oct_19_1358,t1_Paradigm,2021.1.4,60.00467764822241,
M,left,Pretarget,0,12,12,12,2063.312375027628,2065.3126149874297,left,1,4,0.561619459069334,R27R01,2021_Oct_19_1358,t1_Paradigm,2021.1.4,60.00467764822241,
C,left,Distractor,0,13,13,13,2066.8124528221088,2068.812651398417,left,1,4,0.5496824222500436,R27R01,2021_Oct_19_1358,t1_Paradigm,2021.1.4,60.00467764822241,
Q,right,Target,0,14,14,14,2070.312318566488,2072.3126996791107,right,1,4,0.47363377711735666,R27R01,2021_Oct_19_1358,t1_Paradigm,2021.1.4,60.00467764822241,
R,left,Distractor,0,15,15,15,2073.8124906767043,2075.8144799689762,left,1,4,0.6038199801696464,R27R01,2021_Oct_19_1358,t1_Paradigm,2021.1.4,60.00467764822241,
M,right,Target,0,16,16,16,2077.312585794425,2079.314316199627,right,1,4,0.4319394813501276,R27R01,2021_Oct_19_1358,t1_Paradigm,2021.1.4,60.00467764822241,
S,left,Distractor,0,17,17,17,2080.8123626767774,2082.8125198696507,left,1,4,0.5018261645454913,R27R01,2021_Oct_19_1358,t1_Paradigm,2021.1.4,60.00467764822241,
Z,left,Distractor,0,18,18,18,2084.3123176040826,2086.312576491211,left,1,4,0.4737175063928589,R27R01,2021_Oct_19_1358,t1_Paradigm,2021.1.4,60.00467764822241,
L,left,Pretarget,0,19,19,19,2087.8123498446657,2089.8136115583475,left,1,4,0.5087474644533359,R27R01,2021_Oct_19_1358,t1_Paradigm,2021.1.4,60.00467764822241,
M,right,Target,0,20,20,20,2091.312513934856,2093.314217071864,right,1,4,0.5122185404761694,R27R01,2021_Oct_19_1358,t1_Paradigm,2021.1.4,60.00467764822241,
P,left,Distractor,0,21,21,21,2094.813103729044,2096.814385974023,left,1,4,0.5800312396604568,R27R01,2021_Oct_19_1358,t1_Paradigm,2021.1.4,60.00467764822241,
F,left,Distractor,0,22,22,22,2098.312361233169,2100.3123188873287,left,1,4,0.6180007050861605,R27R01,2021_Oct_19_1358,t1_Paradigm,2021.1.4,60.00467764822241,
L,right,Target,0,23,23,23,2101.81254810025,2103.8122401304427,right,1,4,0.5741416384698823,R27R01,2021_Oct_19_1358,t1_Paradigm,2021.1.4,60.00467764822241,
L,left,Lure,0,24,24,24,2105.3126326315105,2107.312642897188,left,1,4,0.5776990102021955,R27R01,2021_Oct_19_1358,t1_Paradigm,2021.1.4,60.00467764822241,
V,left,Pretarget,0,25,25,25,2108.812617072661,2110.8133969419287,left,1,4,0.629050083225593,R27R01,2021_Oct_19_1358,t1_Paradigm,2021.1.4,60.00467764822241,
Z,left,Distractor,0,26,26,26,2112.3131677290075,2114.31430785876,right,0,4,0.7121137024369091,R27R01,2021_Oct_19_1358,t1_Paradigm,2021.1.4,60.00467764822241,
H,left,Distractor,0,27,27,27,2115.8125201904913,2117.811847148172,left,1,4,0.5904297108645551,R27R01,2021_Oct_19_1358,t1_Paradigm,2021.1.4,60.00467764822241,
X,left,Distractor,0,28,28,28,2119.3125806616154,2121.313498154923,left,1,4,0.640794318227563,R27R01,2021_Oct_19_1358,t1_Paradigm,2021.1.4,60.00467764822241,
V,right,Target,0,29,29,29,2122.8125394386007,2124.8135894230218,right,1,4,0.5489548436016776,R27R01,2021_Oct_19_1358,t1_Paradigm,2021.1.4,60.00467764822241,
C,left,Distractor,0,30,30,30,2126.312635518727,2128.312399087765,left,1,4,0.5218644105480053,R27R01,2021_Oct_19_1358,t1_Paradigm,2021.1.4,60.00467764822241,
S,left,Pretarget,0,31,31,31,2129.8123928321293,2131.8129635386285,left,1,4,0.5413239300251007,R27R01,2021_Oct_19_1358,t1_Paradigm,2021.1.4,60.00467764822241,
D,left,Distractor,0,32,32,32,2133.3124295639573,2135.313408330374,left,1,4,0.656857187685091,R27R01,2021_Oct_19_1358,t1_Paradigm,2021.1.4,60.00467764822241,
V,left,Distractor,0,33,33,33,2136.812425553915,2138.813594876672,right,0,4,0.42065014340914786,R27R01,2021_Oct_19_1358,t1_Paradigm,2021.1.4,60.00467764822241,
R,left,Distractor,0,34,34,34,2140.312474797014,2142.3133541148854,left,1,4,0.5209315187530592,R27R01,2021_Oct_19_1358,t1_Paradigm,2021.1.4,60.00467764822241,
S,right,Target,0,35,35,35,2143.8125262857066,2145.8142470668536,right,1,4,0.5080657605431043,R27R01,2021_Oct_19_1358,t1_Paradigm,2021.1.4,60.00467764822241,
Y,left,Distractor,0,36,36,36,2147.31255339348,2149.3146180741605,left,1,4,0.575714209175203,R27R01,2021_Oct_19_1358,t1_Paradigm,2021.1.4,60.00467764822241,
N,left,Pretarget,0,37,37,37,2150.812521152897,2152.812165383657,left,1,4,0.7741535723325796,R27R01,2021_Oct_19_1358,t1_Paradigm,2021.1.4,60.00467764822241,
Z,left,Pretarget,0,38,38,38,2154.3125360701815,2156.314336730982,left,1,4,0.5999828691710718,R27R01,2021_Oct_19_1358,t1_Paradigm,2021.1.4,60.00467764822241,
P,left,Pretarget,0,39,39,39,2157.812576651573,2159.814215949038,left,1,4,0.6200288144173101,R27R01,2021_Oct_19_1358,t1_Paradigm,2021.1.4,60.00467764822241,
M,left,Distractor,0,40,40,40,2161.3125591679127,2163.3147277883836,left,1,4,0.719518129946664,R27R01,2021_Oct_19_1358,t1_Paradigm,2021.1.4,60.00467764822241,
N,right,Target,0,41,41,41,2164.812334125396,2166.8125445714104,left,0,4,0.5176987985032611,R27R01,2021_Oct_19_1358,t1_Paradigm,2021.1.4,60.00467764822241,
Z,right,Target,0,42,42,42,2168.3123127920553,2170.312904671475,right,1,4,0.505296919727698,R27R01,2021_Oct_19_1358,t1_Paradigm,2021.1.4,60.00467764822241,
P,right,Target,0,43,43,43,2171.812369092775,2173.812626375875,right,1,4,0.4298225099919364,R27R01,2021_Oct_19_1358,t1_Paradigm,2021.1.4,60.00467764822241,
X,left,Pretarget,0,44,44,44,2175.3123240201385,2177.312184471346,left,1,4,0.6420576359378174,R27R01,2021_Oct_19_1358,t1_Paradigm,2021.1.4,60.00467764822241,
Z,left,Lure,0,45,45,45,2178.8129484609235,2180.8130626663915,right,0,4,0.6133416998782195,R27R01,2021_Oct_19_1358,t1_Paradigm,2021.1.4,60.00467764822241,
R,left,Pretarget,0,46,46,46,2182.3122868071077,2184.3128190173884,left,1,4,0.633409138827119,R27R01,2021_Oct_19_1358,t1_Paradigm,2021.1.4,60.00467764822241,
K,left,Distractor,0,47,47,47,2185.812287609151,2187.812725503638,left,1,4,0.6054685808485374,R27R01,2021_Oct_19_1358,t1_Paradigm,2021.1.4,60.00467764822241,
X,right,Target,0,48,48,48,2189.3124176943093,2191.312717644032,right,1,4,0.6736238963785581,R27R01,2021_Oct_19_1358,t1_Paradigm,2021.1.4,60.00467764822241,
B,left,Distractor,0,49,49,49,2192.8124566717306,2194.8290777364164,left,1,4,0.7251700169290416,R27R01,2021_Oct_19_1358,t1_Paradigm,2021.1.4,60.00467764822241,
R,right,Target,0,50,50,50,2196.3123471178696,2198.3129912879667,right,1,4,0.5851974326651543,R27R01,2021_Oct_19_1358,t1_Paradigm,2021.1.4,60.00467764822241,
Y,left,Pretarget,0,51,51,51,2199.812454426079,2201.812647869636,left,1,4,0.8615310140303336,R27R01,2021_Oct_19_1358,t1_Paradigm,2021.1.4,60.00467764822241,
W,left,Pretarget,0,52,52,52,2203.312391388521,2205.312905313098,left,1,4,0.8333322104881518,R27R01,2021_Oct_19_1358,t1_Paradigm,2021.1.4,60.00467764822241,
Z,left,Distractor,0,53,53,53,2206.8124913183274,2208.812797042483,left,1,4,0.8695151304709725,R27R01,2021_Oct_19_1358,t1_Paradigm,2021.1.4,60.00467764822241,
Q,left,Distractor,0,54,54,54,2210.312437904824,2212.3140646909596,left,1,4,0.872136723191943,R27R01,2021_Oct_19_1358,t1_Paradigm,2021.1.4,60.00467764822241,
Y,right,Target,0,55,55,55,2213.8124698245665,2215.813140300452,left,0,4,0.7171175697003491,R27R01,2021_Oct_19_1358,t1_Paradigm,2021.1.4,60.00467764822241,
W,right,Target,0,56,56,56,2217.3125566014787,2219.313013744133,right,1,4,0.5294215396861546,R27R01,2021_Oct_19_1358,t1_Paradigm,2021.1.4,60.00467764822241,
H,left,Pretarget,0,57,57,57,2220.812388661725,2222.8131630774005,left,1,4,0.5652814121567644,R27R01,2021_Oct_19_1358,t1_Paradigm,2021.1.4,60.00467764822241,
M,left,Distractor,0,58,58,58,2224.312379518873,2226.312936751696,left,1,4,0.6013289537513629,R27R01,2021_Oct_19_1358,t1_Paradigm,2021.1.4,60.00467764822241,
R,left,Pretarget,0,59,59,59,2227.812176611682,2229.811977072968,left,1,4,0.5902314553386532,R27R01,2021_Oct_19_1358,t1_Paradigm,2021.1.4,60.00467764822241,
J,left,Distractor,0,60,60,60,2231.3121966618346,2233.3119050529203,left,1,4,0.6742427232093178,R27R01,2021_Oct_19_1358,t1_Paradigm,2021.1.4,60.00467764822241,
H,right,Target,0,61,61,61,2234.81237358402,2236.812665192934,right,1,4,0.4059131480171345,R27R01,2021_Oct_19_1358,t1_Paradigm,2021.1.4,60.00467764822241,
Z,left,Distractor,0,62,62,62,2238.3123567419243,2240.3128677792847,left,1,4,0.5853995378129184,R27R01,2021_Oct_19_1358,t1_Paradigm,2021.1.4,60.00467764822241,
R,right,Target,0,63,63,63,2241.8122529625543,2243.8127165212063,right,1,4,0.7015644543571398,R27R01,2021_Oct_19_1358,t1_Paradigm,2021.1.4,60.00467764822241,
J,left,Pretarget,0,0,0,0,2279.0117365357,2280.996241164743,None,0,4,,R27R01,2021_Oct_19_1358,t1_Paradigm,2021.1.4,60.00467764822241,
G,left,Pretarget,0,1,1,1,2282.4957460070727,2284.4961332149105,None,0,4,,R27R01,2021_Oct_19_1358,t1_Paradigm,2021.1.4,60.00467764822241,
Z,left,Distractor,0,2,2,2,2285.9957978165476,2287.9964089440764,None,0,4,,R27R01,2021_Oct_19_1358,t1_Paradigm,2021.1.4,60.00467764822241,
F,left,Distractor,0,3,3,3,2289.49574023264,2291.4964142373065,None,0,4,,R27R01,2021_Oct_19_1358,t1_Paradigm,2021.1.4,60.00467764822241,
J,right,Target,0,4,4,4,2292.995645114861,2295.0120105004753,right,1,4,0.5901996959582902,R27R01,2021_Oct_19_1358,t1_Paradigm,2021.1.4,60.00467764822241,
G,right,Target,0,5,5,5,2296.4957411950454,2298.496812352445,right,1,4,0.5773750004009344,R27R01,2021_Oct_19_1358,t1_Paradigm,2021.1.4,60.00467764822241,
H,left,Distractor,0,6,6,6,2299.9963582574273,2301.9980344470823,left,1,4,0.5646272972226143,R27R01,2021_Oct_19_1358,t1_Paradigm,2021.1.4,60.00467764822241,
P,left,Distractor,0,7,7,7,2303.496341736114,2305.4975453846273,left,1,4,0.6005978463799693,R27R01,2021_Oct_19_1358,t1_Paradigm,2021.1.4,60.00467764822241,
G,left,Lure,0,8,8,8,2306.9958154606866,2308.995537325449,left,1,4,0.8308312392910011,R27R01,2021_Oct_19_1358,t1_Paradigm,2021.1.4,60.00467764822241,
S,left,Distractor,0,9,9,9,2310.495715210098,2312.4978835097863,left,1,4,0.7842774371383712,R27R01,2021_Oct_19_1358,t1_Paradigm,2021.1.4,60.00467764822241,
R,left,Pretarget,0,10,10,10,2313.9962633000687,2315.997845173988,left,1,4,0.5485150243039243,R27R01,2021_Oct_19_1358,t1_Paradigm,2021.1.4,60.00467764822241,
T,left,Pretarget,0,11,11,11,2317.496362588252,2319.498082086153,left,1,4,0.6161426207982004,R27R01,2021_Oct_19_1358,t1_Paradigm,2021.1.4,60.00467764822241,
X,left,Distractor,0,12,12,12,2320.995511661342,2322.9954077214934,left,1,4,0.5748474025749601,R27R01,2021_Oct_19_1358,t1_Paradigm,2021.1.4,60.00467764822241,
F,left,Pretarget,0,13,13,13,2324.4957450446673,2326.497870677733,left,1,4,0.5924963164143264,R27R01,2021_Oct_19_1358,t1_Paradigm,2021.1.4,60.00467764822241,
R,right,Target,0,14,14,14,2327.9955703680753,2329.995931270125,right,1,4,0.902250072103925,R27R01,2021_Oct_19_1358,t1_Paradigm,2021.1.4,60.00467764822241,
T,right,Target,0,15,15,15,2331.495623460738,2333.4950944585144,right,1,4,0.5070696707698517,R27R01,2021_Oct_19_1358,t1_Paradigm,2021.1.4,60.00467764822241,
C,left,Distractor,0,16,16,16,2334.9956685334328,2336.996190798818,left,1,4,0.71804693271406,R27R01,2021_Oct_19_1358,t1_Paradigm,2021.1.4,60.00467764822241,
F,right,Target,0,17,17,17,2338.495494177623,2340.496044352767,left,0,4,0.8182112153153867,R27R01,2021_Oct_19_1358,t1_Paradigm,2021.1.4,60.00467764822241,
M,left,Distractor,0,18,18,18,2341.995537967072,2343.9961567938444,left,1,4,0.8059604341979139,R27R01,2021_Oct_19_1358,t1_Paradigm,2021.1.4,60.00467764822241,
N,left,Distractor,0,19,19,19,2345.496274688514,2347.4974010238075,left,1,4,0.5526828818838112,R27R01,2021_Oct_19_1358,t1_Paradigm,2021.1.4,60.00467764822241,
R,left,Lure,0,20,20,20,2348.9957387890317,2350.9967262170976,left,1,4,0.6213671997538768,R27R01,2021_Oct_19_1358,t1_Paradigm,2021.1.4,60.00467764822241,
F,right,Target,0,21,21,21,2352.495402749104,2354.495297846908,right,1,4,0.515071110567078,R27R01,2021_Oct_19_1358,t1_Paradigm,2021.1.4,60.00467764822241,
P,left,Distractor,0,22,22,22,2355.995774398034,2357.9953111601644,left,1,4,0.5992867291788571,R27R01,2021_Oct_19_1358,t1_Paradigm,2021.1.4,60.00467764822241,
L,left,Pretarget,0,23,23,23,2359.495790919347,2361.4952429897385,left,1,4,0.7789688081247732,R27R01,2021_Oct_19_1358,t1_Paradigm,2021.1.4,60.00467764822241,
T,left,Distractor,0,24,24,24,2362.9962966634193,2364.9973184173577,left,1,4,0.7008423294173554,R27R01,2021_Oct_19_1358,t1_Paradigm,2021.1.4,60.00467764822241,
F,left,Distractor,0,25,25,25,2366.495547751547,2368.4951695261407,right,0,4,0.45117572270100936,R27R01,2021_Oct_19_1358,t1_Paradigm,2021.1.4,60.00467764822241,
V,left,Distractor,0,26,26,26,2369.996377184696,2371.997550998698,left,1,4,0.6927584435907193,R27R01,2021_Oct_19_1358,t1_Paradigm,2021.1.4,60.00467764822241,
L,right,Target,0,27,27,27,2373.4957485735067,2375.4964687736356,right,1,4,0.45767965947743505,R27R01,2021_Oct_19_1358,t1_Paradigm,2021.1.4,60.00467764822241,
S,left,Pretarget,0,28,28,28,2376.99571922014,2378.997245916107,left,1,4,0.7329308553016745,R27R01,2021_Oct_19_1358,t1_Paradigm,2021.1.4,60.00467764822241,
W,left,Distractor,0,29,29,29,2380.4954556814046,2382.4956959619885,left,1,4,0.5626835588482209,R27R01,2021_Oct_19_1358,t1_Paradigm,2021.1.4,60.00467764822241,
Q,left,Distractor,0,30,30,30,2383.996339009318,2385.997931148857,left,1,4,0.5964707304956391,R27R01,2021_Oct_19_1358,t1_Paradigm,2021.1.4,60.00467764822241,
L,right,Target,0,31,31,31,2387.4963465481414,2389.4975277405465,right,1,4,0.5846206310088746,R27R01,2021_Oct_19_1358,t1_Paradigm,2021.1.4,60.00467764822241,
S,right,Target,0,32,32,32,2390.995443009713,2392.995267531136,right,1,4,0.7029137469944544,R27R01,2021_Oct_19_1358,t1_Paradigm,2021.1.4,60.00467764822241,
Z,left,Pretarget,0,33,33,33,2394.4952141175745,2396.4953841425595,left,1,4,0.6108628639485687,R27R01,2021_Oct_19_1358,t1_Paradigm,2021.1.4,60.00467764822241,
F,left,Distractor,0,34,34,34,2397.995454558579,2399.9957702276297,left,1,4,0.8223479551961645,R27R01,2021_Oct_19_1358,t1_Paradigm,2021.1.4,60.00467764822241,
V,left,Distractor,0,35,35,35,2401.4954203931848,2403.4958159418893,left,1,4,0.6503211708040908,R27R01,2021_Oct_19_1358,t1_Paradigm,2021.1.4,60.00467764822241,
M,left,Distractor,0,36,36,36,2404.995505886909,2406.995735581033,left,1,4,0.5743873727042228,R27R01,2021_Oct_19_1358,t1_Paradigm,2021.1.4,60.00467764822241,
Z,right,Target,0,37,37,37,2408.4954714006744,2410.4959022375406,right,1,4,0.4183204803848639,R27R01,2021_Oct_19_1358,t1_Paradigm,2021.1.4,60.00467764822241,
H,left,Pretarget,0,38,38,38,2411.996089425462,2413.9960198114277,left,1,4,0.5340699585503899,R27R01,2021_Oct_19_1358,t1_Paradigm,2021.1.4,60.00467764822241,
L,left,Distractor,0,39,39,39,2415.4956151199294,2417.496129686071,left,1,4,0.7462316208984703,R27R01,2021_Oct_19_1358,t1_Paradigm,2021.1.4,60.00467764822241,
G,left,Distractor,0,40,40,40,2418.9956691749976,2420.996120543219,left,1,4,0.8142040793900378,R27R01,2021_Oct_19_1358,t1_Paradigm,2021.1.4,60.00467764822241,
K,left,Distractor,0,41,41,41,2422.4954425285105,2424.4956552201184,left,1,4,0.6265141446492635,R27R01,2021_Oct_19_1358,t1_Paradigm,2021.1.4,60.00467764822241,
H,right,Target,0,42,42,42,2425.9955738968565,2427.9960419467534,left,0,4,0.7421513421577401,R27R01,2021_Oct_19_1358,t1_Paradigm,2021.1.4,60.00467764822241,
B,left,Distractor,0,43,43,43,2429.4962015456986,2431.496085736202,left,1,4,0.5540376281132922,R27R01,2021_Oct_19_1358,t1_Paradigm,2021.1.4,60.00467764822241,
Z,left,Distractor,0,44,44,44,2432.9955751801026,2434.99511130061,None,0,4,,R27R01,2021_Oct_19_1358,t1_Paradigm,2021.1.4,60.00467764822241,
T,left,Pretarget,0,45,45,45,2436.495513746515,2438.4961123627727,left,1,4,0.7059741966077127,R27R01,2021_Oct_19_1358,t1_Paradigm,2021.1.4,60.00467764822241,
H,right,Target,0,46,46,46,2439.995707350434,2441.9973460062756,right,1,4,0.43679225095547736,R27R01,2021_Oct_19_1358,t1_Paradigm,2021.1.4,60.00467764822241,
F,left,Distractor,0,47,47,47,2443.4955830397084,2445.4971742169,left,1,4,0.8409153246902861,R27R01,2021_Oct_19_1358,t1_Paradigm,2021.1.4,60.00467764822241,
R,left,Distractor,0,48,48,48,2446.995340994734,2448.9956091850763,left,1,4,0.5904829640057869,R27R01,2021_Oct_19_1358,t1_Paradigm,2021.1.4,60.00467764822241,
T,right,Target,0,49,49,49,2450.49565746577,2452.496287199785,right,1,4,0.4018421725486405,R27R01,2021_Oct_19_1358,t1_Paradigm,2021.1.4,60.00467764822241,
H,right,Target,0,50,50,50,2453.995637736458,2455.996417284943,right,1,4,0.48572576127480716,R27R01,2021_Oct_19_1358,t1_Paradigm,2021.1.4,60.00467764822241,
Y,left,Pretarget,0,51,51,51,2457.4956212151446,2459.496459791204,left,1,4,0.5376286134705879,R27R01,2021_Oct_19_1358,t1_Paradigm,2021.1.4,60.00467764822241,
H,left,Distractor,0,52,52,52,2460.9956242627813,2462.9971849637805,left,1,4,0.636889838904608,R27R01,2021_Oct_19_1358,t1_Paradigm,2021.1.4,60.00467764822241,
S,left,Distractor,0,53,53,53,2464.495441566105,2466.4978344271076,left,1,4,0.5124514426570386,R27R01,2021_Oct_19_1358,t1_Paradigm,2021.1.4,60.00467764822241,
Q,left,Distractor,0,54,54,54,2467.9956813654862,2469.9953368243296,left,1,4,0.5829319300246425,R27R01,2021_Oct_19_1358,t1_Paradigm,2021.1.4,60.00467764822241,
Y,right,Target,0,55,55,55,2471.4955666788155,2473.4954123731586,right,1,4,0.4907216084538959,R27R01,2021_Oct_19_1358,t1_Paradigm,2021.1.4,60.00467764822241,
R,left,Distractor,0,56,56,56,2474.995748092304,2476.997554527479,right,0,4,0.8447415283881128,R27R01,2021_Oct_19_1358,t1_Paradigm,2021.1.4,60.00467764822241,
H,left,Pretarget,0,57,57,57,2478.496094718692,2480.4973808132927,left,1,4,0.6887038290151395,R27R01,2021_Oct_19_1358,t1_Paradigm,2021.1.4,60.00467764822241,
J,left,Distractor,0,58,58,58,2481.995360884466,2483.995712804084,left,1,4,0.694470883870963,R27R01,2021_Oct_19_1358,t1_Paradigm,2021.1.4,60.00467764822241,
V,left,Distractor,0,59,59,59,2485.495639821631,2487.497289063991,left,1,4,0.7129965491476469,R27R01,2021_Oct_19_1358,t1_Paradigm,2021.1.4,60.00467764822241,
Y,left,Lure,0,60,60,60,2488.99538975663,2490.995303781703,left,1,4,0.6868649927782826,R27R01,2021_Oct_19_1358,t1_Paradigm,2021.1.4,60.00467764822241,
H,right,Target,0,61,61,61,2492.4956189695513,2494.4947066090535,right,1,4,0.4194089610828087,R27R01,2021_Oct_19_1358,t1_Paradigm,2021.1.4,60.00467764822241,
L,left,Distractor,0,62,62,62,2495.9957814556547,2497.995926137315,left,1,4,0.550142131280154,R27R01,2021_Oct_19_1358,t1_Paradigm,2021.1.4,60.00467764822241,
P,left,Distractor,0,63,63,63,2499.495341796719,2501.496016122226,left,1,4,0.5220254530431703,R27R01,2021_Oct_19_1358,t1_Paradigm,2021.1.4,60.00467764822241,
