Currentstep,EDround.thisRepN,EDround.thisTrialN,EDround.thisN,EDround.thisIndex,EDbufferscreen.started,question.started,EDclick.clicked_name,EDleftbutton.wasclicked,EDrightbutton.wasclicked,EDleftbutton.value,EDrightbutton.value,EDleftbutton.nback,EDrightbutton.nback,Participant,date,expName,psychopyVersion,frameRate,
,,,,,,,,,,,,,,R27R01,2021_Oct_19_1358,t1_Paradigm,2021.1.4,60.00467764822241,
0,0,0,0,0,2590.003811446775,2590.3888647753047,EDleftbutton,1,0,1.00,1.00,1,3,R27R01,2021_Oct_19_1358,t1_Paradigm,2021.1.4,60.00467764822241,
1,0,1,1,1,None,2600.1572650872404,EDrightbutton,0,1,1.00,2.00,1,3,R27R01,2021_Oct_19_1358,t1_Paradigm,2021.1.4,60.00467764822241,
2,0,2,2,2,None,2635.174810382072,EDrightbutton,0,1,1.50,2.00,1,3,R27R01,2021_Oct_19_1358,t1_Paradigm,2021.1.4,60.00467764822241,
3,0,3,3,3,None,2638.216871033481,EDrightbutton,0,1,1.75,2.00,1,3,R27R01,2021_Oct_19_1358,t1_Paradigm,2021.1.4,60.00467764822241,
4,0,4,4,4,None,2640.067272789718,EDrightbutton,0,1,1.88,2.00,1,3,R27R01,2021_Oct_19_1358,t1_Paradigm,2021.1.4,60.00467764822241,
5,0,5,5,5,None,2642.702152484213,EDleftbutton,1,0,1.94,2.00,1,3,R27R01,2021_Oct_19_1358,t1_Paradigm,2021.1.4,60.00467764822241,
6,0,6,6,6,None,2644.647225432913,EDleftbutton,1,0,1.91,2.00,1,3,R27R01,2021_Oct_19_1358,t1_Paradigm,2021.1.4,60.00467764822241,
0,0,0,0,0,2648.0468611303368,2648.3772649011808,EDleftbutton,1,0,1.00,1.00,2,3,R27R01,2021_Oct_19_1358,t1_Paradigm,2021.1.4,60.00467764822241,
1,0,1,1,1,None,2652.2665590697434,EDrightbutton,0,1,1.00,2.00,2,3,R27R01,2021_Oct_19_1358,t1_Paradigm,2021.1.4,60.00467764822241,
2,0,2,2,2,None,2653.7971752755693,EDleftbutton,1,0,1.50,2.00,2,3,R27R01,2021_Oct_19_1358,t1_Paradigm,2021.1.4,60.00467764822241,
3,0,3,3,3,None,2655.4139415351674,EDrightbutton,0,1,1.25,2.00,2,3,R27R01,2021_Oct_19_1358,t1_Paradigm,2021.1.4,60.00467764822241,
4,0,4,4,4,None,2657.967196085956,EDleftbutton,1,0,1.38,2.00,2,3,R27R01,2021_Oct_19_1358,t1_Paradigm,2021.1.4,60.00467764822241,
5,0,5,5,5,None,2661.880526654015,EDrightbutton,0,1,1.31,2.00,2,3,R27R01,2021_Oct_19_1358,t1_Paradigm,2021.1.4,60.00467764822241,
6,0,6,6,6,None,2663.714079576195,EDleftbutton,1,0,1.34,2.00,2,3,R27R01,2021_Oct_19_1358,t1_Paradigm,2021.1.4,60.00467764822241,
0,0,0,0,0,2665.9634234561818,2666.288022959139,EDleftbutton,1,0,1.00,1.00,1,2,R27R01,2021_Oct_19_1358,t1_Paradigm,2021.1.4,60.00467764822241,
1,0,1,1,1,None,2668.9975028784247,EDrightbutton,0,1,1.00,2.00,1,2,R27R01,2021_Oct_19_1358,t1_Paradigm,2021.1.4,60.00467764822241,
2,0,2,2,2,None,2671.063923618349,EDleftbutton,1,0,1.50,2.00,1,2,R27R01,2021_Oct_19_1358,t1_Paradigm,2021.1.4,60.00467764822241,
3,0,3,3,3,None,2672.9976119510247,EDrightbutton,0,1,1.25,2.00,1,2,R27R01,2021_Oct_19_1358,t1_Paradigm,2021.1.4,60.00467764822241,
4,0,4,4,4,None,2674.3306758108083,EDleftbutton,1,0,1.38,2.00,1,2,R27R01,2021_Oct_19_1358,t1_Paradigm,2021.1.4,60.00467764822241,
5,0,5,5,5,None,2675.3472776273848,EDrightbutton,0,1,1.31,2.00,1,2,R27R01,2021_Oct_19_1358,t1_Paradigm,2021.1.4,60.00467764822241,
6,0,6,6,6,None,2676.3309449635562,EDrightbutton,0,1,1.34,2.00,1,2,R27R01,2021_Oct_19_1358,t1_Paradigm,2021.1.4,60.00467764822241,
0,0,0,0,0,2677.863465769973,2678.197664947482,EDleftbutton,1,0,1.00,1.00,1,4,R27R01,2021_Oct_19_1358,t1_Paradigm,2021.1.4,60.00467764822241,
1,0,1,1,1,None,2680.0809103971696,EDleftbutton,1,0,1.00,2.00,1,4,R27R01,2021_Oct_19_1358,t1_Paradigm,2021.1.4,60.00467764822241,
2,0,2,2,2,None,2681.0137563041644,EDrightbutton,0,1,0.50,2.00,1,4,R27R01,2021_Oct_19_1358,t1_Paradigm,2021.1.4,60.00467764822241,
3,0,3,3,3,None,2686.8472405747743,EDleftbutton,1,0,0.75,2.00,1,4,R27R01,2021_Oct_19_1358,t1_Paradigm,2021.1.4,60.00467764822241,
4,0,4,4,4,None,2688.487647043541,EDrightbutton,0,1,0.62,2.00,1,4,R27R01,2021_Oct_19_1358,t1_Paradigm,2021.1.4,60.00467764822241,
5,0,5,5,5,None,2689.580495760776,EDleftbutton,1,0,0.69,2.00,1,4,R27R01,2021_Oct_19_1358,t1_Paradigm,2021.1.4,60.00467764822241,
6,0,6,6,6,None,2690.913739911164,EDrightbutton,0,1,0.66,2.00,1,4,R27R01,2021_Oct_19_1358,t1_Paradigm,2021.1.4,60.00467764822241,
0,0,0,0,0,2692.7632148708217,2693.080994126445,EDleftbutton,1,0,1.00,1.00,2,4,R27R01,2021_Oct_19_1358,t1_Paradigm,2021.1.4,60.00467764822241,
1,0,1,1,1,None,2694.847800373973,EDleftbutton,1,0,1.00,2.00,2,4,R27R01,2021_Oct_19_1358,t1_Paradigm,2021.1.4,60.00467764822241,
2,0,2,2,2,None,2696.113902942685,EDrightbutton,0,1,0.50,2.00,2,4,R27R01,2021_Oct_19_1358,t1_Paradigm,2021.1.4,60.00467764822241,
3,0,3,3,3,None,2698.6474070067634,EDrightbutton,0,1,0.75,2.00,2,4,R27R01,2021_Oct_19_1358,t1_Paradigm,2021.1.4,60.00467764822241,
4,0,4,4,4,None,2700.1472409918206,EDleftbutton,1,0,0.88,2.00,2,4,R27R01,2021_Oct_19_1358,t1_Paradigm,2021.1.4,60.00467764822241,
5,0,5,5,5,None,2701.1640035301098,EDleftbutton,1,0,0.81,2.00,2,4,R27R01,2021_Oct_19_1358,t1_Paradigm,2021.1.4,60.00467764822241,
6,0,6,6,6,None,2702.814515898761,EDrightbutton,0,1,0.78,2.00,2,4,R27R01,2021_Oct_19_1358,t1_Paradigm,2021.1.4,60.00467764822241,
0,0,0,0,0,2704.113557439123,2704.4313941182336,EDleftbutton,1,0,1.00,1.00,3,4,R27R01,2021_Oct_19_1358,t1_Paradigm,2021.1.4,60.00467764822241,
1,0,1,1,1,None,2706.347044725262,EDleftbutton,1,0,1.00,2.00,3,4,R27R01,2021_Oct_19_1358,t1_Paradigm,2021.1.4,60.00467764822241,
2,0,2,2,2,None,2707.4305568254204,EDrightbutton,0,1,0.50,2.00,3,4,R27R01,2021_Oct_19_1358,t1_Paradigm,2021.1.4,60.00467764822241,
3,0,3,3,3,None,2709.397143387876,EDrightbutton,0,1,0.75,2.00,3,4,R27R01,2021_Oct_19_1358,t1_Paradigm,2021.1.4,60.00467764822241,
4,0,4,4,4,None,2710.9973931641434,EDleftbutton,1,0,0.88,2.00,3,4,R27R01,2021_Oct_19_1358,t1_Paradigm,2021.1.4,60.00467764822241,
5,0,5,5,5,None,2711.79735845339,EDleftbutton,1,0,0.81,2.00,3,4,R27R01,2021_Oct_19_1358,t1_Paradigm,2021.1.4,60.00467764822241,
6,0,6,6,6,None,2713.1141047270503,EDrightbutton,0,1,0.78,2.00,3,4,R27R01,2021_Oct_19_1358,t1_Paradigm,2021.1.4,60.00467764822241,
