Letter,CorrAnswer,Stimulus,nback_run.thisRepN,nback_run.thisTrialN,nback_run.thisN,nback_run.thisIndex,fixcross.started,nback_trial.started,trial_resp.keys,trial_resp.corr,currentlevel,trial_resp.rt,Participant,date,expName,psychopyVersion,frameRate,
H,left,Distractor,0,0,0,0,117.90449067461304,119.88667689147405,None,0,1,,S13R12,2021_Sep_15_1015,t1_Paradigm,2021.1.4,60.00510121290471,
Q,left,Pretarget,0,1,1,1,121.39073807746172,123.38719642953947,left,1,1,0.9779080089647323,S13R12,2021_Sep_15_1015,t1_Paradigm,2021.1.4,60.00510121290471,
Q,right,Target,0,2,2,2,124.88399242516607,126.88401038991287,right,1,1,1.0490049861837178,S13R12,2021_Sep_15_1015,t1_Paradigm,2021.1.4,60.00510121290471,
T,left,Distractor,0,3,3,3,128.3840018888004,130.38590007089078,left,1,1,0.9229922562371939,S13R12,2021_Sep_15_1015,t1_Paradigm,2021.1.4,60.00510121290471,
Q,left,Lure,0,4,4,4,131.88402643008158,133.88601604057476,None,0,1,,S13R12,2021_Sep_15_1015,t1_Paradigm,2021.1.4,60.00510121290471,
L,left,Distractor,0,5,5,5,135.38478111545555,137.38521131011657,left,1,1,0.6757464166730642,S13R12,2021_Sep_15_1015,t1_Paradigm,2021.1.4,60.00510121290471,
V,left,Pretarget,0,6,6,6,138.8846199128311,140.8884182018228,left,1,1,0.6286874120123684,S13R12,2021_Sep_15_1015,t1_Paradigm,2021.1.4,60.00510121290471,
V,right,Target,0,7,7,7,142.38500792207196,144.38426751247607,left,0,1,0.9246148697566241,S13R12,2021_Sep_15_1015,t1_Paradigm,2021.1.4,60.00510121290471,
K,left,Distractor,0,8,8,8,145.883499994874,147.88374829525128,left,1,1,0.6092247096821666,S13R12,2021_Sep_15_1015,t1_Paradigm,2021.1.4,60.00510121290471,
G,left,Pretarget,0,9,9,9,149.38463483005762,151.38490783213638,left,1,1,0.644004718400538,S13R12,2021_Sep_15_1015,t1_Paradigm,2021.1.4,60.00510121290471,
G,right,Target,0,10,10,10,152.8844652865082,154.88434979785234,right,1,1,0.4405572577379644,S13R12,2021_Sep_15_1015,t1_Paradigm,2021.1.4,60.00510121290471,
G,right,Target,0,11,11,11,156.38470861432143,158.38402338256128,right,1,1,0.47683990048244596,S13R12,2021_Sep_15_1015,t1_Paradigm,2021.1.4,60.00510121290471,
P,left,Pretarget,0,12,12,12,159.8843023192603,161.8872543340549,left,1,1,0.6855905298143625,S13R12,2021_Sep_15_1015,t1_Paradigm,2021.1.4,60.00510121290471,
P,right,Target,0,13,13,13,163.3843018382322,165.38387870113365,right,1,1,0.6929615843109787,S13R12,2021_Sep_15_1015,t1_Paradigm,2021.1.4,60.00510121290471,
G,left,Lure,0,14,14,14,166.88437193329446,168.89718506345525,left,1,1,0.5876485670451075,S13R12,2021_Sep_15_1015,t1_Paradigm,2021.1.4,60.00510121290471,
Y,left,Distractor,0,15,15,15,170.3843124245759,172.3858371938113,left,1,1,0.5550233817193657,S13R12,2021_Sep_15_1015,t1_Paradigm,2021.1.4,60.00510121290471,
B,left,Distractor,0,16,16,16,173.88424617913552,175.88605068717152,left,1,1,0.5428242653142661,S13R12,2021_Sep_15_1015,t1_Paradigm,2021.1.4,60.00510121290471,
T,left,Pretarget,0,17,17,17,177.38459408818744,179.38606752920896,left,1,1,1.1227514625061303,S13R12,2021_Sep_15_1015,t1_Paradigm,2021.1.4,60.00510121290471,
T,right,Target,0,18,18,18,180.883973818738,182.88413774827495,right,1,1,0.5366822008509189,S13R12,2021_Sep_15_1015,t1_Paradigm,2021.1.4,60.00510121290471,
S,left,Distractor,0,19,19,19,184.38395954295993,186.38703538710251,left,1,1,0.906389819458127,S13R12,2021_Sep_15_1015,t1_Paradigm,2021.1.4,60.00510121290471,
T,left,Lure,0,20,20,20,187.88456216850318,189.8861459651962,left,1,1,0.6067166838329285,S13R12,2021_Sep_15_1015,t1_Paradigm,2021.1.4,60.00510121290471,
J,left,Distractor,0,21,21,21,191.38458093535155,193.38750985241495,left,1,1,0.7852657823823392,S13R12,2021_Sep_15_1015,t1_Paradigm,2021.1.4,60.00510121290471,
P,left,Distractor,0,22,22,22,194.8838679541368,196.88473796774633,left,1,1,0.8560092365369201,S13R12,2021_Sep_15_1015,t1_Paradigm,2021.1.4,60.00510121290471,
F,left,Distractor,0,23,23,23,198.38381357840262,200.38453056965955,left,1,1,0.5082704215310514,S13R12,2021_Sep_15_1015,t1_Paradigm,2021.1.4,60.00510121290471,
L,left,Distractor,0,24,24,24,201.88388174865395,203.88361869147047,left,1,1,0.6732342205941677,S13R12,2021_Sep_15_1015,t1_Paradigm,2021.1.4,60.00510121290471,
W,left,Pretarget,0,25,25,25,205.3845523840282,207.38645473658107,left,1,1,0.594521737890318,S13R12,2021_Sep_15_1015,t1_Paradigm,2021.1.4,60.00510121290471,
W,right,Target,0,26,26,26,208.88387982384302,210.88383266609162,right,1,1,0.5208811259362847,S13R12,2021_Sep_15_1015,t1_Paradigm,2021.1.4,60.00510121290471,
V,left,Distractor,0,27,27,27,212.38390532764606,214.38483116053976,left,1,1,0.7479742190334946,S13R12,2021_Sep_15_1015,t1_Paradigm,2021.1.4,60.00510121290471,
W,left,Lure,0,28,28,28,215.88370979903266,217.8844460383989,left,1,1,0.7364215177949518,S13R12,2021_Sep_15_1015,t1_Paradigm,2021.1.4,60.00510121290471,
R,left,Pretarget,0,29,29,29,219.3845225495752,221.38825026224367,left,1,1,0.5446351892314851,S13R12,2021_Sep_15_1015,t1_Paradigm,2021.1.4,60.00510121290471,
R,right,Target,0,30,30,30,222.88380956836045,224.8837925659027,right,1,1,0.5849288126919419,S13R12,2021_Sep_15_1015,t1_Paradigm,2021.1.4,60.00510121290471,
G,left,Distractor,0,31,31,31,226.3838074831292,228.3852084230166,left,1,1,0.7318193004466593,S13R12,2021_Sep_15_1015,t1_Paradigm,2021.1.4,60.00510121290471,
R,left,Lure,0,32,32,32,229.88378486665897,231.88505171146244,left,1,1,1.1197211723774672,S13R12,2021_Sep_15_1015,t1_Paradigm,2021.1.4,60.00510121290471,
S,left,Distractor,0,33,33,33,233.3837798940949,235.38608902296983,left,1,1,0.6111928264144808,S13R12,2021_Sep_15_1015,t1_Paradigm,2021.1.4,60.00510121290471,
R,left,Lure,0,34,34,34,236.88431033934467,238.88351860130206,right,0,1,1.0174509566277266,S13R12,2021_Sep_15_1015,t1_Paradigm,2021.1.4,60.00510121290471,
P,left,Pretarget,0,35,35,35,240.38489275448956,242.38598347920924,left,1,1,0.6507659293711185,S13R12,2021_Sep_15_1015,t1_Paradigm,2021.1.4,60.00510121290471,
P,right,Target,0,36,36,36,243.8841095175594,245.8838339492213,right,1,1,0.6410895958542824,S13R12,2021_Sep_15_1015,t1_Paradigm,2021.1.4,60.00510121290471,
Y,left,Pretarget,0,37,37,37,247.384289968526,249.38583302334882,left,1,1,0.850873526185751,S13R12,2021_Sep_15_1015,t1_Paradigm,2021.1.4,60.00510121290471,
Y,right,Target,0,38,38,38,250.88375086174347,252.8839343599975,right,1,1,0.856795841595158,S13R12,2021_Sep_15_1015,t1_Paradigm,2021.1.4,60.00510121290471,
J,left,Distractor,0,39,39,39,254.38448244938627,256.385911940597,left,1,1,0.6508159744553268,S13R12,2021_Sep_15_1015,t1_Paradigm,2021.1.4,60.00510121290471,
Y,left,Lure,0,40,40,40,257.8847848046571,259.8860401008278,left,1,1,0.9746374383103102,S13R12,2021_Sep_15_1015,t1_Paradigm,2021.1.4,60.00510121290471,
T,left,Distractor,0,41,41,41,261.3841815376654,263.3857858655974,left,1,1,0.9950907756574452,S13R12,2021_Sep_15_1015,t1_Paradigm,2021.1.4,60.00510121290471,
V,left,Distractor,0,42,42,42,264.883758881595,266.88349646609277,left,1,1,0.6493973906617612,S13R12,2021_Sep_15_1015,t1_Paradigm,2021.1.4,60.00510121290471,
N,left,Pretarget,0,43,43,43,268.38438396318816,270.38688974338584,left,1,1,0.4897643488366157,S13R12,2021_Sep_15_1015,t1_Paradigm,2021.1.4,60.00510121290471,
N,right,Target,0,44,44,44,271.88368156854995,273.88370049581863,right,1,1,0.6570776978041977,S13R12,2021_Sep_15_1015,t1_Paradigm,2021.1.4,60.00510121290471,
N,right,Target,0,45,45,45,275.38369167386554,277.3839633925818,right,1,1,0.644707273459062,S13R12,2021_Sep_15_1015,t1_Paradigm,2021.1.4,60.00510121290471,
X,left,Distractor,0,46,46,46,278.8847196819261,280.88712088088505,left,1,1,0.5816043473314494,S13R12,2021_Sep_15_1015,t1_Paradigm,2021.1.4,60.00510121290471,
Z,left,Distractor,0,47,47,47,282.38476058421656,284.38621830591,left,1,1,0.8108824188821018,S13R12,2021_Sep_15_1015,t1_Paradigm,2021.1.4,60.00510121290471,
H,left,Pretarget,0,48,48,48,285.8843347202055,287.88549056788906,left,1,1,0.8316129287704825,S13R12,2021_Sep_15_1015,t1_Paradigm,2021.1.4,60.00510121290471,
H,right,Target,0,49,49,49,289.38429253478535,291.3839823198505,left,0,1,0.788679430494085,S13R12,2021_Sep_15_1015,t1_Paradigm,2021.1.4,60.00510121290471,
K,left,Distractor,0,50,50,50,292.88462825352326,294.885542858392,left,1,1,0.48706480488181114,S13R12,2021_Sep_15_1015,t1_Paradigm,2021.1.4,60.00510121290471,
V,left,Pretarget,0,51,51,51,296.38375070132315,298.3858153792098,left,1,1,0.6027984151151031,S13R12,2021_Sep_15_1015,t1_Paradigm,2021.1.4,60.00510121290471,
V,right,Target,0,52,52,52,299.883726160042,301.8838281747885,right,1,1,1.1368442699313164,S13R12,2021_Sep_15_1015,t1_Paradigm,2021.1.4,60.00510121290471,
R,left,Distractor,0,53,53,53,303.3846187898889,305.3858294945676,left,1,1,0.6747808044310659,S13R12,2021_Sep_15_1015,t1_Paradigm,2021.1.4,60.00510121290471,
V,left,Lure,0,54,54,54,306.88462793268263,308.88575266255066,left,1,1,0.663068023044616,S13R12,2021_Sep_15_1015,t1_Paradigm,2021.1.4,60.00510121290471,
Y,left,Distractor,0,55,55,55,310.38352998998016,312.38549457793124,left,1,1,0.5392001713626087,S13R12,2021_Sep_15_1015,t1_Paradigm,2021.1.4,60.00510121290471,
Q,left,Distractor,0,56,56,56,313.88358340319246,315.8847434213385,left,1,1,0.6238333655055612,S13R12,2021_Sep_15_1015,t1_Paradigm,2021.1.4,60.00510121290471,
Z,left,Pretarget,0,57,57,57,317.38365766895004,319.3852251046337,left,1,1,0.6116913519799709,S13R12,2021_Sep_15_1015,t1_Paradigm,2021.1.4,60.00510121290471,
Z,right,Target,0,58,58,58,320.8846959427465,322.8838708414696,right,1,1,0.45672757527790964,S13R12,2021_Sep_15_1015,t1_Paradigm,2021.1.4,60.00510121290471,
B,left,Distractor,0,59,59,59,324.384393266635,326.38590873242356,left,1,1,0.7948407428339124,S13R12,2021_Sep_15_1015,t1_Paradigm,2021.1.4,60.00510121290471,
S,left,Pretarget,0,60,60,60,327.8839635530021,329.8856028483715,left,1,1,0.6549729197286069,S13R12,2021_Sep_15_1015,t1_Paradigm,2021.1.4,60.00510121290471,
S,right,Target,0,61,61,61,331.3840092672035,333.3836852577515,right,1,1,0.5810487191192806,S13R12,2021_Sep_15_1015,t1_Paradigm,2021.1.4,60.00510121290471,
T,left,Distractor,0,62,62,62,334.88416244997643,336.8856217756402,left,1,1,0.5671018767170608,S13R12,2021_Sep_15_1015,t1_Paradigm,2021.1.4,60.00510121290471,
D,left,Distractor,0,63,63,63,338.38438973762095,340.3867466659285,left,1,1,0.5858604197856039,S13R12,2021_Sep_15_1015,t1_Paradigm,2021.1.4,60.00510121290471,
R,left,Distractor,0,0,0,0,353.23323708213866,355.21859474200755,None,0,1,,S13R12,2021_Sep_15_1015,t1_Paradigm,2021.1.4,60.00510121290471,
V,left,Distractor,0,1,1,1,356.7172853909433,358.7188233130146,left,1,1,0.589733776403591,S13R12,2021_Sep_15_1015,t1_Paradigm,2021.1.4,60.00510121290471,
N,left,Pretarget,0,2,2,2,360.21734361653216,362.21871504257433,left,1,1,0.6418335342314094,S13R12,2021_Sep_15_1015,t1_Paradigm,2021.1.4,60.00510121290471,
N,right,Target,0,3,3,3,363.717121782247,365.717054734705,right,1,1,0.9035298745147884,S13R12,2021_Sep_15_1015,t1_Paradigm,2021.1.4,60.00510121290471,
S,left,Distractor,0,4,4,4,367.2168515070807,369.2183534994256,left,1,1,0.938102645566687,S13R12,2021_Sep_15_1015,t1_Paradigm,2021.1.4,60.00510121290471,
N,left,Lure,0,5,5,5,370.7169386046007,372.717666503042,left,1,1,0.5429233929608017,S13R12,2021_Sep_15_1015,t1_Paradigm,2021.1.4,60.00510121290471,
Z,left,Distractor,0,6,6,6,374.21685792296194,376.2183583113365,left,1,1,0.6422072679270059,S13R12,2021_Sep_15_1015,t1_Paradigm,2021.1.4,60.00510121290471,
L,left,Pretarget,0,7,7,7,377.71684910100885,379.71909952303395,left,1,1,0.6941392463631928,S13R12,2021_Sep_15_1015,t1_Paradigm,2021.1.4,60.00510121290471,
L,right,Target,0,8,8,8,381.21744049852714,383.2171867445577,right,1,1,1.179647201905027,S13R12,2021_Sep_15_1015,t1_Paradigm,2021.1.4,60.00510121290471,
H,left,Distractor,0,9,9,9,384.71769697917625,386.71871424047276,left,1,1,1.021800703369081,S13R12,2021_Sep_15_1015,t1_Paradigm,2021.1.4,60.00510121290471,
L,left,Lure,0,10,10,10,388.21736318524927,390.21900215977803,left,1,1,0.9456187025643885,S13R12,2021_Sep_15_1015,t1_Paradigm,2021.1.4,60.00510121290471,
X,left,Pretarget,0,11,11,11,391.7168558377307,393.7187161652837,left,1,1,0.5337433388922364,S13R12,2021_Sep_15_1015,t1_Paradigm,2021.1.4,60.00510121290471,
X,right,Target,0,12,12,12,395.21680338680744,397.2168175021652,right,1,1,0.715779870050028,S13R12,2021_Sep_15_1015,t1_Paradigm,2021.1.4,60.00510121290471,
X,right,Target,0,13,13,13,398.7173473057337,400.71679616882466,right,1,1,0.47985318838618696,S13R12,2021_Sep_15_1015,t1_Paradigm,2021.1.4,60.00510121290471,
R,left,Distractor,0,14,14,14,402.21743632806465,404.2297560656443,left,1,1,1.1747777569107711,S13R12,2021_Sep_15_1015,t1_Paradigm,2021.1.4,60.00510121290471,
T,left,Distractor,0,15,15,15,405.7167458028998,407.71787502407096,left,1,1,0.598758562700823,S13R12,2021_Sep_15_1015,t1_Paradigm,2021.1.4,60.00510121290471,
V,left,Pretarget,0,16,16,16,409.21679664985277,411.2165525201708,left,1,1,0.7160605711396784,S13R12,2021_Sep_15_1015,t1_Paradigm,2021.1.4,60.00510121290471,
V,right,Target,0,17,17,17,412.7169735720381,414.7169777422678,right,1,1,0.527516903821379,S13R12,2021_Sep_15_1015,t1_Paradigm,2021.1.4,60.00510121290471,
N,left,Distractor,0,18,18,18,416.21718032844365,418.21732436842285,left,1,1,0.5957885829266161,S13R12,2021_Sep_15_1015,t1_Paradigm,2021.1.4,60.00510121290471,
B,left,Distractor,0,19,19,19,419.71734088961966,421.71897120261565,left,1,1,0.5494735166430473,S13R12,2021_Sep_15_1015,t1_Paradigm,2021.1.4,60.00510121290471,
V,left,Lure,0,20,20,20,423.217358694179,425.2187352529727,left,1,1,1.1618831427767873,S13R12,2021_Sep_15_1015,t1_Paradigm,2021.1.4,60.00510121290471,
P,left,Distractor,0,21,21,21,426.716845251387,428.71815604600124,left,1,1,0.7502987463958561,S13R12,2021_Sep_15_1015,t1_Paradigm,2021.1.4,60.00510121290471,
K,left,Pretarget,0,22,22,22,430.21678766747937,432.2184994639829,left,1,1,0.5139931982848793,S13R12,2021_Sep_15_1015,t1_Paradigm,2021.1.4,60.00510121290471,
K,right,Target,0,23,23,23,433.71678301598877,435.7170191258192,right,1,1,0.631547677796334,S13R12,2021_Sep_15_1015,t1_Paradigm,2021.1.4,60.00510121290471,
J,left,Pretarget,0,24,24,24,437.217342012329,439.2172515464481,left,1,1,0.6032815419603139,S13R12,2021_Sep_15_1015,t1_Paradigm,2021.1.4,60.00510121290471,
J,right,Target,0,25,25,25,440.7169276974164,442.716939246282,right,1,1,0.7194588207639754,S13R12,2021_Sep_15_1015,t1_Paradigm,2021.1.4,60.00510121290471,
H,left,Distractor,0,26,26,26,444.2171100729611,446.2185883258935,left,1,1,0.5459078087005764,S13R12,2021_Sep_15_1015,t1_Paradigm,2021.1.4,60.00510121290471,
J,left,Lure,0,27,27,27,447.7167971311137,449.7185329878703,left,1,1,1.2858327988069504,S13R12,2021_Sep_15_1015,t1_Paradigm,2021.1.4,60.00510121290471,
V,left,Distractor,0,28,28,28,451.21717006294057,453.21841381001286,left,1,1,0.5218951792921871,S13R12,2021_Sep_15_1015,t1_Paradigm,2021.1.4,60.00510121290471,
Z,left,Pretarget,0,29,29,29,454.7167721085716,456.7181862012949,left,1,1,0.958191231591627,S13R12,2021_Sep_15_1015,t1_Paradigm,2021.1.4,60.00510121290471,
Z,right,Target,0,30,30,30,458.2165881290566,460.21673281048425,right,1,1,0.7235666832420975,S13R12,2021_Sep_15_1015,t1_Paradigm,2021.1.4,60.00510121290471,
T,left,Distractor,0,31,31,31,461.71658091107383,463.716633843258,left,1,1,1.0159101474564523,S13R12,2021_Sep_15_1015,t1_Paradigm,2021.1.4,60.00510121290471,
Z,left,Lure,0,32,32,32,465.2175255108159,467.218904315494,left,1,1,0.7615829368587583,S13R12,2021_Sep_15_1015,t1_Paradigm,2021.1.4,60.00510121290471,
F,left,Distractor,0,33,33,33,468.7167464445811,470.71882972912863,left,1,1,0.877893989905715,S13R12,2021_Sep_15_1015,t1_Paradigm,2021.1.4,60.00510121290471,
Y,left,Pretarget,0,34,34,34,472.2171004489064,474.2189697588328,left,1,1,0.5937806866131723,S13R12,2021_Sep_15_1015,t1_Paradigm,2021.1.4,60.00510121290471,
Y,right,Target,0,35,35,35,475.7171028549783,477.71666945214383,right,1,1,0.8396310398820788,S13R12,2021_Sep_15_1015,t1_Paradigm,2021.1.4,60.00510121290471,
Y,right,Target,0,36,36,36,479.2170215318911,481.21657240972854,right,1,1,0.7478908109478652,S13R12,2021_Sep_15_1015,t1_Paradigm,2021.1.4,60.00510121290471,
W,left,Distractor,0,37,37,37,482.716662715422,484.7168529506307,left,1,1,0.6394961748737842,S13R12,2021_Sep_15_1015,t1_Paradigm,2021.1.4,60.00510121290471,
Q,left,Distractor,0,38,38,38,486.2175486085471,488.2181225223467,left,1,1,0.898434906033799,S13R12,2021_Sep_15_1015,t1_Paradigm,2021.1.4,60.00510121290471,
P,left,Pretarget,0,39,39,39,489.7165953470394,491.71798377577215,left,1,1,1.238252491923049,S13R12,2021_Sep_15_1015,t1_Paradigm,2021.1.4,60.00510121290471,
P,right,Target,0,40,40,40,493.21655508643016,495.2166205300018,right,1,1,0.7638718551024795,S13R12,2021_Sep_15_1015,t1_Paradigm,2021.1.4,60.00510121290471,
J,left,Distractor,0,41,41,41,496.7166344849393,498.7160480597522,left,1,1,0.8164338876958936,S13R12,2021_Sep_15_1015,t1_Paradigm,2021.1.4,60.00510121290471,
P,left,Lure,0,42,42,42,500.2168909655884,502.21854886738583,right,0,1,0.7056483186315745,S13R12,2021_Sep_15_1015,t1_Paradigm,2021.1.4,60.00510121290471,
L,left,Distractor,0,43,43,43,503.7166502040345,505.71817112364806,left,1,1,0.5982751147821546,S13R12,2021_Sep_15_1015,t1_Paradigm,2021.1.4,60.00510121290471,
Z,left,Distractor,0,44,44,44,507.2166747453157,509.218689378351,left,1,1,0.5535168980713934,S13R12,2021_Sep_15_1015,t1_Paradigm,2021.1.4,60.00510121290471,
F,left,Pretarget,0,45,45,45,510.7165420940146,512.7181278155185,left,1,1,0.6380859317723662,S13R12,2021_Sep_15_1015,t1_Paradigm,2021.1.4,60.00510121290471,
F,right,Target,0,46,46,46,514.2165265351068,516.2165358383209,right,1,1,0.9957224337849766,S13R12,2021_Sep_15_1015,t1_Paradigm,2021.1.4,60.00510121290471,
G,left,Pretarget,0,47,47,47,517.7164782546461,519.7185012283735,left,1,1,0.8858703968580812,S13R12,2021_Sep_15_1015,t1_Paradigm,2021.1.4,60.00510121290471,
G,right,Target,0,48,48,48,521.2171886693686,523.216824238887,right,1,1,1.3715092393103987,S13R12,2021_Sep_15_1015,t1_Paradigm,2021.1.4,60.00510121290471,
V,left,Distractor,0,49,49,49,524.7176684278529,526.7184351433534,left,1,1,0.5897549495566636,S13R12,2021_Sep_15_1015,t1_Paradigm,2021.1.4,60.00510121290471,
G,left,Lure,0,50,50,50,528.2172772104386,530.2163731921464,left,1,1,0.7399230652954429,S13R12,2021_Sep_15_1015,t1_Paradigm,2021.1.4,60.00510121290471,
Q,left,Pretarget,0,51,51,51,531.7166489209048,533.7161382050253,left,1,1,0.6161546623334289,S13R12,2021_Sep_15_1015,t1_Paradigm,2021.1.4,60.00510121290471,
Q,right,Target,0,52,52,52,535.2163738335948,537.2167831764091,right,1,1,0.5074446785729378,S13R12,2021_Sep_15_1015,t1_Paradigm,2021.1.4,60.00510121290471,
Y,left,Distractor,0,53,53,53,538.7172565187793,540.7186487971339,left,1,1,0.5735291333403438,S13R12,2021_Sep_15_1015,t1_Paradigm,2021.1.4,60.00510121290471,
V,left,Distractor,0,54,54,54,542.2169307449367,544.2184985016938,left,1,1,0.8336939674336463,S13R12,2021_Sep_15_1015,t1_Paradigm,2021.1.4,60.00510121290471,
B,left,Distractor,0,55,55,55,545.7166611114517,547.7185365166515,left,1,1,0.6617979700677097,S13R12,2021_Sep_15_1015,t1_Paradigm,2021.1.4,60.00510121290471,
J,left,Pretarget,0,56,56,56,549.2166048106737,551.2183438753709,None,0,1,,S13R12,2021_Sep_15_1015,t1_Paradigm,2021.1.4,60.00510121290471,
J,right,Target,0,57,57,57,552.7171346142422,554.7166996074375,right,1,1,0.6555198859423399,S13R12,2021_Sep_15_1015,t1_Paradigm,2021.1.4,60.00510121290471,
H,left,Distractor,0,58,58,58,556.2171806492843,558.2185369976796,left,1,1,0.6096715859603137,S13R12,2021_Sep_15_1015,t1_Paradigm,2021.1.4,60.00510121290471,
J,left,Lure,0,59,59,59,559.7175449193455,561.7186205666512,left,1,1,0.6457004747353494,S13R12,2021_Sep_15_1015,t1_Paradigm,2021.1.4,60.00510121290471,
D,left,Pretarget,0,60,60,60,563.216522685485,565.2176804579794,left,1,1,0.5704375701025128,S13R12,2021_Sep_15_1015,t1_Paradigm,2021.1.4,60.00510121290471,
D,right,Target,0,61,61,61,566.7165629460942,568.716480179457,right,1,1,0.6397005254402757,S13R12,2021_Sep_15_1015,t1_Paradigm,2021.1.4,60.00510121290471,
R,left,Distractor,0,62,62,62,570.2171395868063,572.218641899759,left,1,1,0.5778766344301403,S13R12,2021_Sep_15_1015,t1_Paradigm,2021.1.4,60.00510121290471,
F,left,Distractor,0,63,63,63,573.7171612407546,575.7186452683527,left,1,1,0.5015922978054732,S13R12,2021_Sep_15_1015,t1_Paradigm,2021.1.4,60.00510121290471,
F,left,Distractor,0,0,0,0,870.7556015939917,872.7326963713858,None,0,2,,S13R12,2021_Sep_15_1015,t1_Paradigm,2021.1.4,60.00510121290471,
N,left,Pretarget,0,1,1,1,874.232892220607,876.232542226091,None,0,2,,S13R12,2021_Sep_15_1015,t1_Paradigm,2021.1.4,60.00510121290471,
V,left,Distractor,0,2,2,2,877.7331365109421,879.7346346536651,left,1,2,0.8849740775767714,S13R12,2021_Sep_15_1015,t1_Paradigm,2021.1.4,60.00510121290471,
N,right,Target,0,3,3,3,881.2328890126664,883.2347406784538,None,0,2,,S13R12,2021_Sep_15_1015,t1_Paradigm,2021.1.4,60.00510121290471,
N,left,Lure,0,4,4,4,884.7329546164256,886.7328198798932,left,1,2,0.7188910022377968,S13R12,2021_Sep_15_1015,t1_Paradigm,2021.1.4,60.00510121290471,
X,left,Distractor,0,5,5,5,888.2335790563375,890.2345100222155,None,0,2,,S13R12,2021_Sep_15_1015,t1_Paradigm,2021.1.4,60.00510121290471,
G,left,Pretarget,0,6,6,6,891.7327958196402,893.7345701723825,left,1,2,1.0291813821531832,S13R12,2021_Sep_15_1015,t1_Paradigm,2021.1.4,60.00510121290471,
H,left,Pretarget,0,7,7,7,895.2327029476874,897.2339319379535,left,1,2,1.0496924638282508,S13R12,2021_Sep_15_1015,t1_Paradigm,2021.1.4,60.00510121290471,
G,right,Target,0,8,8,8,898.7327877997886,900.7339317775331,left,0,2,1.4376915385946631,S13R12,2021_Sep_15_1015,t1_Paradigm,2021.1.4,60.00510121290471,
H,right,Target,0,9,9,9,902.233266595751,904.2343762479722,right,1,2,1.217214333359152,S13R12,2021_Sep_15_1015,t1_Paradigm,2021.1.4,60.00510121290471,
T,left,Pretarget,0,10,10,10,905.7328176342417,907.7325866571628,left,1,2,0.9991627081762999,S13R12,2021_Sep_15_1015,t1_Paradigm,2021.1.4,60.00510121290471,
K,left,Distractor,0,11,11,11,909.2336724095512,911.2346701021306,left,1,2,0.7130565864499658,S13R12,2021_Sep_15_1015,t1_Paradigm,2021.1.4,60.00510121290471,
T,right,Target,0,12,12,12,912.7327124113217,914.7346965682227,right,1,2,0.8927580036688596,S13R12,2021_Sep_15_1015,t1_Paradigm,2021.1.4,60.00510121290471,
T,left,Lure,0,13,13,13,916.2327985465527,918.2328020753339,left,1,2,1.2829529643058777,S13R12,2021_Sep_15_1015,t1_Paradigm,2021.1.4,60.00510121290471,
J,left,Distractor,0,14,14,14,919.7326957297046,921.7347273651976,left,1,2,1.2688649692572653,S13R12,2021_Sep_15_1015,t1_Paradigm,2021.1.4,60.00510121290471,
Q,left,Pretarget,0,15,15,15,923.2325961207971,925.2349976403639,left,1,2,1.0487621393986046,S13R12,2021_Sep_15_1015,t1_Paradigm,2021.1.4,60.00510121290471,
M,left,Distractor,0,16,16,16,926.733426194638,928.7364151016809,left,1,2,0.7150433098431677,S13R12,2021_Sep_15_1015,t1_Paradigm,2021.1.4,60.00510121290471,
Q,right,Target,0,17,17,17,930.2326990980655,932.2333551370539,right,1,2,1.218097500037402,S13R12,2021_Sep_15_1015,t1_Paradigm,2021.1.4,60.00510121290471,
R,left,Distractor,0,18,18,18,933.7326832183171,935.7335394374095,left,1,2,0.8059930840972811,S13R12,2021_Sep_15_1015,t1_Paradigm,2021.1.4,60.00510121290471,
W,left,Distractor,0,19,19,19,937.2324883316178,939.2339242387097,left,1,2,0.8257146733812988,S13R12,2021_Sep_15_1015,t1_Paradigm,2021.1.4,60.00510121290471,
C,left,Pretarget,0,20,20,20,940.7325449530035,942.7341508849058,left,1,2,0.7975178307387978,S13R12,2021_Sep_15_1015,t1_Paradigm,2021.1.4,60.00510121290471,
T,left,Distractor,0,21,21,21,944.2335412018001,946.2343085589819,left,1,2,0.7211452738847584,S13R12,2021_Sep_15_1015,t1_Paradigm,2021.1.4,60.00510121290471,
C,right,Target,0,22,22,22,947.732740000356,949.7325385368895,right,1,2,0.9349571876227856,S13R12,2021_Sep_15_1015,t1_Paradigm,2021.1.4,60.00510121290471,
F,left,Pretarget,0,23,23,23,951.2333824052475,953.2345741824247,left,1,2,0.9369089433457702,S13R12,2021_Sep_15_1015,t1_Paradigm,2021.1.4,60.00510121290471,
C,right,Target,0,24,24,24,954.7323341865558,956.7343735212926,right,1,2,0.58930967701599,S13R12,2021_Sep_15_1015,t1_Paradigm,2021.1.4,60.00510121290471,
F,right,Target,0,25,25,25,958.232494747499,960.2345815608278,right,1,2,1.0088512324728072,S13R12,2021_Sep_15_1015,t1_Paradigm,2021.1.4,60.00510121290471,
H,left,Distractor,0,26,26,26,961.7325959603768,963.7326107174158,left,1,2,0.6469795100856572,S13R12,2021_Sep_15_1015,t1_Paradigm,2021.1.4,60.00510121290471,
H,left,Lure,0,27,27,27,965.232341083698,967.2327016645577,left,1,2,1.2907311159651726,S13R12,2021_Sep_15_1015,t1_Paradigm,2021.1.4,60.00510121290471,
P,left,Distractor,0,28,28,28,968.7323495850433,970.7349698911421,left,1,2,1.420455518644303,S13R12,2021_Sep_15_1015,t1_Paradigm,2021.1.4,60.00510121290471,
G,left,Pretarget,0,29,29,29,972.2323715598322,974.2344227642752,left,1,2,1.233098175143823,S13R12,2021_Sep_15_1015,t1_Paradigm,2021.1.4,60.00510121290471,
K,left,Distractor,0,30,30,30,975.7322966526262,977.7345021625515,left,1,2,0.6928707975894213,S13R12,2021_Sep_15_1015,t1_Paradigm,2021.1.4,60.00510121290471,
G,right,Target,0,31,31,31,979.2324957100209,981.234316899674,right,1,2,1.0171628769021481,S13R12,2021_Sep_15_1015,t1_Paradigm,2021.1.4,60.00510121290471,
M,left,Pretarget,0,32,32,32,982.7325728626456,984.7341659627855,left,1,2,0.9892868360038847,S13R12,2021_Sep_15_1015,t1_Paradigm,2021.1.4,60.00510121290471,
B,left,Distractor,0,33,33,33,986.2330744357314,988.2345116261858,left,1,2,1.3928717277012765,S13R12,2021_Sep_15_1015,t1_Paradigm,2021.1.4,60.00510121290471,
M,right,Target,0,34,34,34,989.7328538848087,991.7341922684573,right,1,2,0.9171568779274821,S13R12,2021_Sep_15_1015,t1_Paradigm,2021.1.4,60.00510121290471,
M,left,Lure,0,35,35,35,993.2324421361554,995.2324337952305,left,1,2,1.2109218132682145,S13R12,2021_Sep_15_1015,t1_Paradigm,2021.1.4,60.00510121290471,
T,left,Distractor,0,36,36,36,996.7325038905255,998.7336789860856,left,1,2,1.2458724884781986,S13R12,2021_Sep_15_1015,t1_Paradigm,2021.1.4,60.00510121290471,
F,left,Distractor,0,37,37,37,1000.2325364516582,1002.2333115080837,left,1,2,1.3623830799479038,S13R12,2021_Sep_15_1015,t1_Paradigm,2021.1.4,60.00510121290471,
X,left,Distractor,0,38,38,38,1003.7329687317833,1005.7344931801781,left,1,2,0.8689776347018778,S13R12,2021_Sep_15_1015,t1_Paradigm,2021.1.4,60.00510121290471,
C,left,Distractor,0,39,39,39,1007.233360590646,1009.2343031053897,left,1,2,0.9371142564341426,S13R12,2021_Sep_15_1015,t1_Paradigm,2021.1.4,60.00510121290471,
R,left,Distractor,0,40,40,40,1010.7332459040917,1012.7340831959154,left,1,2,0.9254024373367429,S13R12,2021_Sep_15_1015,t1_Paradigm,2021.1.4,60.00510121290471,
B,left,Pretarget,0,41,41,41,1014.2325489630457,1016.2323375549167,left,1,2,1.2351394346915185,S13R12,2021_Sep_15_1015,t1_Paradigm,2021.1.4,60.00510121290471,
H,left,Distractor,0,42,42,42,1017.7323040310293,1019.7343667843379,left,1,2,1.013354643015191,S13R12,2021_Sep_15_1015,t1_Paradigm,2021.1.4,60.00510121290471,
B,right,Target,0,43,43,43,1021.2326006121002,1023.2342123184353,right,1,2,0.6650970922783017,S13R12,2021_Sep_15_1015,t1_Paradigm,2021.1.4,60.00510121290471,
W,left,Pretarget,0,44,44,44,1024.7325131937396,1026.733700800687,left,1,2,1.341614074073732,S13R12,2021_Sep_15_1015,t1_Paradigm,2021.1.4,60.00510121290471,
L,left,Pretarget,0,45,45,45,1028.2324841611553,1030.2341523286887,left,1,2,0.9453732892870903,S13R12,2021_Sep_15_1015,t1_Paradigm,2021.1.4,60.00510121290471,
W,right,Target,0,46,46,46,1031.7324666774366,1033.7322183770593,right,1,2,1.1911713518202305,S13R12,2021_Sep_15_1015,t1_Paradigm,2021.1.4,60.00510121290471,
L,right,Target,0,47,47,47,1035.2327873185277,1037.2344259722158,left,0,2,0.8729093770962209,S13R12,2021_Sep_15_1015,t1_Paradigm,2021.1.4,60.00510121290471,
W,right,Target,0,48,48,48,1038.7325074193068,1040.7323380361777,None,0,2,,S13R12,2021_Sep_15_1015,t1_Paradigm,2021.1.4,60.00510121290471,
X,left,Distractor,0,49,49,49,1042.2329358495772,1044.2342575513758,left,1,2,1.009023823775351,S13R12,2021_Sep_15_1015,t1_Paradigm,2021.1.4,60.00510121290471,
R,left,Distractor,0,50,50,50,1045.7330903154798,1047.7334072673693,left,1,2,1.3980866761412472,S13R12,2021_Sep_15_1015,t1_Paradigm,2021.1.4,60.00510121290471,
V,left,Pretarget,0,51,51,51,1049.2324437401257,1051.2351618907414,left,1,2,0.8241449920460582,S13R12,2021_Sep_15_1015,t1_Paradigm,2021.1.4,60.00510121290471,
Z,left,Distractor,0,52,52,52,1052.7327207522467,1054.7341386945918,left,1,2,0.6051383407320827,S13R12,2021_Sep_15_1015,t1_Paradigm,2021.1.4,60.00510121290471,
V,right,Target,0,53,53,53,1056.2322223871015,1058.2324661961757,right,1,2,0.6908625806681812,S13R12,2021_Sep_15_1015,t1_Paradigm,2021.1.4,60.00510121290471,
V,left,Lure,0,54,54,54,1059.7332516785245,1061.7324455045164,left,1,2,1.2869491877499968,S13R12,2021_Sep_15_1015,t1_Paradigm,2021.1.4,60.00510121290471,
N,left,Distractor,0,55,55,55,1063.2329319999553,1065.2343797767535,left,1,2,1.1928363114129752,S13R12,2021_Sep_15_1015,t1_Paradigm,2021.1.4,60.00510121290471,
B,left,Distractor,0,56,56,56,1066.7323864770588,1068.7343298923224,left,1,2,0.7969891501124948,S13R12,2021_Sep_15_1015,t1_Paradigm,2021.1.4,60.00510121290471,
V,left,Lure,0,57,57,57,1070.2324864068069,1072.2346251900308,right,0,2,1.040671847993508,S13R12,2021_Sep_15_1015,t1_Paradigm,2021.1.4,60.00510121290471,
J,left,Distractor,0,58,58,58,1073.7324907374568,1075.7341566593386,left,1,2,1.1411401217337698,S13R12,2021_Sep_15_1015,t1_Paradigm,2021.1.4,60.00510121290471,
H,left,Distractor,0,59,59,59,1077.232547679916,1079.2342315665446,left,1,2,0.7929509016685188,S13R12,2021_Sep_15_1015,t1_Paradigm,2021.1.4,60.00510121290471,
X,left,Pretarget,0,60,60,60,1080.7324618655257,1082.7343674260192,left,1,2,0.5408580731600523,S13R12,2021_Sep_15_1015,t1_Paradigm,2021.1.4,60.00510121290471,
P,left,Distractor,0,61,61,61,1084.2324549681507,1086.2343162582256,left,1,2,0.6731280353851616,S13R12,2021_Sep_15_1015,t1_Paradigm,2021.1.4,60.00510121290471,
X,right,Target,0,62,62,62,1087.7329581452068,1089.7343221930787,right,1,2,0.9811124943662435,S13R12,2021_Sep_15_1015,t1_Paradigm,2021.1.4,60.00510121290471,
Q,left,Distractor,0,63,63,63,1091.2324459857773,1093.2346547036432,left,1,2,0.792506591649726,S13R12,2021_Sep_15_1015,t1_Paradigm,2021.1.4,60.00510121290471,
B,left,Pretarget,0,0,0,0,1100.0278792490717,1102.0154167546425,None,0,2,,S13R12,2021_Sep_15_1015,t1_Paradigm,2021.1.4,60.00510121290471,
F,left,Distractor,0,1,1,1,1103.5163334447425,1105.5174928212073,left,1,2,0.9096449913922697,S13R12,2021_Sep_15_1015,t1_Paradigm,2021.1.4,60.00510121290471,
B,right,Target,0,2,2,2,1107.0154587796424,1109.014777397504,right,1,2,1.0124685894697905,S13R12,2021_Sep_15_1015,t1_Paradigm,2021.1.4,60.00510121290471,
V,left,Distractor,0,3,3,3,1110.516324462369,1112.5173192676157,left,1,2,0.7579062315635383,S13R12,2021_Sep_15_1015,t1_Paradigm,2021.1.4,60.00510121290471,
G,left,Pretarget,0,4,4,4,1114.0153468200006,1116.0173951371107,left,1,2,0.7301087868399918,S13R12,2021_Sep_15_1015,t1_Paradigm,2021.1.4,60.00510121290471,
B,left,Lure,0,5,5,5,1117.5153854764067,1119.5177513870876,right,0,2,0.7335327006876469,S13R12,2021_Sep_15_1015,t1_Paradigm,2021.1.4,60.00510121290471,
G,right,Target,0,6,6,6,1121.015601536259,1123.0150991613045,right,1,2,1.0441442029550672,S13R12,2021_Sep_15_1015,t1_Paradigm,2021.1.4,60.00510121290471,
Y,left,Pretarget,0,7,7,7,1124.5154685641173,1126.515042539686,left,1,2,0.8081700426992029,S13R12,2021_Sep_15_1015,t1_Paradigm,2021.1.4,60.00510121290471,
P,left,Distractor,0,8,8,8,1128.0164372241125,1130.017198485788,left,1,2,0.8739314503036439,S13R12,2021_Sep_15_1015,t1_Paradigm,2021.1.4,60.00510121290471,
Y,right,Target,0,9,9,9,1131.5153434516396,1133.5171803606208,right,1,2,0.7659429493360221,S13R12,2021_Sep_15_1015,t1_Paradigm,2021.1.4,60.00510121290471,
X,left,Distractor,0,10,10,10,1135.0153140982147,1137.0176716679707,left,1,2,0.9616837969515473,S13R12,2021_Sep_15_1015,t1_Paradigm,2021.1.4,60.00510121290471,
Y,right,Target,0,11,11,11,1138.516241695499,1140.517644881038,left,0,2,0.6617161659523845,S13R12,2021_Sep_15_1015,t1_Paradigm,2021.1.4,60.00510121290471,
N,left,Distractor,0,12,12,12,1142.0159040519502,1144.0149400436785,left,1,2,0.6681912222411484,S13R12,2021_Sep_15_1015,t1_Paradigm,2021.1.4,60.00510121290471,
Y,right,Target,0,13,13,13,1145.5153258075006,1147.5165207928512,right,1,2,0.7987593326251954,S13R12,2021_Sep_15_1015,t1_Paradigm,2021.1.4,60.00510121290471,
Y,left,Lure,0,14,14,14,1149.0153407247271,1151.0153862785082,left,1,2,0.9963188034016639,S13R12,2021_Sep_15_1015,t1_Paradigm,2021.1.4,60.00510121290471,
K,left,Distractor,0,15,15,15,1152.515332865063,1154.5171405812725,left,1,2,0.7739411706570536,S13R12,2021_Sep_15_1015,t1_Paradigm,2021.1.4,60.00510121290471,
T,left,Pretarget,0,16,16,16,1156.0151357327122,1158.017458976712,left,1,2,0.8416934721171856,S13R12,2021_Sep_15_1015,t1_Paradigm,2021.1.4,60.00510121290471,
J,left,Distractor,0,17,17,17,1159.5154249351472,1161.5171399395913,left,1,2,0.6699434395413846,S13R12,2021_Sep_15_1015,t1_Paradigm,2021.1.4,60.00510121290471,
T,right,Target,0,18,18,18,1163.0154549300205,1165.0151001235936,right,1,2,0.9801600349601358,S13R12,2021_Sep_15_1015,t1_Paradigm,2021.1.4,60.00510121290471,
S,left,Pretarget,0,19,19,19,1166.515459581744,1168.515271591954,left,1,2,0.7918524774722755,S13R12,2021_Sep_15_1015,t1_Paradigm,2021.1.4,60.00510121290471,
R,left,Distractor,0,20,20,20,1170.0162168333773,1172.0176405501552,left,1,2,0.7775841918773949,S13R12,2021_Sep_15_1015,t1_Paradigm,2021.1.4,60.00510121290471,
S,right,Target,0,21,21,21,1173.5153405643068,1175.5151689355262,right,1,2,1.4079468292184174,S13R12,2021_Sep_15_1015,t1_Paradigm,2021.1.4,60.00510121290471,
Q,left,Distractor,0,22,22,22,1177.0161738460883,1179.017215167638,left,1,2,0.8339762729592621,S13R12,2021_Sep_15_1015,t1_Paradigm,2021.1.4,60.00510121290471,
D,left,Distractor,0,23,23,23,1180.5162561316974,1182.5174905755557,left,1,2,0.9818426384590566,S13R12,2021_Sep_15_1015,t1_Paradigm,2021.1.4,60.00510121290471,
F,left,Distractor,0,24,24,24,1184.0159743076656,1186.0174650717527,left,1,2,0.889608375262469,S13R12,2021_Sep_15_1015,t1_Paradigm,2021.1.4,60.00510121290471,
Z,left,Distractor,0,25,25,25,1187.5159096659627,1189.5177205901127,left,1,2,0.8296114483382553,S13R12,2021_Sep_15_1015,t1_Paradigm,2021.1.4,60.00510121290471,
P,left,Distractor,0,26,26,26,1191.0151450359263,1193.0173415632453,left,1,2,0.8177937651053071,S13R12,2021_Sep_15_1015,t1_Paradigm,2021.1.4,60.00510121290471,
H,left,Distractor,0,27,27,27,1194.515241757501,1196.5163876602892,left,1,2,1.1265789445023984,S13R12,2021_Sep_15_1015,t1_Paradigm,2021.1.4,60.00510121290471,
Z,left,Pretarget,0,28,28,28,1198.0152553915977,1200.0163191691972,right,0,2,1.3546437453478575,S13R12,2021_Sep_15_1015,t1_Paradigm,2021.1.4,60.00510121290471,
J,left,Pretarget,0,29,29,29,1201.515248173615,1203.5174283401575,left,1,2,1.325626292731613,S13R12,2021_Sep_15_1015,t1_Paradigm,2021.1.4,60.00510121290471,
Z,right,Target,0,30,30,30,1205.0157064383384,1207.018143566791,right,1,2,1.1049116945359856,S13R12,2021_Sep_15_1015,t1_Paradigm,2021.1.4,60.00510121290471,
J,right,Target,0,31,31,31,1208.5159696559422,1210.51754062064,right,1,2,1.2055875270161778,S13R12,2021_Sep_15_1015,t1_Paradigm,2021.1.4,60.00510121290471,
V,left,Pretarget,0,32,32,32,1212.0152563538868,1214.0170287818182,left,1,2,0.8422266442794353,S13R12,2021_Sep_15_1015,t1_Paradigm,2021.1.4,60.00510121290471,
Z,left,Lure,0,33,33,33,1215.5152132061776,1217.5149969859049,left,1,2,1.2322034598328173,S13R12,2021_Sep_15_1015,t1_Paradigm,2021.1.4,60.00510121290471,
V,right,Target,0,34,34,34,1219.0149894470815,1221.01696943352,right,1,2,0.9621800766326487,S13R12,2021_Sep_15_1015,t1_Paradigm,2021.1.4,60.00510121290471,
X,left,Distractor,0,35,35,35,1222.5151673315559,1224.5151670107152,left,1,2,1.3679422482382506,S13R12,2021_Sep_15_1015,t1_Paradigm,2021.1.4,60.00510121290471,
S,left,Distractor,0,36,36,36,1226.0160060669295,1228.0173434880562,left,1,2,0.8095956842880696,S13R12,2021_Sep_15_1015,t1_Paradigm,2021.1.4,60.00510121290471,
Q,left,Distractor,0,37,37,37,1229.5152484942228,1231.5168765615672,left,1,2,0.6860605038236827,S13R12,2021_Sep_15_1015,t1_Paradigm,2021.1.4,60.00510121290471,
P,left,Distractor,0,38,38,38,1233.0150747802109,1235.0168638899922,left,1,2,1.0100385185796767,S13R12,2021_Sep_15_1015,t1_Paradigm,2021.1.4,60.00510121290471,
S,left,Lure,0,39,39,39,1236.5154682432767,1238.5168508975767,left,1,2,0.8060950990766287,S13R12,2021_Sep_15_1015,t1_Paradigm,2021.1.4,60.00510121290471,
K,left,Pretarget,0,40,40,40,1240.0151857775636,1242.0160452045966,left,1,2,0.8588678981177509,S13R12,2021_Sep_15_1015,t1_Paradigm,2021.1.4,60.00510121290471,
L,left,Distractor,0,41,41,41,1243.5150710910093,1245.516466256464,left,1,2,1.0865878371987492,S13R12,2021_Sep_15_1015,t1_Paradigm,2021.1.4,60.00510121290471,
K,right,Target,0,42,42,42,1247.0151466398966,1249.0280396495946,right,1,2,1.3670642145443708,S13R12,2021_Sep_15_1015,t1_Paradigm,2021.1.4,60.00510121290471,
B,left,Distractor,0,43,43,43,1250.515156103531,1252.5171566212084,left,1,2,1.381943947635591,S13R12,2021_Sep_15_1015,t1_Paradigm,2021.1.4,60.00510121290471,
N,left,Distractor,0,44,44,44,1254.015805565985,1256.0184444787446,left,1,2,0.8565023082774132,S13R12,2021_Sep_15_1015,t1_Paradigm,2021.1.4,60.00510121290471,
S,left,Pretarget,0,45,45,45,1257.5159972449765,1259.5173353075515,left,1,2,0.605680174427107,S13R12,2021_Sep_15_1015,t1_Paradigm,2021.1.4,60.00510121290471,
Z,left,Distractor,0,46,46,46,1261.0151087853592,1263.0172363403253,left,1,2,1.3619163138791919,S13R12,2021_Sep_15_1015,t1_Paradigm,2021.1.4,60.00510121290471,
S,right,Target,0,47,47,47,1264.5152847447898,1266.5170119397808,right,1,2,0.9018267397768795,S13R12,2021_Sep_15_1015,t1_Paradigm,2021.1.4,60.00510121290471,
C,left,Distractor,0,48,48,48,1268.0151530557778,1270.0170589371119,left,1,2,0.8420838876627386,S13R12,2021_Sep_15_1015,t1_Paradigm,2021.1.4,60.00510121290471,
T,left,Pretarget,0,49,49,49,1271.515097396914,1273.5150762239937,left,1,2,0.575820297235623,S13R12,2021_Sep_15_1015,t1_Paradigm,2021.1.4,60.00510121290471,
S,left,Lure,0,50,50,50,1275.0152165745385,1277.014771943679,right,0,2,1.012202324345708,S13R12,2021_Sep_15_1015,t1_Paradigm,2021.1.4,60.00510121290471,
T,right,Target,0,51,51,51,1278.5159058163408,1280.5175473573618,right,1,2,0.9653977153357118,S13R12,2021_Sep_15_1015,t1_Paradigm,2021.1.4,60.00510121290471,
N,left,Pretarget,0,52,52,52,1282.0155967243481,1284.0170153081417,left,1,2,0.8578519199509174,S13R12,2021_Sep_15_1015,t1_Paradigm,2021.1.4,60.00510121290471,
B,left,Distractor,0,53,53,53,1285.515441937605,1287.5169243609998,left,1,2,1.118043701397255,S13R12,2021_Sep_15_1015,t1_Paradigm,2021.1.4,60.00510121290471,
N,right,Target,0,54,54,54,1289.0152159328572,1291.0163105074316,right,1,2,0.7385214839596301,S13R12,2021_Sep_15_1015,t1_Paradigm,2021.1.4,60.00510121290471,
N,left,Lure,0,55,55,55,1292.51507141185,1294.5151628402527,left,1,2,1.335673152236268,S13R12,2021_Sep_15_1015,t1_Paradigm,2021.1.4,60.00510121290471,
X,left,Distractor,0,56,56,56,1296.0150189609267,1298.017387437867,left,1,2,1.1776502127759159,S13R12,2021_Sep_15_1015,t1_Paradigm,2021.1.4,60.00510121290471,
W,left,Distractor,0,57,57,57,1299.5150540885516,1301.5168184966315,left,1,2,0.6859979475848377,S13R12,2021_Sep_15_1015,t1_Paradigm,2021.1.4,60.00510121290471,
S,left,Distractor,0,58,58,58,1303.0151877023745,1305.0161805828102,left,1,2,0.7066296506673098,S13R12,2021_Sep_15_1015,t1_Paradigm,2021.1.4,60.00510121290471,
L,left,Distractor,0,59,59,59,1306.515019121347,1308.5163212544285,left,1,2,0.7264484425541013,S13R12,2021_Sep_15_1015,t1_Paradigm,2021.1.4,60.00510121290471,
K,left,Pretarget,0,60,60,60,1310.0150240936782,1312.017149082385,left,1,2,0.793917155591771,S13R12,2021_Sep_15_1015,t1_Paradigm,2021.1.4,60.00510121290471,
V,left,Pretarget,0,61,61,61,1313.5149472616613,1315.5161573248915,None,0,2,,S13R12,2021_Sep_15_1015,t1_Paradigm,2021.1.4,60.00510121290471,
K,right,Target,0,62,62,62,1317.0150555323344,1319.015764503507,right,1,2,0.8994351648725569,S13R12,2021_Sep_15_1015,t1_Paradigm,2021.1.4,60.00510121290471,
V,right,Target,0,63,63,63,1320.5155455563217,1322.5168640504126,right,1,2,0.7739934613928199,S13R12,2021_Sep_15_1015,t1_Paradigm,2021.1.4,60.00510121290471,
R,left,Distractor,0,0,0,0,1385.3146061215084,1387.2990340988617,None,0,3,,S13R12,2021_Sep_15_1015,t1_Paradigm,2021.1.4,60.00510121290471,
P,left,Lure,0,1,1,1,1388.7991818278097,1390.800413384568,left,1,3,0.8262940407730639,S13R12,2021_Sep_15_1015,t1_Paradigm,2021.1.4,60.00510121290471,
V,left,Distractor,0,2,2,2,1392.2989356128965,1394.300418357132,None,0,3,,S13R12,2021_Sep_15_1015,t1_Paradigm,2021.1.4,60.00510121290471,
P,left,Pretarget,0,3,3,3,1395.7981713034678,1397.7983727667015,left,1,3,1.3326720546465367,S13R12,2021_Sep_15_1015,t1_Paradigm,2021.1.4,60.00510121290471,
Z,left,Distractor,0,4,4,4,1399.2983276941814,1401.30009434768,left,1,3,1.0627221348695457,S13R12,2021_Sep_15_1015,t1_Paradigm,2021.1.4,60.00510121290471,
L,left,Pretarget,0,5,5,5,1402.7982069123536,1404.80033029709,left,1,3,1.3223929349333048,S13R12,2021_Sep_15_1015,t1_Paradigm,2021.1.4,60.00510121290471,
P,right,Target,0,6,6,6,1406.298091584118,1408.2982240752317,right,1,3,0.7685151351615787,S13R12,2021_Sep_15_1015,t1_Paradigm,2021.1.4,60.00510121290471,
S,left,Distractor,0,7,7,7,1409.7982004962396,1411.800025856588,left,1,3,0.5628162901848555,S13R12,2021_Sep_15_1015,t1_Paradigm,2021.1.4,60.00510121290471,
L,right,Target,0,8,8,8,1413.2981634438038,1415.29937286512,right,1,3,0.6794330668635666,S13R12,2021_Sep_15_1015,t1_Paradigm,2021.1.4,60.00510121290471,
D,left,Distractor,0,9,9,9,1416.7981809275225,1418.7992267401423,left,1,3,0.6194881100673229,S13R12,2021_Sep_15_1015,t1_Paradigm,2021.1.4,60.00510121290471,
G,left,Distractor,0,10,10,10,1420.2992782287765,1422.3002223474905,left,1,3,1.1184822369832546,S13R12,2021_Sep_15_1015,t1_Paradigm,2021.1.4,60.00510121290471,
M,left,Pretarget,0,11,11,11,1423.7981648873538,1425.7980635140557,left,1,3,0.5487693576142192,S13R12,2021_Sep_15_1015,t1_Paradigm,2021.1.4,60.00510121290471,
Y,left,Distractor,0,12,12,12,1427.2993879427668,1429.3010836993344,left,1,3,0.9176627818960696,S13R12,2021_Sep_15_1015,t1_Paradigm,2021.1.4,60.00510121290471,
V,left,Distractor,0,13,13,13,1430.798699021805,1432.799996984424,left,1,3,0.5866107745096087,S13R12,2021_Sep_15_1015,t1_Paradigm,2021.1.4,60.00510121290471,
M,right,Target,0,14,14,14,1434.2981150026899,1436.2981323259883,right,1,3,0.49676231131888926,S13R12,2021_Sep_15_1015,t1_Paradigm,2021.1.4,60.00510121290471,
S,left,Pretarget,0,15,15,15,1437.7990316927899,1439.8003367132042,left,1,3,0.8503535073250532,S13R12,2021_Sep_15_1015,t1_Paradigm,2021.1.4,60.00510121290471,
Q,left,Distractor,0,16,16,16,1441.2981259098742,1443.3002063073218,left,1,3,0.8384341297205538,S13R12,2021_Sep_15_1015,t1_Paradigm,2021.1.4,60.00510121290471,
R,left,Pretarget,0,17,17,17,1444.7989983295556,1446.8004031190649,left,1,3,0.9382601589895785,S13R12,2021_Sep_15_1015,t1_Paradigm,2021.1.4,60.00510121290471,
S,right,Target,0,18,18,18,1448.2981926365755,1450.2978984618094,right,1,3,1.1367342348676175,S13R12,2021_Sep_15_1015,t1_Paradigm,2021.1.4,60.00510121290471,
F,left,Distractor,0,19,19,19,1451.7988077735063,1453.8003800213337,left,1,3,1.0902077606879175,S13R12,2021_Sep_15_1015,t1_Paradigm,2021.1.4,60.00510121290471,
R,right,Target,0,20,20,20,1455.2981714638881,1457.2979228426702,right,1,3,0.9687459198758006,S13R12,2021_Sep_15_1015,t1_Paradigm,2021.1.4,60.00510121290471,
P,left,Distractor,0,21,21,21,1458.7991285747848,1460.8003925324883,left,1,3,1.0181881585158408,S13R12,2021_Sep_15_1015,t1_Paradigm,2021.1.4,60.00510121290471,
L,left,Distractor,0,22,22,22,1462.2981990526896,1464.2979979102965,left,1,3,0.6245981561951339,S13R12,2021_Sep_15_1015,t1_Paradigm,2021.1.4,60.00510121290471,
R,right,Target,0,23,23,23,1465.7991025899537,1467.7997608745936,right,1,3,0.7868575991597027,S13R12,2021_Sep_15_1015,t1_Paradigm,2021.1.4,60.00510121290471,
H,left,Pretarget,0,24,24,24,1469.2991146200802,1471.29979536077,left,1,3,0.8867423352785408,S13R12,2021_Sep_15_1015,t1_Paradigm,2021.1.4,60.00510121290471,
G,left,Pretarget,0,25,25,25,1472.7980994437821,1474.800102207344,left,1,3,1.0504344773944467,S13R12,2021_Sep_15_1015,t1_Paradigm,2021.1.4,60.00510121290471,
T,left,Distractor,0,26,26,26,1476.2982381905895,1478.3000792700332,left,1,3,0.6065912505146116,S13R12,2021_Sep_15_1015,t1_Paradigm,2021.1.4,60.00510121290471,
H,right,Target,0,27,27,27,1479.7989550211933,1481.7999908891506,right,1,3,0.6264841477386653,S13R12,2021_Sep_15_1015,t1_Paradigm,2021.1.4,60.00510121290471,
G,right,Target,0,28,28,28,1483.2980492385104,1485.2978487375658,left,0,3,0.6808676908258349,S13R12,2021_Sep_15_1015,t1_Paradigm,2021.1.4,60.00510121290471,
D,left,Distractor,0,29,29,29,1486.7991067604162,1488.800160913961,left,1,3,0.9543319903314114,S13R12,2021_Sep_15_1015,t1_Paradigm,2021.1.4,60.00510121290471,
N,left,Pretarget,0,30,30,30,1490.2980893386994,1492.2999952200335,left,1,3,0.5905030583962798,S13R12,2021_Sep_15_1015,t1_Paradigm,2021.1.4,60.00510121290471,
V,left,Distractor,0,31,31,31,1493.7979573288467,1495.7978181010112,left,1,3,0.8527097937185317,S13R12,2021_Sep_15_1015,t1_Paradigm,2021.1.4,60.00510121290471,
R,left,Distractor,0,32,32,32,1497.2979404868092,1499.2976684470195,left,1,3,1.144845699192956,S13R12,2021_Sep_15_1015,t1_Paradigm,2021.1.4,60.00510121290471,
N,right,Target,0,33,33,33,1500.7980853286572,1502.797606051201,left,0,3,1.1810920916032046,S13R12,2021_Sep_15_1015,t1_Paradigm,2021.1.4,60.00510121290471,
Z,left,Distractor,0,34,34,34,1504.2985185708385,1506.297962301178,left,1,3,0.8328476934693754,S13R12,2021_Sep_15_1015,t1_Paradigm,2021.1.4,60.00510121290471,
N,left,Lure,0,35,35,35,1507.798539904179,1509.8006732338108,right,0,3,0.8660403767134994,S13R12,2021_Sep_15_1015,t1_Paradigm,2021.1.4,60.00510121290471,
Y,left,Pretarget,0,36,36,36,1511.2991944996174,1513.299849576084,left,1,3,0.8385948510840535,S13R12,2021_Sep_15_1015,t1_Paradigm,2021.1.4,60.00510121290471,
Y,left,Lure,0,37,37,37,1514.7980060905684,1516.7979489879217,left,1,3,0.9884854739066213,S13R12,2021_Sep_15_1015,t1_Paradigm,2021.1.4,60.00510121290471,
B,left,Distractor,0,38,38,38,1518.2978413591627,1520.2971500318963,left,1,3,0.9933549189008772,S13R12,2021_Sep_15_1015,t1_Paradigm,2021.1.4,60.00510121290471,
Y,right,Target,0,39,39,39,1521.7978829029016,1523.7975758959074,right,1,3,0.6610572396311909,S13R12,2021_Sep_15_1015,t1_Paradigm,2021.1.4,60.00510121290471,
J,left,Distractor,0,40,40,40,1525.2980511633214,1527.297950110864,left,1,3,0.6646976943593472,S13R12,2021_Sep_15_1015,t1_Paradigm,2021.1.4,60.00510121290471,
X,left,Distractor,0,41,41,41,1528.798178681871,1530.7976435848977,left,1,3,0.733049894683063,S13R12,2021_Sep_15_1015,t1_Paradigm,2021.1.4,60.00510121290471,
W,left,Pretarget,0,42,42,42,1532.298913798295,1534.300222988939,left,1,3,0.7022013075184077,S13R12,2021_Sep_15_1015,t1_Paradigm,2021.1.4,60.00510121290471,
S,left,Pretarget,0,43,43,43,1535.7985431123525,1537.7984369269107,left,1,3,0.5961478804238141,S13R12,2021_Sep_15_1015,t1_Paradigm,2021.1.4,60.00510121290471,
R,left,Distractor,0,44,44,44,1539.297949148342,1541.3002608434763,right,0,3,0.6783843671437353,S13R12,2021_Sep_15_1015,t1_Paradigm,2021.1.4,60.00510121290471,
W,right,Target,0,45,45,45,1542.7991555221379,1544.8002212245483,left,0,3,1.2105230570305139,S13R12,2021_Sep_15_1015,t1_Paradigm,2021.1.4,60.00510121290471,
S,right,Target,0,46,46,46,1546.2986520242412,1548.2998733154964,left,0,3,0.8947440853808075,S13R12,2021_Sep_15_1015,t1_Paradigm,2021.1.4,60.00510121290471,
D,left,Distractor,0,47,47,47,1549.7978501811158,1551.7998154107481,left,1,3,0.6267667738720775,S13R12,2021_Sep_15_1015,t1_Paradigm,2021.1.4,60.00510121290471,
T,left,Distractor,0,48,48,48,1553.2990055475384,1555.3003968633711,left,1,3,0.5500281825661659,S13R12,2021_Sep_15_1015,t1_Paradigm,2021.1.4,60.00510121290471,
S,right,Target,0,49,49,49,1556.797828687355,1558.7996928645298,right,1,3,0.6826635373290628,S13R12,2021_Sep_15_1015,t1_Paradigm,2021.1.4,60.00510121290471,
K,left,Distractor,0,50,50,50,1560.2979084067047,1562.2998168542981,left,1,3,0.9745761649683118,S13R12,2021_Sep_15_1015,t1_Paradigm,2021.1.4,60.00510121290471,
S,left,Lure,0,51,51,51,1563.7978598051704,1565.797711274121,left,1,3,0.9648587687406689,S13R12,2021_Sep_15_1015,t1_Paradigm,2021.1.4,60.00510121290471,
T,left,Pretarget,0,52,52,52,1567.297920276178,1569.2980797146447,right,0,3,0.8883575703948736,S13R12,2021_Sep_15_1015,t1_Paradigm,2021.1.4,60.00510121290471,
V,left,Distractor,0,53,53,53,1570.7985617187805,1572.7995321431663,left,1,3,0.6669089787174016,S13R12,2021_Sep_15_1015,t1_Paradigm,2021.1.4,60.00510121290471,
B,left,Distractor,0,54,54,54,1574.297944336431,1576.2994524238165,left,1,3,0.6708792173303664,S13R12,2021_Sep_15_1015,t1_Paradigm,2021.1.4,60.00510121290471,
T,right,Target,0,55,55,55,1577.7979624615982,1579.7998500573449,right,1,3,0.8025018020998687,S13R12,2021_Sep_15_1015,t1_Paradigm,2021.1.4,60.00510121290471,
Y,left,Pretarget,0,56,56,56,1581.2978978201281,1583.2995845940895,left,1,3,1.334834256209433,S13R12,2021_Sep_15_1015,t1_Paradigm,2021.1.4,60.00510121290471,
T,left,Lure,0,57,57,57,1584.7978867525235,1586.7996996014845,right,0,3,0.8587174422573298,S13R12,2021_Sep_15_1015,t1_Paradigm,2021.1.4,60.00510121290471,
P,left,Pretarget,0,58,58,58,1588.29783558473,1590.297248838935,left,1,3,0.6093042681459337,S13R12,2021_Sep_15_1015,t1_Paradigm,2021.1.4,60.00510121290471,
Y,right,Target,0,59,59,59,1591.798365709139,1593.8006466072984,right,1,3,0.8657494098879397,S13R12,2021_Sep_15_1015,t1_Paradigm,2021.1.4,60.00510121290471,
R,left,Distractor,0,60,60,60,1595.2985965257976,1597.2997388995718,left,1,3,0.9826808928046376,S13R12,2021_Sep_15_1015,t1_Paradigm,2021.1.4,60.00510121290471,
P,right,Target,0,61,61,61,1598.7980263011996,1600.797522322042,left,0,3,1.3248666347935796,S13R12,2021_Sep_15_1015,t1_Paradigm,2021.1.4,60.00510121290471,
L,left,Distractor,0,62,62,62,1602.2985987712163,1604.299944533268,left,1,3,0.7983531979843974,S13R12,2021_Sep_15_1015,t1_Paradigm,2021.1.4,60.00510121290471,
V,left,Distractor,0,63,63,63,1605.7978177801706,1607.7976188831963,left,1,3,0.5648787224199623,S13R12,2021_Sep_15_1015,t1_Paradigm,2021.1.4,60.00510121290471,
H,left,Lure,0,0,0,0,1612.7346291998401,1614.7170685292222,None,0,3,,S13R12,2021_Sep_15_1015,t1_Paradigm,2021.1.4,60.00510121290471,
B,left,Distractor,0,1,1,1,1616.2144637817983,1618.216434144415,left,1,3,1.0578703340142965,S13R12,2021_Sep_15_1015,t1_Paradigm,2021.1.4,60.00510121290471,
T,left,Distractor,0,2,2,2,1619.7150256657042,1621.7142891054973,left,1,3,1.4001638651825488,S13R12,2021_Sep_15_1015,t1_Paradigm,2021.1.4,60.00510121290471,
R,left,Distractor,0,3,3,3,1623.2145603431854,1625.2162320395,left,1,3,1.0500918615143746,S13R12,2021_Sep_15_1015,t1_Paradigm,2021.1.4,60.00510121290471,
H,left,Pretarget,0,4,4,4,1626.7145123833325,1628.7166187656112,left,1,3,1.0057016040664166,S13R12,2021_Sep_15_1015,t1_Paradigm,2021.1.4,60.00510121290471,
K,left,Distractor,0,5,5,5,1630.2151490137912,1632.216632399708,left,1,3,0.7376184279564768,S13R12,2021_Sep_15_1015,t1_Paradigm,2021.1.4,60.00510121290471,
G,left,Distractor,0,6,6,6,1633.71440010285,1635.7141386496369,left,1,3,0.7122324476949871,S13R12,2021_Sep_15_1015,t1_Paradigm,2021.1.4,60.00510121290471,
H,right,Target,0,7,7,7,1637.2153957101982,1639.2166019235738,right,1,3,1.065769107080996,S13R12,2021_Sep_15_1015,t1_Paradigm,2021.1.4,60.00510121290471,
Y,left,Pretarget,0,8,8,8,1640.7147597211879,1642.7159935235977,left,1,3,0.9424100464675575,S13R12,2021_Sep_15_1015,t1_Paradigm,2021.1.4,60.00510121290471,
S,left,Distractor,0,9,9,9,1644.21433546138,1646.21650857036,left,1,3,0.6419605715200305,S13R12,2021_Sep_15_1015,t1_Paradigm,2021.1.4,60.00510121290471,
P,left,Distractor,0,10,10,10,1647.714694277849,1649.7164503447711,left,1,3,0.837734782602638,S13R12,2021_Sep_15_1015,t1_Paradigm,2021.1.4,60.00510121290471,
Y,right,Target,0,11,11,11,1651.214374599047,1653.216749812942,right,1,3,0.9534898865967989,S13R12,2021_Sep_15_1015,t1_Paradigm,2021.1.4,60.00510121290471,
H,left,Lure,0,12,12,12,1654.7148585279938,1656.7163483300246,left,1,3,1.0859048508573323,S13R12,2021_Sep_15_1015,t1_Paradigm,2021.1.4,60.00510121290471,
Q,left,Distractor,0,13,13,13,1658.2144105287734,1660.2150110690854,left,1,3,0.931370948208496,S13R12,2021_Sep_15_1015,t1_Paradigm,2021.1.4,60.00510121290471,
V,left,Pretarget,0,14,14,14,1661.7150372145697,1663.7161712476518,left,1,3,0.6782791439909488,S13R12,2021_Sep_15_1015,t1_Paradigm,2021.1.4,60.00510121290471,
G,left,Distractor,0,15,15,15,1665.2150986478664,1667.216436069226,left,1,3,0.7779543967917562,S13R12,2021_Sep_15_1015,t1_Paradigm,2021.1.4,60.00510121290471,
Z,left,Pretarget,0,16,16,16,1668.7145823179744,1670.7168285697699,left,1,3,0.5574078985955566,S13R12,2021_Sep_15_1015,t1_Paradigm,2021.1.4,60.00510121290471,
V,right,Target,0,17,17,17,1672.215412712656,1674.2166702542454,right,1,3,1.0255248872563243,S13R12,2021_Sep_15_1015,t1_Paradigm,2021.1.4,60.00510121290471,
N,left,Distractor,0,18,18,18,1675.715299630072,1677.7160705158021,left,1,3,0.5820656595751643,S13R12,2021_Sep_15_1015,t1_Paradigm,2021.1.4,60.00510121290471,
Z,right,Target,0,19,19,19,1679.214349576505,1681.2161258540582,right,1,3,1.2740892204456031,S13R12,2021_Sep_15_1015,t1_Paradigm,2021.1.4,60.00510121290471,
R,left,Distractor,0,20,20,20,1682.71435647388,1684.7163733525667,left,1,3,0.8459906075149775,S13R12,2021_Sep_15_1015,t1_Paradigm,2021.1.4,60.00510121290471,
P,left,Distractor,0,21,21,21,1686.2142927946988,1688.2161531222519,right,0,3,0.8981901346705854,S13R12,2021_Sep_15_1015,t1_Paradigm,2021.1.4,60.00510121290471,
Z,right,Target,0,22,22,22,1689.7142788397614,1691.7142012058757,right,1,3,0.9360623485408723,S13R12,2021_Sep_15_1015,t1_Paradigm,2021.1.4,60.00510121290471,
D,left,Pretarget,0,23,23,23,1693.215505745029,1695.2165149862412,left,1,3,0.6176447849720716,S13R12,2021_Sep_15_1015,t1_Paradigm,2021.1.4,60.00510121290471,
K,left,Distractor,0,24,24,24,1696.714643270243,1698.7162966809701,left,1,3,0.6378681075293571,S13R12,2021_Sep_15_1015,t1_Paradigm,2021.1.4,60.00510121290471,
W,left,Distractor,0,25,25,25,1700.2144236816093,1702.2141336773057,left,1,3,0.5802820036187768,S13R12,2021_Sep_15_1015,t1_Paradigm,2021.1.4,60.00510121290471,
D,right,Target,0,26,26,26,1703.7150089838542,1705.7160320198163,right,1,3,0.7260878616943955,S13R12,2021_Sep_15_1015,t1_Paradigm,2021.1.4,60.00510121290471,
G,left,Pretarget,0,27,27,27,1707.2142834914848,1709.216578505002,left,1,3,0.8416373319923878,S13R12,2021_Sep_15_1015,t1_Paradigm,2021.1.4,60.00510121290471,
V,left,Distractor,0,28,28,28,1710.7146830495913,1712.7142166043632,left,1,3,0.9279425432905555,S13R12,2021_Sep_15_1015,t1_Paradigm,2021.1.4,60.00510121290471,
D,right,Target,0,29,29,29,1714.21521157003,1716.2164582044352,right,1,3,1.2336679187137634,S13R12,2021_Sep_15_1015,t1_Paradigm,2021.1.4,60.00510121290471,
G,right,Target,0,30,30,30,1717.7142432308756,1719.716197232483,right,1,3,1.109900156967342,S13R12,2021_Sep_15_1015,t1_Paradigm,2021.1.4,60.00510121290471,
B,left,Pretarget,0,31,31,31,1721.2142036119476,1723.2161239292473,left,1,3,0.6660822734702379,S13R12,2021_Sep_15_1015,t1_Paradigm,2021.1.4,60.00510121290471,
N,left,Distractor,0,32,32,32,1724.714789235033,1726.716635768069,left,1,3,0.7979611784685403,S13R12,2021_Sep_15_1015,t1_Paradigm,2021.1.4,60.00510121290471,
F,left,Distractor,0,33,33,33,1728.2145600223448,1730.2142443538178,left,1,3,0.7558842201251537,S13R12,2021_Sep_15_1015,t1_Paradigm,2021.1.4,60.00510121290471,
B,right,Target,0,34,34,34,1731.714879700914,1733.7162700544577,right,1,3,0.5979969799518585,S13R12,2021_Sep_15_1015,t1_Paradigm,2021.1.4,60.00510121290471,
Q,left,Pretarget,0,35,35,35,1735.2143707494251,1737.2162243402563,left,1,3,1.0019870440009981,S13R12,2021_Sep_15_1015,t1_Paradigm,2021.1.4,60.00510121290471,
S,left,Pretarget,0,36,36,36,1738.7141165144276,1740.714010008378,left,1,3,0.720161696895957,S13R12,2021_Sep_15_1015,t1_Paradigm,2021.1.4,60.00510121290471,
W,left,Distractor,0,37,37,37,1742.2143980176188,1744.2162371722516,left,1,3,0.849847923964262,S13R12,2021_Sep_15_1015,t1_Paradigm,2021.1.4,60.00510121290471,
Q,right,Target,0,38,38,38,1745.71429487993,1747.7160403605085,left,0,3,0.6301595696713775,S13R12,2021_Sep_15_1015,t1_Paradigm,2021.1.4,60.00510121290471,
S,right,Target,0,39,39,39,1749.214149396401,1751.2160344256554,left,0,3,0.6020907273050398,S13R12,2021_Sep_15_1015,t1_Paradigm,2021.1.4,60.00510121290471,
T,left,Distractor,0,40,40,40,1752.7150064175949,1754.71615071618,left,1,3,0.8141302126459777,S13R12,2021_Sep_15_1015,t1_Paradigm,2021.1.4,60.00510121290471,
G,left,Distractor,0,41,41,41,1756.214162228629,1758.2161524805706,left,1,3,0.5620479707140476,S13R12,2021_Sep_15_1015,t1_Paradigm,2021.1.4,60.00510121290471,
D,left,Distractor,0,42,42,42,1759.7140578075778,1761.7162585055921,left,1,3,0.6459795718546957,S13R12,2021_Sep_15_1015,t1_Paradigm,2021.1.4,60.00510121290471,
S,left,Lure,0,43,43,43,1763.214181797346,1765.2166696125641,right,0,3,0.8417156075593084,S13R12,2021_Sep_15_1015,t1_Paradigm,2021.1.4,60.00510121290471,
Z,left,Pretarget,0,44,44,44,1766.714222378796,1768.713904785458,left,1,3,0.7842305561061949,S13R12,2021_Sep_15_1015,t1_Paradigm,2021.1.4,60.00510121290471,
J,left,Distractor,0,45,45,45,1770.214471481042,1772.2269670180976,left,1,3,0.807105302810669,S13R12,2021_Sep_15_1015,t1_Paradigm,2021.1.4,60.00510121290471,
M,left,Pretarget,0,46,46,46,1773.714117155876,1775.7161545658018,None,0,3,,S13R12,2021_Sep_15_1015,t1_Paradigm,2021.1.4,60.00510121290471,
Z,right,Target,0,47,47,47,1777.214993745787,1779.2163584351074,None,0,3,,S13R12,2021_Sep_15_1015,t1_Paradigm,2021.1.4,60.00510121290471,
P,left,Distractor,0,48,48,48,1780.7140988702886,1782.713943923125,None,0,3,,S13R12,2021_Sep_15_1015,t1_Paradigm,2021.1.4,60.00510121290471,
M,right,Target,0,49,49,49,1784.2147797713988,1786.216002987232,right,1,3,0.5144092778209597,S13R12,2021_Sep_15_1015,t1_Paradigm,2021.1.4,60.00510121290471,
K,left,Distractor,0,50,50,50,1787.714601245243,1789.716328440234,None,0,3,,S13R12,2021_Sep_15_1015,t1_Paradigm,2021.1.4,60.00510121290471,
Y,left,Distractor,0,51,51,51,1791.2141420179978,1793.2141987998039,None,0,3,,S13R12,2021_Sep_15_1015,t1_Paradigm,2021.1.4,60.00510121290471,
X,left,Distractor,0,52,52,52,1794.7142964839004,1796.716174776433,None,0,3,,S13R12,2021_Sep_15_1015,t1_Paradigm,2021.1.4,60.00510121290471,
F,left,Pretarget,0,53,53,53,1798.2145600223448,1800.2137878532521,None,0,3,,S13R12,2021_Sep_15_1015,t1_Paradigm,2021.1.4,60.00510121290471,
M,left,Lure,0,54,54,54,1801.7139760032296,1803.7145107793622,right,0,3,0.9195959311909974,S13R12,2021_Sep_15_1015,t1_Paradigm,2021.1.4,60.00510121290471,
V,left,Distractor,0,55,55,55,1805.2142741882708,1807.2160806211177,None,0,3,,S13R12,2021_Sep_15_1015,t1_Paradigm,2021.1.4,60.00510121290471,
F,right,Target,0,56,56,56,1808.7143000126816,1810.713879762916,right,1,3,0.9281039063353091,S13R12,2021_Sep_15_1015,t1_Paradigm,2021.1.4,60.00510121290471,
S,left,Distractor,0,57,57,57,1812.215154788224,1814.2159308069386,None,0,3,,S13R12,2021_Sep_15_1015,t1_Paradigm,2021.1.4,60.00510121290471,
D,left,Distractor,0,58,58,58,1815.714754909277,1817.716206535697,None,0,3,,S13R12,2021_Sep_15_1015,t1_Paradigm,2021.1.4,60.00510121290471,
F,right,Target,0,59,59,59,1819.214684493374,1821.216253533028,None,0,3,,S13R12,2021_Sep_15_1015,t1_Paradigm,2021.1.4,60.00510121290471,
V,left,Pretarget,0,60,60,60,1822.71433979203,1824.7160948968958,None,0,3,,S13R12,2021_Sep_15_1015,t1_Paradigm,2021.1.4,60.00510121290471,
J,left,Distractor,0,61,61,61,1826.214815059444,1828.216382816201,left,1,3,1.1375304639805108,S13R12,2021_Sep_15_1015,t1_Paradigm,2021.1.4,60.00510121290471,
V,left,Lure,0,62,62,62,1829.7140552413184,1831.7137552918866,left,1,3,1.1762755785603076,S13R12,2021_Sep_15_1015,t1_Paradigm,2021.1.4,60.00510121290471,
V,right,Target,0,63,63,63,1833.215088703204,1835.214287982788,left,0,3,0.9076582682318985,S13R12,2021_Sep_15_1015,t1_Paradigm,2021.1.4,60.00510121290471,
R,left,Distractor,0,0,0,0,1889.9495424248744,1891.9304239421617,None,0,4,,S13R12,2021_Sep_15_1015,t1_Paradigm,2021.1.4,60.00510121290471,
F,left,Distractor,0,1,1,1,1893.4314535544254,1895.432418525219,None,0,4,,S13R12,2021_Sep_15_1015,t1_Paradigm,2021.1.4,60.00510121290471,
P,left,Pretarget,0,2,2,2,1896.930694698589,1898.930659089703,None,0,4,,S13R12,2021_Sep_15_1015,t1_Paradigm,2021.1.4,60.00510121290471,
H,left,Distractor,0,3,3,3,1900.4308183675166,1902.4328490407206,left,1,4,1.272976681124419,S13R12,2021_Sep_15_1015,t1_Paradigm,2021.1.4,60.00510121290471,
Z,left,Distractor,0,4,4,4,1903.9316898246761,1905.9323452219833,left,1,4,0.6694154003635049,S13R12,2021_Sep_15_1015,t1_Paradigm,2021.1.4,60.00510121290471,
T,left,Distractor,0,5,5,5,1907.431024642894,1909.4324903846718,left,1,4,0.8814699633512646,S13R12,2021_Sep_15_1015,t1_Paradigm,2021.1.4,60.00510121290471,
P,right,Target,0,6,6,6,1910.9306664681062,1912.93075693422,right,1,4,0.5669722727034241,S13R12,2021_Sep_15_1015,t1_Paradigm,2021.1.4,60.00510121290471,
G,left,Distractor,0,7,7,7,1914.4306499469094,1916.4307214855216,left,1,4,0.6191987472120672,S13R12,2021_Sep_15_1015,t1_Paradigm,2021.1.4,60.00510121290471,
L,left,Distractor,0,8,8,8,1917.93122722907,1919.9327965895645,left,1,4,0.6689614662900567,S13R12,2021_Sep_15_1015,t1_Paradigm,2021.1.4,60.00510121290471,
P,left,Lure,0,9,9,9,1921.4305716713425,1923.4301860679407,right,0,4,0.8036236446350813,S13R12,2021_Sep_15_1015,t1_Paradigm,2021.1.4,60.00510121290471,
Q,left,Pretarget,0,10,10,10,1924.9312705371995,1926.9327138229273,left,1,4,0.7090350196231157,S13R12,2021_Sep_15_1015,t1_Paradigm,2021.1.4,60.00510121290471,
D,left,Distractor,0,11,11,11,1928.430576804094,1930.4303432607558,left,1,4,0.6035381832625717,S13R12,2021_Sep_15_1015,t1_Paradigm,2021.1.4,60.00510121290471,
M,left,Pretarget,0,12,12,12,1931.9313805720303,1933.9326175823808,left,1,4,0.8613553924951702,S13R12,2021_Sep_15_1015,t1_Paradigm,2021.1.4,60.00510121290471,
C,left,Distractor,0,13,13,13,1935.4311667578295,1937.4325763594825,left,1,4,0.5134330790024251,S13R12,2021_Sep_15_1015,t1_Paradigm,2021.1.4,60.00510121290471,
Q,right,Target,0,14,14,14,1938.9304659671616,1940.943422816461,right,1,4,0.9223086282145232,S13R12,2021_Sep_15_1015,t1_Paradigm,2021.1.4,60.00510121290471,
R,left,Distractor,0,15,15,15,1942.430554348044,1944.4322821844835,left,1,4,1.0494595617055893,S13R12,2021_Sep_15_1015,t1_Paradigm,2021.1.4,60.00510121290471,
M,right,Target,0,16,16,16,1945.9311133446172,1947.932599617634,left,0,4,0.909072681562975,S13R12,2021_Sep_15_1015,t1_Paradigm,2021.1.4,60.00510121290471,
S,left,Distractor,0,17,17,17,1949.4304478419945,1951.4324724196922,left,1,4,0.9932930043432862,S13R12,2021_Sep_15_1015,t1_Paradigm,2021.1.4,60.00510121290471,
Z,left,Distractor,0,18,18,18,1952.9315355191939,1954.932098846417,left,1,4,0.6297983473632485,S13R12,2021_Sep_15_1015,t1_Paradigm,2021.1.4,60.00510121290471,
L,left,Pretarget,0,19,19,19,1956.4304757516365,1958.4304042130243,left,1,4,0.8273382494226098,S13R12,2021_Sep_15_1015,t1_Paradigm,2021.1.4,60.00510121290471,
M,right,Target,0,20,20,20,1959.9309545478318,1961.93250466045,right,1,4,1.005553393624723,S13R12,2021_Sep_15_1015,t1_Paradigm,2021.1.4,60.00510121290471,
P,left,Distractor,0,21,21,21,1963.4305007741787,1965.4319969920907,right,0,4,0.8177180560305715,S13R12,2021_Sep_15_1015,t1_Paradigm,2021.1.4,60.00510121290471,
F,left,Distractor,0,22,22,22,1966.930942357285,1968.932564329356,left,1,4,0.9651632092427462,S13R12,2021_Sep_15_1015,t1_Paradigm,2021.1.4,60.00510121290471,
L,right,Target,0,23,23,23,1970.4313063065056,1972.4322754477616,left,0,4,0.6653521293774247,S13R12,2021_Sep_15_1015,t1_Paradigm,2021.1.4,60.00510121290471,
L,left,Lure,0,24,24,24,1973.9304560222663,1975.9305776061956,left,1,4,0.9750528761651367,S13R12,2021_Sep_15_1015,t1_Paradigm,2021.1.4,60.00510121290471,
V,left,Pretarget,0,25,25,25,1977.430498528527,1979.432214495493,left,1,4,0.7214003109838814,S13R12,2021_Sep_15_1015,t1_Paradigm,2021.1.4,60.00510121290471,
Z,left,Distractor,0,26,26,26,1980.9304775160272,1982.9329467248172,left,1,4,1.220685405191034,S13R12,2021_Sep_15_1015,t1_Paradigm,2021.1.4,60.00510121290471,
H,left,Distractor,0,27,27,27,1984.430492112413,1986.432666183915,left,1,4,0.88900494761765,S13R12,2021_Sep_15_1015,t1_Paradigm,2021.1.4,60.00510121290471,
X,left,Distractor,0,28,28,28,1987.9314351084176,1989.932588389609,left,1,4,0.6210488087963313,S13R12,2021_Sep_15_1015,t1_Paradigm,2021.1.4,60.00510121290471,
V,right,Target,0,29,29,29,1991.4304327643476,1993.4324201291893,right,1,4,0.5453711077570915,S13R12,2021_Sep_15_1015,t1_Paradigm,2021.1.4,60.00510121290471,
C,left,Distractor,0,30,30,30,1994.9304698167834,1996.931639779592,left,1,4,0.9179556735325605,S13R12,2021_Sep_15_1015,t1_Paradigm,2021.1.4,60.00510121290471,
S,left,Pretarget,0,31,31,31,1998.4304115914274,2000.4316761905793,left,1,4,0.6339639541693032,S13R12,2021_Sep_15_1015,t1_Paradigm,2021.1.4,60.00510121290471,
D,left,Distractor,0,32,32,32,2001.930434849346,2003.9325784447137,left,1,4,0.8930662937927991,S13R12,2021_Sep_15_1015,t1_Paradigm,2021.1.4,60.00510121290471,
V,left,Distractor,0,33,33,33,2005.4310701966751,2007.432547166478,right,0,4,0.7370698575396091,S13R12,2021_Sep_15_1015,t1_Paradigm,2021.1.4,60.00510121290471,
R,left,Distractor,0,34,34,34,2008.930816603126,2010.9326432466041,left,1,4,1.300978797255084,S13R12,2021_Sep_15_1015,t1_Paradigm,2021.1.4,60.00510121290471,
S,right,Target,0,35,35,35,2012.4305152101442,2014.4322914876975,left,0,4,1.0976497125811875,S13R12,2021_Sep_15_1015,t1_Paradigm,2021.1.4,60.00510121290471,
Y,left,Distractor,0,36,36,36,2015.9302680327091,2017.9321312473621,left,1,4,0.5734344969969243,S13R12,2021_Sep_15_1015,t1_Paradigm,2021.1.4,60.00510121290471,
N,left,Pretarget,0,37,37,37,2019.4302242433187,2021.432432640344,left,1,4,0.7211131937801838,S13R12,2021_Sep_15_1015,t1_Paradigm,2021.1.4,60.00510121290471,
Z,left,Pretarget,0,38,38,38,2022.9302978671622,2024.9301920027938,left,1,4,0.6636387289036065,S13R12,2021_Sep_15_1015,t1_Paradigm,2021.1.4,60.00510121290471,
P,left,Pretarget,0,39,39,39,2026.4310685927048,2028.432570264209,left,1,4,0.7133196436334401,S13R12,2021_Sep_15_1015,t1_Paradigm,2021.1.4,60.00510121290471,
M,left,Distractor,0,40,40,40,2029.9303735764697,2031.9300229405053,left,1,4,0.719639111077413,S13R12,2021_Sep_15_1015,t1_Paradigm,2021.1.4,60.00510121290471,
N,right,Target,0,41,41,41,2033.4303634711541,2035.4301469302736,right,1,4,0.9476230698637664,S13R12,2021_Sep_15_1015,t1_Paradigm,2021.1.4,60.00510121290471,
Z,right,Target,0,42,42,42,2036.9308188487776,2038.9324709761422,left,0,4,0.7253612466156483,S13R12,2021_Sep_15_1015,t1_Paradigm,2021.1.4,60.00510121290471,
P,right,Target,0,43,43,43,2040.4302187897265,2042.4322757686023,left,0,4,0.9853278254158795,S13R12,2021_Sep_15_1015,t1_Paradigm,2021.1.4,60.00510121290471,
X,left,Pretarget,0,44,44,44,2043.9303106993902,2045.9302475014701,None,0,4,,S13R12,2021_Sep_15_1015,t1_Paradigm,2021.1.4,60.00510121290471,
Z,left,Lure,0,45,45,45,2047.4309303273913,2049.432583417045,right,0,4,0.800992110511288,S13R12,2021_Sep_15_1015,t1_Paradigm,2021.1.4,60.00510121290471,
R,left,Pretarget,0,46,46,46,2050.9308907082304,2052.932484128978,left,1,4,0.8530411815736443,S13R12,2021_Sep_15_1015,t1_Paradigm,2021.1.4,60.00510121290471,
K,left,Distractor,0,47,47,47,2054.4306659868453,2056.429962148657,left,1,4,0.8278531357645988,S13R12,2021_Sep_15_1015,t1_Paradigm,2021.1.4,60.00510121290471,
X,right,Target,0,48,48,48,2057.930201947689,2059.932349071605,right,1,4,0.7491483523044735,S13R12,2021_Sep_15_1015,t1_Paradigm,2021.1.4,60.00510121290471,
B,left,Distractor,0,49,49,49,2061.4302162232343,2063.4327271361835,left,1,4,0.6888007898814976,S13R12,2021_Sep_15_1015,t1_Paradigm,2021.1.4,60.00510121290471,
R,right,Target,0,50,50,50,2064.930912522832,2066.9326018632855,left,0,4,0.8209109927993268,S13R12,2021_Sep_15_1015,t1_Paradigm,2021.1.4,60.00510121290471,
Y,left,Pretarget,0,51,51,51,2068.4311985173263,2070.432442585239,left,1,4,0.5851386168505996,S13R12,2021_Sep_15_1015,t1_Paradigm,2021.1.4,60.00510121290471,
W,left,Pretarget,0,52,52,52,2071.930924392538,2073.932518775575,left,1,4,0.748996292706579,S13R12,2021_Sep_15_1015,t1_Paradigm,2021.1.4,60.00510121290471,
Z,left,Distractor,0,53,53,53,2075.4305771249346,2077.4301786895376,left,1,4,0.75536067225039,S13R12,2021_Sep_15_1015,t1_Paradigm,2021.1.4,60.00510121290471,
Q,left,Distractor,0,54,54,54,2078.9307675205637,2080.932401362341,left,1,4,0.6452831120695919,S13R12,2021_Sep_15_1015,t1_Paradigm,2021.1.4,60.00510121290471,
Y,right,Target,0,55,55,55,2082.4310047531035,2084.4325436376967,right,1,4,0.6971570255700499,S13R12,2021_Sep_15_1015,t1_Paradigm,2021.1.4,60.00510121290471,
W,right,Target,0,56,56,56,2085.930919259554,2087.932547326898,left,0,4,0.9089267170056701,S13R12,2021_Sep_15_1015,t1_Paradigm,2021.1.4,60.00510121290471,
H,left,Pretarget,0,57,57,57,2089.430209807353,2091.432170866523,left,1,4,0.6572749905753881,S13R12,2021_Sep_15_1015,t1_Paradigm,2021.1.4,60.00510121290471,
M,left,Distractor,0,58,58,58,2092.930174037814,2094.9321261146106,left,1,4,0.9174318048171699,S13R12,2021_Sep_15_1015,t1_Paradigm,2021.1.4,60.00510121290471,
R,left,Pretarget,0,59,59,59,2096.4302476618905,2098.443028391106,left,1,4,0.6383903722744435,S13R12,2021_Sep_15_1015,t1_Paradigm,2021.1.4,60.00510121290471,
J,left,Distractor,0,60,60,60,2099.930247822311,2101.930039942963,left,1,4,0.44763028784655035,S13R12,2021_Sep_15_1015,t1_Paradigm,2021.1.4,60.00510121290471,
H,right,Target,0,61,61,61,2103.4308193300385,2105.432351477677,left,0,4,0.6732621302362531,S13R12,2021_Sep_15_1015,t1_Paradigm,2021.1.4,60.00510121290471,
Z,left,Distractor,0,62,62,62,2106.930878197076,2108.9323692822363,left,1,4,0.6292353409808129,S13R12,2021_Sep_15_1015,t1_Paradigm,2021.1.4,60.00510121290471,
R,right,Target,0,63,63,63,2110.431314968271,2112.4323546856176,right,1,4,1.2410659205634147,S13R12,2021_Sep_15_1015,t1_Paradigm,2021.1.4,60.00510121290471,
J,left,Pretarget,0,0,0,0,2118.8286929938477,2120.815452235285,None,0,4,,S13R12,2021_Sep_15_1015,t1_Paradigm,2021.1.4,60.00510121290471,
G,left,Pretarget,0,1,1,1,2122.313988257898,2124.3133909257594,None,0,4,,S13R12,2021_Sep_15_1015,t1_Paradigm,2021.1.4,60.00510121290471,
Z,left,Distractor,0,2,2,2,2125.8139528094325,2127.8156007663347,None,0,4,,S13R12,2021_Sep_15_1015,t1_Paradigm,2021.1.4,60.00510121290471,
F,left,Distractor,0,3,3,3,2129.3133845096454,2131.3131788759492,None,0,4,,S13R12,2021_Sep_15_1015,t1_Paradigm,2021.1.4,60.00510121290471,
J,right,Target,0,4,4,4,2132.814183465671,2134.8156094281003,right,1,4,1.0657399140764028,S13R12,2021_Sep_15_1015,t1_Paradigm,2021.1.4,60.00510121290471,
G,right,Target,0,5,5,5,2136.3144915953744,2138.314493841026,left,0,4,1.0068497522734106,S13R12,2021_Sep_15_1015,t1_Paradigm,2021.1.4,60.00510121290471,
H,left,Distractor,0,6,6,6,2139.813341682544,2141.814681670163,left,1,4,0.7226482287514955,S13R12,2021_Sep_15_1015,t1_Paradigm,2021.1.4,60.00510121290471,
P,left,Distractor,0,7,7,7,2143.313517321367,2145.3156060595065,left,1,4,0.6944991855416447,S13R12,2021_Sep_15_1015,t1_Paradigm,2021.1.4,60.00510121290471,
G,left,Lure,0,8,8,8,2146.814150743885,2148.815526019549,right,0,4,0.6819051627535373,S13R12,2021_Sep_15_1015,t1_Paradigm,2021.1.4,60.00510121290471,
S,left,Distractor,0,9,9,9,2150.3143908637576,2152.315620495705,None,0,4,,S13R12,2021_Sep_15_1015,t1_Paradigm,2021.1.4,60.00510121290471,
R,left,Pretarget,0,10,10,10,2153.8142816307954,2155.81563316728,left,1,4,0.5940568966325372,S13R12,2021_Sep_15_1015,t1_Paradigm,2021.1.4,60.00510121290471,
T,left,Pretarget,0,11,11,11,2157.314082252793,2159.315522651188,left,1,4,0.5824304108973593,S13R12,2021_Sep_15_1015,t1_Paradigm,2021.1.4,60.00510121290471,
X,left,Distractor,0,12,12,12,2160.8142713652924,2162.8156039742753,left,1,4,0.6657653215806931,S13R12,2021_Sep_15_1015,t1_Paradigm,2021.1.4,60.00510121290471,
F,left,Pretarget,0,13,13,13,2164.3140594759025,2166.315076737199,left,1,4,0.5103187386412174,S13R12,2021_Sep_15_1015,t1_Paradigm,2021.1.4,60.00510121290471,
R,right,Target,0,14,14,14,2167.8141000571195,2169.816386409104,right,1,4,0.7369553311727941,S13R12,2021_Sep_15_1015,t1_Paradigm,2021.1.4,60.00510121290471,
T,right,Target,0,15,15,15,2171.3140726287384,2173.3155261799693,right,1,4,0.9018825590610504,S13R12,2021_Sep_15_1015,t1_Paradigm,2021.1.4,60.00510121290471,
C,left,Distractor,0,16,16,16,2174.81339557725,2176.813156580087,left,1,4,0.7162382949609309,S13R12,2021_Sep_15_1015,t1_Paradigm,2021.1.4,60.00510121290471,
F,right,Target,0,17,17,17,2178.313887526281,2180.326471283566,right,1,4,0.9792200867086649,S13R12,2021_Sep_15_1015,t1_Paradigm,2021.1.4,60.00510121290471,
M,left,Distractor,0,18,18,18,2181.8140246688854,2183.8154503104743,left,1,4,0.7858336009085178,S13R12,2021_Sep_15_1015,t1_Paradigm,2021.1.4,60.00510121290471,
N,left,Distractor,0,19,19,19,2185.313252018532,2187.3130848810542,left,1,4,0.7602012453135103,S13R12,2021_Sep_15_1015,t1_Paradigm,2021.1.4,60.00510121290471,
R,left,Lure,0,20,20,20,2188.8139993255027,2190.813196359668,left,1,4,0.9561313656158745,S13R12,2021_Sep_15_1015,t1_Paradigm,2021.1.4,60.00510121290471,
F,right,Target,0,21,21,21,2192.3143555754796,2194.315592265222,right,1,4,1.101799599826336,S13R12,2021_Sep_15_1015,t1_Paradigm,2021.1.4,60.00510121290471,
P,left,Distractor,0,22,22,22,2195.8141975807957,2197.816181416856,left,1,4,0.9937071588356048,S13R12,2021_Sep_15_1015,t1_Paradigm,2021.1.4,60.00510121290471,
L,left,Pretarget,0,23,23,23,2199.3142067238223,2201.3150334290694,left,1,4,0.6464248443953693,S13R12,2021_Sep_15_1015,t1_Paradigm,2021.1.4,60.00510121290471,
T,left,Distractor,0,24,24,24,2202.81320181326,2204.8150197949726,left,1,4,0.6662696213461459,S13R12,2021_Sep_15_1015,t1_Paradigm,2021.1.4,60.00510121290471,
F,left,Distractor,0,25,25,25,2206.313360770233,2208.315240666736,right,0,4,0.9104174813255668,S13R12,2021_Sep_15_1015,t1_Paradigm,2021.1.4,60.00510121290471,
V,left,Distractor,0,26,26,26,2209.8133131312206,2211.814039104851,left,1,4,0.787144074914977,S13R12,2021_Sep_15_1015,t1_Paradigm,2021.1.4,60.00510121290471,
L,right,Target,0,27,27,27,2213.3132186552975,2215.314422943862,right,1,4,0.7907912663649768,S13R12,2021_Sep_15_1015,t1_Paradigm,2021.1.4,60.00510121290471,
S,left,Pretarget,0,28,28,28,2216.813420599792,2218.8154339496978,left,1,4,0.9538106878753752,S13R12,2021_Sep_15_1015,t1_Paradigm,2021.1.4,60.00510121290471,
W,left,Distractor,0,29,29,29,2220.3143340819515,2222.31399371149,left,1,4,0.6392549322918057,S13R12,2021_Sep_15_1015,t1_Paradigm,2021.1.4,60.00510121290471,
Q,left,Distractor,0,30,30,30,2223.813379857922,2225.815389999887,left,1,4,0.5301644781138748,S13R12,2021_Sep_15_1015,t1_Paradigm,2021.1.4,60.00510121290471,
L,right,Target,0,31,31,31,2227.313265813049,2229.31491024117,right,1,4,0.9183608458843082,S13R12,2021_Sep_15_1015,t1_Paradigm,2021.1.4,60.00510121290471,
S,right,Target,0,32,32,32,2230.81328875036,2232.8154685960617,right,1,4,1.1459239127580076,S13R12,2021_Sep_15_1015,t1_Paradigm,2021.1.4,60.00510121290471,
Z,left,Pretarget,0,33,33,33,2234.3144652897026,2236.315318621462,left,1,4,0.7983580098953098,S13R12,2021_Sep_15_1015,t1_Paradigm,2021.1.4,60.00510121290471,
F,left,Distractor,0,34,34,34,2237.813931957353,2239.815435553668,left,1,4,0.9142061462625861,S13R12,2021_Sep_15_1015,t1_Paradigm,2021.1.4,60.00510121290471,
V,left,Distractor,0,35,35,35,2241.3140800071415,2243.314952907851,left,1,4,0.5983075157273561,S13R12,2021_Sep_15_1015,t1_Paradigm,2021.1.4,60.00510121290471,
M,left,Distractor,0,36,36,36,2244.813245763071,2246.81305584847,left,1,4,0.7804056406021118,S13R12,2021_Sep_15_1015,t1_Paradigm,2021.1.4,60.00510121290471,
Z,right,Target,0,37,37,37,2248.313918323256,2250.315834470326,right,1,4,1.13338891742751,S13R12,2021_Sep_15_1015,t1_Paradigm,2021.1.4,60.00510121290471,
H,left,Pretarget,0,38,38,38,2251.8138055615127,2253.8151660803705,left,1,4,0.7379520614631474,S13R12,2021_Sep_15_1015,t1_Paradigm,2021.1.4,60.00510121290471,
L,left,Distractor,0,39,39,39,2255.313289873302,2257.313045101706,left,1,4,0.7120739717502147,S13R12,2021_Sep_15_1015,t1_Paradigm,2021.1.4,60.00510121290471,
G,left,Distractor,0,40,40,40,2258.813203738071,2260.8130375628825,left,1,4,0.6842242362909019,S13R12,2021_Sep_15_1015,t1_Paradigm,2021.1.4,60.00510121290471,
K,left,Distractor,0,41,41,41,2262.314164377982,2264.3153250375763,left,1,4,0.7019562150817364,S13R12,2021_Sep_15_1015,t1_Paradigm,2021.1.4,60.00510121290471,
H,right,Target,0,42,42,42,2265.813936769264,2267.815457047429,right,1,4,0.6737144605722278,S13R12,2021_Sep_15_1015,t1_Paradigm,2021.1.4,60.00510121290471,
B,left,Distractor,0,43,43,43,2269.313933400903,2271.31535807997,left,1,4,0.9819112899713218,S13R12,2021_Sep_15_1015,t1_Paradigm,2021.1.4,60.00510121290471,
Z,left,Distractor,0,44,44,44,2272.8138799874578,2274.815395453479,left,1,4,0.921729902504012,S13R12,2021_Sep_15_1015,t1_Paradigm,2021.1.4,60.00510121290471,
T,left,Pretarget,0,45,45,45,2276.3142169893254,2278.315483513521,left,1,4,0.8618038727436215,S13R12,2021_Sep_15_1015,t1_Paradigm,2021.1.4,60.00510121290471,
H,right,Target,0,46,46,46,2279.813205662882,2281.8154377993196,right,1,4,1.0104975854046643,S13R12,2021_Sep_15_1015,t1_Paradigm,2021.1.4,60.00510121290471,
F,left,Distractor,0,47,47,47,2283.31343776267,2285.3129177435767,left,1,4,0.712235014187172,S13R12,2021_Sep_15_1015,t1_Paradigm,2021.1.4,60.00510121290471,
R,left,Distractor,0,48,48,48,2286.8138613810297,2288.815254942514,left,1,4,0.8258564677089453,S13R12,2021_Sep_15_1015,t1_Paradigm,2021.1.4,60.00510121290471,
T,right,Target,0,49,49,49,2290.313227637671,2292.313323557377,left,0,4,1.1838561166077852,S13R12,2021_Sep_15_1015,t1_Paradigm,2021.1.4,60.00510121290471,
H,right,Target,0,50,50,50,2293.8134815520607,2295.8130943446886,right,1,4,1.0760610587894917,S13R12,2021_Sep_15_1015,t1_Paradigm,2021.1.4,60.00510121290471,
Y,left,Pretarget,0,51,51,51,2297.3142259716988,2299.3152939197607,left,1,4,0.662016435759142,S13R12,2021_Sep_15_1015,t1_Paradigm,2021.1.4,60.00510121290471,
H,left,Distractor,0,52,52,52,2300.8136791656725,2302.8152639248874,left,1,4,1.08203309844248,S13R12,2021_Sep_15_1015,t1_Paradigm,2021.1.4,60.00510121290471,
S,left,Distractor,0,53,53,53,2304.314103746554,2306.3152775589842,left,1,4,0.8940665528643876,S13R12,2021_Sep_15_1015,t1_Paradigm,2021.1.4,60.00510121290471,
Q,left,Distractor,0,54,54,54,2307.814143365482,2309.815312686609,left,1,4,0.5779346995986998,S13R12,2021_Sep_15_1015,t1_Paradigm,2021.1.4,60.00510121290471,
Y,right,Target,0,55,55,55,2311.314283395186,2313.315369949676,left,0,4,0.5816701115109026,S13R12,2021_Sep_15_1015,t1_Paradigm,2021.1.4,60.00510121290471,
R,left,Distractor,0,56,56,56,2314.8130786253605,2316.8148738304153,left,1,4,0.6661708147730678,S13R12,2021_Sep_15_1015,t1_Paradigm,2021.1.4,60.00510121290471,
H,left,Pretarget,0,57,57,57,2318.31312048994,2320.329532050062,left,1,4,0.896106208441779,S13R12,2021_Sep_15_1015,t1_Paradigm,2021.1.4,60.00510121290471,
J,left,Distractor,0,58,58,58,2321.812953512883,2323.8152501303703,left,1,4,0.625745662720874,S13R12,2021_Sep_15_1015,t1_Paradigm,2021.1.4,60.00510121290471,
V,left,Distractor,0,59,59,59,2325.3131002795417,2327.315103684552,left,1,4,0.7739296220242977,S13R12,2021_Sep_15_1015,t1_Paradigm,2021.1.4,60.00510121290471,
Y,left,Lure,0,60,60,60,2328.813164600171,2330.8128569517285,right,0,4,0.8762014415115118,S13R12,2021_Sep_15_1015,t1_Paradigm,2021.1.4,60.00510121290471,
H,right,Target,0,61,61,61,2332.3134281386156,2334.3148499305826,right,1,4,1.2944796809460968,S13R12,2021_Sep_15_1015,t1_Paradigm,2021.1.4,60.00510121290471,
L,left,Distractor,0,62,62,62,2335.8130895327777,2337.815367543604,left,1,4,0.8980589266866446,S13R12,2021_Sep_15_1015,t1_Paradigm,2021.1.4,60.00510121290471,
P,left,Distractor,0,63,63,63,2339.3137168600224,2341.315186451189,left,1,4,0.694186724955216,S13R12,2021_Sep_15_1015,t1_Paradigm,2021.1.4,60.00510121290471,
