Letter,CorrAnswer,Stimulus,nback_run.thisRepN,nback_run.thisTrialN,nback_run.thisN,nback_run.thisIndex,fixcross.started,nback_trial.started,trial_resp.keys,trial_resp.corr,currentlevel,trial_resp.rt,Participant,date,expName,psychopyVersion,frameRate,
H,left,Distractor,0,0,0,0,249.6628382173949,251.64594094228232,None,0,1,,T07L11,2021_Oct_19_1142,t1_Paradigm,2021.1.4,60.00721889545811,
Q,left,Pretarget,0,1,1,1,253.14761087635998,255.14590068167308,left,1,1,0.8341499344678596,T07L11,2021_Oct_19_1142,t1_Paradigm,2021.1.4,60.00721889545811,
Q,right,Target,0,2,2,2,256.64550529338885,258.6454857244971,None,0,1,,T07L11,2021_Oct_19_1142,t1_Paradigm,2021.1.4,60.00721889545811,
T,left,Distractor,0,3,3,3,260.1455731429742,262.1454887720756,None,0,1,,T07L11,2021_Oct_19_1142,t1_Paradigm,2021.1.4,60.00721889545811,
Q,left,Lure,0,4,4,4,263.64549791492755,265.6454931029002,None,0,1,,T07L11,2021_Oct_19_1142,t1_Paradigm,2021.1.4,60.00721889545811,
L,left,Distractor,0,5,5,5,267.14549518813146,269.145538175595,left,1,1,1.3946356797823682,T07L11,2021_Oct_19_1142,t1_Paradigm,2021.1.4,60.00721889545811,
V,left,Pretarget,0,6,6,6,270.64551972947083,272.6459964410169,left,1,1,0.6779085259186104,T07L11,2021_Oct_19_1142,t1_Paradigm,2021.1.4,60.00721889545811,
V,right,Target,0,7,7,7,274.14559463667683,276.1456055439776,right,1,1,0.8264692965312861,T07L11,2021_Oct_19_1142,t1_Paradigm,2021.1.4,60.00721889545811,
K,left,Distractor,0,8,8,8,277.64569584967103,279.6459181653918,left,1,1,0.4463518253178336,T07L11,2021_Oct_19_1142,t1_Paradigm,2021.1.4,60.00721889545811,
G,left,Pretarget,0,9,9,9,281.14560393994907,283.14594848116394,left,1,1,0.5462601080653258,T07L11,2021_Oct_19_1142,t1_Paradigm,2021.1.4,60.00721889545811,
G,right,Target,0,10,10,10,284.6456249525072,286.64555469685,right,1,1,0.7265934147872031,T07L11,2021_Oct_19_1142,t1_Paradigm,2021.1.4,60.00721889545811,
G,right,Target,0,11,11,11,288.1455397795653,290.1459199297824,right,1,1,0.4740280425758101,T07L11,2021_Oct_19_1142,t1_Paradigm,2021.1.4,60.00721889545811,
P,left,Pretarget,0,12,12,12,291.645727929892,293.6474147060071,left,1,1,0.44483571575256065,T07L11,2021_Oct_19_1142,t1_Paradigm,2021.1.4,60.00721889545811,
P,right,Target,0,13,13,13,295.1456818947918,297.14562254643533,left,0,1,0.8668255277443677,T07L11,2021_Oct_19_1142,t1_Paradigm,2021.1.4,60.00721889545811,
G,left,Lure,0,14,14,14,298.6456746767508,300.6455457144184,left,1,1,1.1264940944965929,T07L11,2021_Oct_19_1142,t1_Paradigm,2021.1.4,60.00721889545811,
Y,left,Distractor,0,15,15,15,302.14554779964965,304.1475630768691,left,1,1,0.6005070593673736,T07L11,2021_Oct_19_1142,t1_Paradigm,2021.1.4,60.00721889545811,
B,left,Distractor,0,16,16,16,305.6625138866948,307.64751800417434,left,1,1,0.9404777830350213,T07L11,2021_Oct_19_1142,t1_Paradigm,2021.1.4,60.00721889545811,
T,left,Pretarget,0,17,17,17,309.1455192482681,311.1454887720756,left,1,1,0.4344750992022455,T07L11,2021_Oct_19_1142,t1_Paradigm,2021.1.4,60.00721889545811,
T,right,Target,0,18,18,18,312.64550978463376,314.6455149174435,right,1,1,0.6783566860831343,T07L11,2021_Oct_19_1142,t1_Paradigm,2021.1.4,60.00721889545811,
S,left,Distractor,0,19,19,19,316.14545380469644,318.1459212129703,left,1,1,0.5060261023463681,T07L11,2021_Oct_19_1142,t1_Paradigm,2021.1.4,60.00721889545811,
T,left,Lure,0,20,20,20,319.6454914989299,321.64533526840387,left,1,1,0.6225384473218583,T07L11,2021_Oct_19_1142,t1_Paradigm,2021.1.4,60.00721889545811,
J,left,Distractor,0,21,21,21,323.1455397795653,325.14736097172135,left,1,1,0.4326763632125221,T07L11,2021_Oct_19_1142,t1_Paradigm,2021.1.4,60.00721889545811,
P,left,Distractor,0,22,22,22,326.6455970426905,328.64556688733865,None,0,1,,T07L11,2021_Oct_19_1142,t1_Paradigm,2021.1.4,60.00721889545811,
F,left,Distractor,0,23,23,23,330.14570082211867,332.1470199593459,left,1,1,0.5528814582503401,T07L11,2021_Oct_19_1142,t1_Paradigm,2021.1.4,60.00721889545811,
L,left,Distractor,0,24,24,24,333.6456496542087,335.64564644620987,left,1,1,0.5743658790015616,T07L11,2021_Oct_19_1142,t1_Paradigm,2021.1.4,60.00721889545811,
W,left,Pretarget,0,25,25,25,337.14562992489664,339.1470254129381,left,1,1,0.5611000808421522,T07L11,2021_Oct_19_1142,t1_Paradigm,2021.1.4,60.00721889545811,
W,right,Target,0,26,26,26,340.64548764930805,342.64559511787957,right,1,1,0.4222974609583616,T07L11,2021_Oct_19_1142,t1_Paradigm,2021.1.4,60.00721889545811,
V,left,Distractor,0,27,27,27,344.14556127332617,346.14554523321567,left,1,1,0.4903860497288406,T07L11,2021_Oct_19_1142,t1_Paradigm,2021.1.4,60.00721889545811,
W,left,Lure,0,28,28,28,347.6454501154949,349.64552999514854,right,0,1,0.6063562395283952,T07L11,2021_Oct_19_1142,t1_Paradigm,2021.1.4,60.00721889545811,
R,left,Pretarget,0,29,29,29,351.1455320803216,353.14598505257163,left,1,1,0.4981812139158137,T07L11,2021_Oct_19_1142,t1_Paradigm,2021.1.4,60.00721889545811,
R,right,Target,0,30,30,30,354.6454837996862,356.6457215138362,right,1,1,0.8863395834923722,T07L11,2021_Oct_19_1142,t1_Paradigm,2021.1.4,60.00721889545811,
G,left,Distractor,0,31,31,31,358.1457072381745,360.1454852432944,left,1,1,0.506487094622571,T07L11,2021_Oct_19_1142,t1_Paradigm,2021.1.4,60.00721889545811,
R,left,Lure,0,32,32,32,361.64540680719074,363.645401674381,left,1,1,0.7025624689413235,T07L11,2021_Oct_19_1142,t1_Paradigm,2021.1.4,60.00721889545811,
S,left,Distractor,0,33,33,33,365.1454708072124,367.14550834102556,left,1,1,0.5306190930423327,T07L11,2021_Oct_19_1142,t1_Paradigm,2021.1.4,60.00721889545811,
R,left,Lure,0,34,34,34,368.645498877333,370.64546134351986,left,1,1,0.8544355186750181,T07L11,2021_Oct_19_1142,t1_Paradigm,2021.1.4,60.00721889545811,
P,left,Pretarget,0,35,35,35,372.1455943158944,374.14553336356767,left,1,1,0.554358750814572,T07L11,2021_Oct_19_1142,t1_Paradigm,2021.1.4,60.00721889545811,
P,right,Target,0,36,36,36,375.6456862256164,377.64567114796955,right,1,1,0.5104024811880663,T07L11,2021_Oct_19_1142,t1_Paradigm,2021.1.4,60.00721889545811,
Y,left,Pretarget,0,37,37,37,379.145661684277,381.14606781944167,left,1,1,0.4662101014982909,T07L11,2021_Oct_19_1142,t1_Paradigm,2021.1.4,60.00721889545811,
Y,right,Target,0,38,38,38,382.6457221554592,384.6456352181267,left,0,1,0.5666178727406077,T07L11,2021_Oct_19_1142,t1_Paradigm,2021.1.4,60.00721889545811,
J,left,Distractor,0,39,39,39,386.1456276793033,388.14578262658324,left,1,1,0.49029654602054507,T07L11,2021_Oct_19_1142,t1_Paradigm,2021.1.4,60.00721889545811,
Y,left,Lure,0,40,40,40,389.6454619851429,391.64553352392977,left,1,1,0.4146578856743872,T07L11,2021_Oct_19_1142,t1_Paradigm,2021.1.4,60.00721889545811,
T,left,Distractor,0,41,41,41,393.1455516492715,395.1455368923489,left,1,1,0.5146114015369676,T07L11,2021_Oct_19_1142,t1_Paradigm,2021.1.4,60.00721889545811,
V,left,Distractor,0,42,42,42,396.64550657657674,398.6459698144463,left,1,1,0.45390285924077034,T07L11,2021_Oct_19_1142,t1_Paradigm,2021.1.4,60.00721889545811,
N,left,Pretarget,0,43,43,43,400.1456292833318,402.1470459442935,left,1,1,0.4090351916383952,T07L11,2021_Oct_19_1142,t1_Paradigm,2021.1.4,60.00721889545811,
N,right,Target,0,44,44,44,403.64553641114617,405.64571670180885,right,1,1,0.49448268936248496,T07L11,2021_Oct_19_1142,t1_Paradigm,2021.1.4,60.00721889545811,
N,right,Target,0,45,45,45,407.14567676198203,409.14568125322694,right,1,1,0.466658903285861,T07L11,2021_Oct_19_1142,t1_Paradigm,2021.1.4,60.00721889545811,
X,left,Distractor,0,46,46,46,410.6457853533793,412.6473178238375,left,1,1,0.4205795670277439,T07L11,2021_Oct_19_1142,t1_Paradigm,2021.1.4,60.00721889545811,
Z,left,Distractor,0,47,47,47,414.1453947771224,416.1457803809899,left,1,1,0.41022568731568754,T07L11,2021_Oct_19_1142,t1_Paradigm,2021.1.4,60.00721889545811,
H,left,Pretarget,0,48,48,48,417.6455152382259,419.64580043108435,left,1,1,0.4463989831856452,T07L11,2021_Oct_19_1142,t1_Paradigm,2021.1.4,60.00721889545811,
H,right,Target,0,49,49,49,421.14539958914975,423.1456161304377,right,1,1,0.45027491118526086,T07L11,2021_Oct_19_1142,t1_Paradigm,2021.1.4,60.00721889545811,
K,left,Distractor,0,50,50,50,424.6456320101279,426.64606733823894,left,1,1,0.45377518015448004,T07L11,2021_Oct_19_1142,t1_Paradigm,2021.1.4,60.00721889545811,
V,left,Pretarget,0,51,51,51,428.1453854739084,430.1454425766133,left,1,1,0.5065178915974684,T07L11,2021_Oct_19_1142,t1_Paradigm,2021.1.4,60.00721889545811,
V,right,Target,0,52,52,52,431.6454411330051,433.64546006033197,right,1,1,1.05436276079854,T07L11,2021_Oct_19_1142,t1_Paradigm,2021.1.4,60.00721889545811,
R,left,Distractor,0,53,53,53,435.1454618247226,437.14545957912924,left,1,1,0.5945876236655749,T07L11,2021_Oct_19_1142,t1_Paradigm,2021.1.4,60.00721889545811,
V,left,Lure,0,54,54,54,438.6452736744541,440.6458482305752,left,1,1,0.4539554708171636,T07L11,2021_Oct_19_1142,t1_Paradigm,2021.1.4,60.00721889545811,
Y,left,Distractor,0,55,55,55,442.1454223660985,444.14544065180235,left,1,1,0.3946218852652237,T07L11,2021_Oct_19_1142,t1_Paradigm,2021.1.4,60.00721889545811,
Q,left,Distractor,0,56,56,56,445.6454103360302,447.64540520322043,left,1,1,0.43070471502142027,T07L11,2021_Oct_19_1142,t1_Paradigm,2021.1.4,60.00721889545811,
Z,left,Pretarget,0,57,57,57,449.14533799519995,451.14534954406554,left,1,1,0.43458064302103594,T07L11,2021_Oct_19_1142,t1_Paradigm,2021.1.4,60.00721889545811,
Z,right,Target,0,58,58,58,452.6454225265188,454.64534360927064,left,0,1,0.982658414344769,T07L11,2021_Oct_19_1142,t1_Paradigm,2021.1.4,60.00721889545811,
B,left,Distractor,0,59,59,59,456.1456129223807,458.1455163610517,left,1,1,0.8264670509379357,T07L11,2021_Oct_19_1142,t1_Paradigm,2021.1.4,60.00721889545811,
S,left,Pretarget,0,60,60,60,459.64552165428177,461.64537761424435,left,1,1,0.5904951544944197,T07L11,2021_Oct_19_1142,t1_Paradigm,2021.1.4,60.00721889545811,
S,right,Target,0,61,61,61,463.1454682407784,465.1455048121861,right,1,1,0.6425016256980598,T07L11,2021_Oct_19_1142,t1_Paradigm,2021.1.4,60.00721889545811,
T,left,Distractor,0,62,62,62,466.64545556908706,468.6454116192763,left,1,1,0.4865608084364794,T07L11,2021_Oct_19_1142,t1_Paradigm,2021.1.4,60.00721889545811,
D,left,Distractor,0,63,63,63,470.14537456660764,472.1461653431761,left,1,1,0.6497802988742478,T07L11,2021_Oct_19_1142,t1_Paradigm,2021.1.4,60.00721889545811,
R,left,Distractor,0,0,0,0,489.21775612578494,491.21203911601333,None,0,1,,T07L11,2021_Oct_19_1142,t1_Paradigm,2021.1.4,60.00721889545811,
V,left,Distractor,0,1,1,1,492.71213038411224,494.71204088040395,left,1,1,0.3877698785508983,T07L11,2021_Oct_19_1142,t1_Paradigm,2021.1.4,60.00721889545811,
N,left,Pretarget,0,2,2,2,496.2121825144277,498.2120651009609,left,1,1,0.4557506779092364,T07L11,2021_Oct_19_1142,t1_Paradigm,2021.1.4,60.00721889545811,
N,right,Target,0,3,3,3,499.7121637475211,501.71207873505773,left,0,1,0.9877010986674577,T07L11,2021_Oct_19_1142,t1_Paradigm,2021.1.4,60.00721889545811,
S,left,Distractor,0,4,4,4,503.2121764192125,505.2119037376251,left,1,1,0.736079525493551,T07L11,2021_Oct_19_1142,t1_Paradigm,2021.1.4,60.00721889545811,
N,left,Lure,0,5,5,5,506.7122734617442,508.71244637394557,left,1,1,0.6595743793295696,T07L11,2021_Oct_19_1142,t1_Paradigm,2021.1.4,60.00721889545811,
Z,left,Distractor,0,6,6,6,510.2120618929621,512.2120891610975,left,1,1,0.45575805637054145,T07L11,2021_Oct_19_1142,t1_Paradigm,2021.1.4,60.00721889545811,
L,left,Pretarget,0,7,7,7,513.7119590759394,515.7118814418791,left,1,1,0.4760317709296942,T07L11,2021_Oct_19_1142,t1_Paradigm,2021.1.4,60.00721889545811,
L,right,Target,0,8,8,8,517.2119938829564,519.2120134518482,right,1,1,0.496000402898062,T07L11,2021_Oct_19_1142,t1_Paradigm,2021.1.4,60.00721889545811,
H,left,Distractor,0,9,9,9,520.712082263839,522.7138392956113,left,1,1,0.38593970402143896,T07L11,2021_Oct_19_1142,t1_Paradigm,2021.1.4,60.00721889545811,
L,left,Lure,0,10,10,10,524.2119271561387,526.2119839380612,left,1,1,0.4399053120869212,T07L11,2021_Oct_19_1142,t1_Paradigm,2021.1.4,60.00721889545811,
X,left,Pretarget,0,11,11,11,527.7120485796477,529.7119959681877,left,1,1,0.7320627655135468,T07L11,2021_Oct_19_1142,t1_Paradigm,2021.1.4,60.00721889545811,
X,right,Target,0,12,12,12,531.2119826548733,533.2120140934712,right,1,1,0.43206427327822894,T07L11,2021_Oct_19_1142,t1_Paradigm,2021.1.4,60.00721889545811,
X,right,Target,0,13,13,13,534.7120780934347,536.712056599732,right,1,1,0.43576247699093074,T07L11,2021_Oct_19_1142,t1_Paradigm,2021.1.4,60.00721889545811,
R,left,Distractor,0,14,14,14,538.2120147350943,540.2126342034317,left,1,1,0.5033336124615744,T07L11,2021_Oct_19_1142,t1_Paradigm,2021.1.4,60.00721889545811,
T,left,Distractor,0,15,15,15,541.7121608603047,543.7120517877047,left,1,1,0.47589831735240296,T07L11,2021_Oct_19_1142,t1_Paradigm,2021.1.4,60.00721889545811,
V,left,Pretarget,0,16,16,16,545.2122139530256,547.2120012614178,left,1,1,0.4800851023173891,T07L11,2021_Oct_19_1142,t1_Paradigm,2021.1.4,60.00721889545811,
V,right,Target,0,17,17,17,548.7121576523059,550.7121255720849,right,1,1,0.4518224592320621,T07L11,2021_Oct_19_1142,t1_Paradigm,2021.1.4,60.00721889545811,
N,left,Distractor,0,18,18,18,552.2120208303095,554.2120384743903,left,1,1,0.3918299468350597,T07L11,2021_Oct_19_1142,t1_Paradigm,2021.1.4,60.00721889545811,
B,left,Distractor,0,19,19,19,555.7120902839233,557.7121746547637,left,1,1,0.37996188236866146,T07L11,2021_Oct_19_1142,t1_Paradigm,2021.1.4,60.00721889545811,
V,left,Lure,0,20,20,20,559.2120827450417,561.2121568502625,left,1,1,0.39986378751927987,T07L11,2021_Oct_19_1142,t1_Paradigm,2021.1.4,60.00721889545811,
P,left,Distractor,0,21,21,21,562.712082905462,564.7119966097525,left,1,1,0.4519016973208636,T07L11,2021_Oct_19_1142,t1_Paradigm,2021.1.4,60.00721889545811,
K,left,Pretarget,0,22,22,22,566.2121809103992,568.212021792715,left,1,1,0.47171570284990594,T07L11,2021_Oct_19_1142,t1_Paradigm,2021.1.4,60.00721889545811,
K,right,Target,0,23,23,23,569.7120739230304,571.7120258027571,right,1,1,0.5078049486037344,T07L11,2021_Oct_19_1142,t1_Paradigm,2021.1.4,60.00721889545811,
J,left,Pretarget,0,24,24,24,573.2121372813708,575.2125674766721,left,1,1,0.5433738537831232,T07L11,2021_Oct_19_1142,t1_Paradigm,2021.1.4,60.00721889545811,
J,right,Target,0,25,25,25,576.7121127400314,578.7121493114391,right,1,1,0.7716089720488526,T07L11,2021_Oct_19_1142,t1_Paradigm,2021.1.4,60.00721889545811,
H,left,Distractor,0,26,26,26,580.2119800884393,582.2120384743903,left,1,1,0.5198144867317751,T07L11,2021_Oct_19_1142,t1_Paradigm,2021.1.4,60.00721889545811,
J,left,Lure,0,27,27,27,583.7120700734085,585.7121156272478,left,1,1,0.44380658346926793,T07L11,2021_Oct_19_1142,t1_Paradigm,2021.1.4,60.00721889545811,
V,left,Distractor,0,28,28,28,587.2120416824473,589.2312602797174,left,1,1,0.47650174563750625,T07L11,2021_Oct_19_1142,t1_Paradigm,2021.1.4,60.00721889545811,
Z,left,Pretarget,0,29,29,29,590.7120241987286,592.7121473866282,left,1,1,0.7077296243514866,T07L11,2021_Oct_19_1142,t1_Paradigm,2021.1.4,60.00721889545811,
Z,right,Target,0,30,30,30,594.2120779330144,596.2120747250156,right,1,1,0.5358420679694973,T07L11,2021_Oct_19_1142,t1_Paradigm,2021.1.4,60.00721889545811,
T,left,Distractor,0,31,31,31,597.7120681485976,599.7124335418921,left,1,1,0.4914402046124451,T07L11,2021_Oct_19_1142,t1_Paradigm,2021.1.4,60.00721889545811,
Z,left,Lure,0,32,32,32,601.2121125796111,603.2120490608504,left,1,1,0.415907408867497,T07L11,2021_Oct_19_1142,t1_Paradigm,2021.1.4,60.00721889545811,
F,left,Distractor,0,33,33,33,604.7121711259824,606.7124175017816,left,1,1,0.6595153518137522,T07L11,2021_Oct_19_1142,t1_Paradigm,2021.1.4,60.00721889545811,
Y,left,Pretarget,0,34,34,34,608.211919456895,610.2119662939804,left,1,1,0.6320646582753398,T07L11,2021_Oct_19_1142,t1_Paradigm,2021.1.4,60.00721889545811,
Y,right,Target,0,35,35,35,611.7118974819896,613.7119728703983,right,1,1,0.8279754612012766,T07L11,2021_Oct_19_1142,t1_Paradigm,2021.1.4,60.00721889545811,
Y,right,Target,0,36,36,36,615.2119839380612,617.2120019029826,right,1,1,0.6717362983035855,T07L11,2021_Oct_19_1142,t1_Paradigm,2021.1.4,60.00721889545811,
W,left,Distractor,0,37,37,37,618.7119773616432,620.7119484894793,left,1,1,0.5960562545224093,T07L11,2021_Oct_19_1142,t1_Paradigm,2021.1.4,60.00721889545811,
Q,left,Distractor,0,38,38,38,622.2118309155921,624.2125668350491,left,1,1,0.48718508891761303,T07L11,2021_Oct_19_1142,t1_Paradigm,2021.1.4,60.00721889545811,
P,left,Pretarget,0,39,39,39,625.7119715872104,627.7119969305932,left,1,1,0.44393169617978856,T07L11,2021_Oct_19_1142,t1_Paradigm,2021.1.4,60.00721889545811,
P,right,Target,0,40,40,40,629.2119739932241,631.2119553867378,right,1,1,0.5280571694602259,T07L11,2021_Oct_19_1142,t1_Paradigm,2021.1.4,60.00721889545811,
J,left,Distractor,0,41,41,41,632.7120370307821,634.7119683792116,left,1,1,0.4519337774836458,T07L11,2021_Oct_19_1142,t1_Paradigm,2021.1.4,60.00721889545811,
P,left,Lure,0,42,42,42,636.2119919581455,638.2120278879302,left,1,1,0.7117040384910069,T07L11,2021_Oct_19_1142,t1_Paradigm,2021.1.4,60.00721889545811,
L,left,Distractor,0,43,43,43,639.712085471896,641.7124944942188,left,1,1,0.41124936600681394,T07L11,2021_Oct_19_1142,t1_Paradigm,2021.1.4,60.00721889545811,
Z,left,Distractor,0,44,44,44,643.2120564393117,645.211992920551,left,1,1,0.4320318723330274,T07L11,2021_Oct_19_1142,t1_Paradigm,2021.1.4,60.00721889545811,
F,left,Pretarget,0,45,45,45,646.7119844192639,648.7119500935078,left,1,1,0.5320854783058167,T07L11,2021_Oct_19_1142,t1_Paradigm,2021.1.4,60.00721889545811,
F,right,Target,0,46,46,46,650.2119528203038,652.2120185847161,right,1,1,0.5677458120044321,T07L11,2021_Oct_19_1142,t1_Paradigm,2021.1.4,60.00721889545811,
G,left,Pretarget,0,47,47,47,653.712026444322,655.7120171411079,left,1,1,0.4281886661774479,T07L11,2021_Oct_19_1142,t1_Paradigm,2021.1.4,60.00721889545811,
G,right,Target,0,48,48,48,657.2123008903,659.2120233967435,right,1,1,0.43207935098325834,T07L11,2021_Oct_19_1142,t1_Paradigm,2021.1.4,60.00721889545811,
V,left,Distractor,0,49,49,49,660.7120614117594,662.7120646197582,left,1,1,0.45184844423783943,T07L11,2021_Oct_19_1142,t1_Paradigm,2021.1.4,60.00721889545811,
G,left,Lure,0,50,50,50,664.2120538728777,666.2120490608504,left,1,1,0.4717028707382269,T07L11,2021_Oct_19_1142,t1_Paradigm,2021.1.4,60.00721889545811,
Q,left,Pretarget,0,51,51,51,667.7121724091703,669.7121011911659,left,1,1,0.45980689651332796,T07L11,2021_Oct_19_1142,t1_Paradigm,2021.1.4,60.00721889545811,
Q,right,Target,0,52,52,52,671.212034303986,673.2119380634394,right,1,1,0.4160039702546783,T07L11,2021_Oct_19_1142,t1_Paradigm,2021.1.4,60.00721889545811,
Y,left,Distractor,0,53,53,53,674.7119844192639,676.7119600383448,left,1,1,0.41984653478721157,T07L11,2021_Oct_19_1142,t1_Paradigm,2021.1.4,60.00721889545811,
V,left,Distractor,0,54,54,54,678.212031737552,680.2119457626832,None,0,1,,T07L11,2021_Oct_19_1142,t1_Paradigm,2021.1.4,60.00721889545811,
B,left,Distractor,0,55,55,55,681.7119398278301,683.7121191560873,left,1,1,0.4279580096481368,T07L11,2021_Oct_19_1142,t1_Paradigm,2021.1.4,60.00721889545811,
J,left,Pretarget,0,56,56,56,685.2119983742014,687.2120285295532,left,1,1,0.5916971989790909,T07L11,2021_Oct_19_1142,t1_Paradigm,2021.1.4,60.00721889545811,
J,right,Target,0,57,57,57,688.7118249807972,690.7122744241497,right,1,1,0.4355148180038668,T07L11,2021_Oct_19_1142,t1_Paradigm,2021.1.4,60.00721889545811,
H,left,Distractor,0,58,58,58,692.2120853114757,694.212442043121,left,1,1,0.6315603577531874,T07L11,2021_Oct_19_1142,t1_Paradigm,2021.1.4,60.00721889545811,
J,left,Lure,0,59,59,59,695.7119581135339,697.7120662237867,left,1,1,0.45981587894493714,T07L11,2021_Oct_19_1142,t1_Paradigm,2021.1.4,60.00721889545811,
D,left,Pretarget,0,60,60,60,699.2119255521684,701.2119383842219,left,1,1,0.4480613783816807,T07L11,2021_Oct_19_1142,t1_Paradigm,2021.1.4,60.00721889545811,
D,right,Target,0,61,61,61,702.7119436774519,704.7119369406137,right,1,1,0.40392610139679164,T07L11,2021_Oct_19_1142,t1_Paradigm,2021.1.4,60.00721889545811,
R,left,Distractor,0,62,62,62,706.212034303986,708.2119088704349,left,1,1,0.3918514405377209,T07L11,2021_Oct_19_1142,t1_Paradigm,2021.1.4,60.00721889545811,
F,left,Distractor,0,63,63,63,709.7121316673583,711.7119940433768,left,1,1,0.5397526425076649,T07L11,2021_Oct_19_1142,t1_Paradigm,2021.1.4,60.00721889545811,
F,left,Distractor,0,0,0,0,889.1864416947355,891.1785788413836,None,0,2,,T07L11,2021_Oct_19_1142,t1_Paradigm,2021.1.4,60.00721889545811,
N,left,Pretarget,0,1,1,1,892.6786171771819,894.6785517336102,None,0,2,,T07L11,2021_Oct_19_1142,t1_Paradigm,2021.1.4,60.00721889545811,
V,left,Distractor,0,2,2,2,896.1786234328174,898.1784842048655,left,1,2,1.0654515975620598,T07L11,2021_Oct_19_1142,t1_Paradigm,2021.1.4,60.00721889545811,
N,right,Target,0,3,3,3,899.678560074477,901.6785722649656,right,1,2,0.845015813887585,T07L11,2021_Oct_19_1142,t1_Paradigm,2021.1.4,60.00721889545811,
N,left,Lure,0,4,4,4,903.1785708213574,905.1785063401912,left,1,2,0.9451156153809279,T07L11,2021_Oct_19_1142,t1_Paradigm,2021.1.4,60.00721889545811,
X,left,Distractor,0,5,5,5,906.6787692373036,908.6788263400085,left,1,2,0.7089634282747284,T07L11,2021_Oct_19_1142,t1_Paradigm,2021.1.4,60.00721889545811,
G,left,Pretarget,0,6,6,6,910.1783186710672,912.1784020795603,left,1,2,0.9211873261374421,T07L11,2021_Oct_19_1142,t1_Paradigm,2021.1.4,60.00721889545811,
H,left,Pretarget,0,7,7,7,913.6785369767458,915.678457738657,left,1,2,0.8451316233840771,T07L11,2021_Oct_19_1142,t1_Paradigm,2021.1.4,60.00721889545811,
G,right,Target,0,8,8,8,917.1784729767824,919.1784187612357,right,1,2,0.6092617419199087,T07L11,2021_Oct_19_1142,t1_Paradigm,2021.1.4,60.00721889545811,
H,right,Target,0,9,9,9,920.6784657587414,922.6784657587414,right,1,2,0.7252274404745549,T07L11,2021_Oct_19_1142,t1_Paradigm,2021.1.4,60.00721889545811,
T,left,Pretarget,0,10,10,10,924.1784120243974,926.1784941497026,left,1,2,0.857205001055263,T07L11,2021_Oct_19_1142,t1_Paradigm,2021.1.4,60.00721889545811,
K,left,Distractor,0,11,11,11,927.6786685055122,929.6784320745501,left,1,2,0.5731542104040273,T07L11,2021_Oct_19_1142,t1_Paradigm,2021.1.4,60.00721889545811,
T,right,Target,0,12,12,12,931.1784476333996,933.1784620694816,right,1,2,0.5451292815268971,T07L11,2021_Oct_19_1142,t1_Paradigm,2021.1.4,60.00721889545811,
T,left,Lure,0,13,13,13,934.6787060393253,936.6785113125807,left,1,2,0.6450924213859253,T07L11,2021_Oct_19_1142,t1_Paradigm,2021.1.4,60.00721889545811,
J,left,Distractor,0,14,14,14,938.1784620694816,940.1789188913535,left,1,2,1.0809565925737843,T07L11,2021_Oct_19_1142,t1_Paradigm,2021.1.4,60.00721889545811,
Q,left,Pretarget,0,15,15,15,941.6784590219031,943.6784323953325,left,1,2,0.4773499457514845,T07L11,2021_Oct_19_1142,t1_Paradigm,2021.1.4,60.00721889545811,
M,left,Distractor,0,16,16,16,945.1784501998336,947.1798113621189,left,1,2,0.5759435824584216,T07L11,2021_Oct_19_1142,t1_Paradigm,2021.1.4,60.00721889545811,
Q,right,Target,0,17,17,17,948.6784554930637,950.6785215782584,right,1,2,0.5492486981092952,T07L11,2021_Oct_19_1142,t1_Paradigm,2021.1.4,60.00721889545811,
R,left,Distractor,0,18,18,18,952.178512114624,954.1785445155692,left,1,2,0.8091832096106373,T07L11,2021_Oct_19_1142,t1_Paradigm,2021.1.4,60.00721889545811,
W,left,Distractor,0,19,19,19,955.6782912425115,957.6788407760905,left,1,2,0.8289494156488217,T07L11,2021_Oct_19_1142,t1_Paradigm,2021.1.4,60.00721889545811,
C,left,Pretarget,0,20,20,20,959.1783959843451,961.178890981595,left,1,2,0.9446764376480132,T07L11,2021_Oct_19_1142,t1_Paradigm,2021.1.4,60.00721889545811,
T,left,Distractor,0,21,21,21,962.6784301497391,964.6784150720341,left,1,2,0.5494658809620887,T07L11,2021_Oct_19_1142,t1_Paradigm,2021.1.4,60.00721889545811,
C,right,Target,0,22,22,22,966.1785323251388,968.1784999241354,right,1,2,0.44118531147250906,T07L11,2021_Oct_19_1142,t1_Paradigm,2021.1.4,60.00721889545811,
F,left,Pretarget,0,23,23,23,969.6784420193871,971.6784580594976,left,1,2,0.6533357457956299,T07L11,2021_Oct_19_1142,t1_Paradigm,2021.1.4,60.00721889545811,
C,right,Target,0,24,24,24,973.178649417765,975.1788935479708,None,0,2,,T07L11,2021_Oct_19_1142,t1_Paradigm,2021.1.4,60.00721889545811,
F,right,Target,0,25,25,25,976.6784173176275,978.6783999943291,right,1,2,0.8693505591363646,T07L11,2021_Oct_19_1142,t1_Paradigm,2021.1.4,60.00721889545811,
H,left,Distractor,0,26,26,26,980.1785483651911,982.1784383301856,left,1,2,0.7615242450265214,T07L11,2021_Oct_19_1142,t1_Paradigm,2021.1.4,60.00721889545811,
H,left,Lure,0,27,27,27,983.6784654379007,985.6784234129009,left,1,2,0.8294264479773119,T07L11,2021_Oct_19_1142,t1_Paradigm,2021.1.4,60.00721889545811,
P,left,Distractor,0,28,28,28,987.1784765055636,989.1783793026116,left,1,2,0.6253236489719711,T07L11,2021_Oct_19_1142,t1_Paradigm,2021.1.4,60.00721889545811,
G,left,Pretarget,0,29,29,29,990.6787971470621,992.6788163951715,left,1,2,0.5488409589743242,T07L11,2021_Oct_19_1142,t1_Paradigm,2021.1.4,60.00721889545811,
K,left,Distractor,0,30,30,30,994.1783921347233,996.1784309517243,left,1,2,0.5050977018545382,T07L11,2021_Oct_19_1142,t1_Paradigm,2021.1.4,60.00721889545811,
G,right,Target,0,31,31,31,997.6784301497391,999.6784705707687,right,1,2,0.4293281543068588,T07L11,2021_Oct_19_1142,t1_Paradigm,2021.1.4,60.00721889545811,
M,left,Pretarget,0,32,32,32,1001.1784838840249,1003.1784100995865,left,1,2,0.5614779854658991,T07L11,2021_Oct_19_1142,t1_Paradigm,2021.1.4,60.00721889545811,
B,left,Distractor,0,33,33,33,1004.6783890870865,1006.6785074629588,left,1,2,1.3813451799214818,T07L11,2021_Oct_19_1142,t1_Paradigm,2021.1.4,60.00721889545811,
M,right,Target,0,34,34,34,1008.17837032018,1010.17837032018,right,1,2,0.4572510681464337,T07L11,2021_Oct_19_1142,t1_Paradigm,2021.1.4,60.00721889545811,
M,left,Lure,0,35,35,35,1011.67842148809,1013.6783586108941,left,1,2,0.8934029986266978,T07L11,2021_Oct_19_1142,t1_Paradigm,2021.1.4,60.00721889545811,
T,left,Distractor,0,36,36,36,1015.178397909156,1017.1784065708052,left,1,2,0.7692706473753788,T07L11,2021_Oct_19_1142,t1_Paradigm,2021.1.4,60.00721889545811,
F,left,Distractor,0,37,37,37,1018.6784115431947,1020.6783990319236,left,1,2,0.853245664620772,T07L11,2021_Oct_19_1142,t1_Paradigm,2021.1.4,60.00721889545811,
X,left,Distractor,0,38,38,38,1022.1783273327164,1024.1783969467506,left,1,2,0.4732738374150358,T07L11,2021_Oct_19_1142,t1_Paradigm,2021.1.4,60.00721889545811,
C,left,Distractor,0,39,39,39,1025.6784959140932,1027.6783454580582,left,1,2,0.4616110861534253,T07L11,2021_Oct_19_1142,t1_Paradigm,2021.1.4,60.00721889545811,
R,left,Distractor,0,40,40,40,1029.1785422699759,1031.178466239944,left,1,2,0.641160994709935,T07L11,2021_Oct_19_1142,t1_Paradigm,2021.1.4,60.00721889545811,
B,left,Pretarget,0,41,41,41,1032.67843207455,1034.6783929367084,left,1,2,0.4693093681707978,T07L11,2021_Oct_19_1142,t1_Paradigm,2021.1.4,60.00721889545811,
H,left,Distractor,0,42,42,42,1036.1785047361627,1038.1784357637516,left,1,2,0.4252404971048236,T07L11,2021_Oct_19_1142,t1_Paradigm,2021.1.4,60.00721889545811,
B,right,Target,0,43,43,43,1039.67855012964,1041.6783669517608,right,1,2,0.3974616233026609,T07L11,2021_Oct_19_1142,t1_Paradigm,2021.1.4,60.00721889545811,
W,left,Pretarget,0,44,44,44,1043.1785907110316,1045.1784614279168,left,1,2,0.5614837598404847,T07L11,2021_Oct_19_1142,t1_Paradigm,2021.1.4,60.00721889545811,
L,left,Pretarget,0,45,45,45,1046.6783817086252,1048.6785578288836,left,1,2,0.9972539361915551,T07L11,2021_Oct_19_1142,t1_Paradigm,2021.1.4,60.00721889545811,
W,right,Target,0,46,46,46,1050.1784973577014,1052.178538420354,right,1,2,0.5371775660896674,T07L11,2021_Oct_19_1142,t1_Paradigm,2021.1.4,60.00721889545811,
L,right,Target,0,47,47,47,1053.6784955933108,1055.678657277429,right,1,2,1.0209935939055867,T07L11,2021_Oct_19_1142,t1_Paradigm,2021.1.4,60.00721889545811,
W,right,Target,0,48,48,48,1057.1786705906852,1059.1790241143317,left,0,2,0.672559475817252,T07L11,2021_Oct_19_1142,t1_Paradigm,2021.1.4,60.00721889545811,
X,left,Distractor,0,49,49,49,1060.6783833126538,1062.67831915227,left,1,2,1.0135702390689403,T07L11,2021_Oct_19_1142,t1_Paradigm,2021.1.4,60.00721889545811,
R,left,Distractor,0,50,50,50,1064.1783254079055,1066.1781999744126,left,1,2,0.4414336121408269,T07L11,2021_Oct_19_1142,t1_Paradigm,2021.1.4,60.00721889545811,
V,left,Pretarget,0,51,51,51,1067.6783669517608,1069.6783159442712,left,1,2,0.8614825729164295,T07L11,2021_Oct_19_1142,t1_Paradigm,2021.1.4,60.00721889545811,
Z,left,Distractor,0,52,52,52,1071.178394701099,1073.1783930971287,left,1,2,0.4655235855607316,T07L11,2021_Oct_19_1142,t1_Paradigm,2021.1.4,60.00721889545811,
V,right,Target,0,53,53,53,1074.6784198840614,1076.6784202048439,right,1,2,0.4211358374450356,T07L11,2021_Oct_19_1142,t1_Paradigm,2021.1.4,60.00721889545811,
V,left,Lure,0,54,54,54,1078.1785634428961,1080.178484525648,left,1,2,0.4411099230637774,T07L11,2021_Oct_19_1142,t1_Paradigm,2021.1.4,60.00721889545811,
N,left,Distractor,0,55,55,55,1081.6783833126538,1083.6783938991139,left,1,2,0.46152029919903725,T07L11,2021_Oct_19_1142,t1_Paradigm,2021.1.4,60.00721889545811,
B,left,Distractor,0,56,56,56,1085.1784553326434,1087.1783725657733,left,1,2,0.7693017651326954,T07L11,2021_Oct_19_1142,t1_Paradigm,2021.1.4,60.00721889545811,
V,left,Lure,0,57,57,57,1088.6783015081892,1090.6784436234157,left,1,2,0.469268947141245,T07L11,2021_Oct_19_1142,t1_Paradigm,2021.1.4,60.00721889545811,
J,left,Distractor,0,58,58,58,1092.1785050569451,1094.1785602348973,left,1,2,0.7613266311236657,T07L11,2021_Oct_19_1142,t1_Paradigm,2021.1.4,60.00721889545811,
H,left,Distractor,0,59,59,59,1095.678462871525,1097.6784259792767,left,1,2,0.6211047838442028,T07L11,2021_Oct_19_1142,t1_Paradigm,2021.1.4,60.00721889545811,
X,left,Pretarget,0,60,60,60,1099.1784732975648,1101.1788127059117,left,1,2,0.5130041842348874,T07L11,2021_Oct_19_1142,t1_Paradigm,2021.1.4,60.00721889545811,
P,left,Distractor,0,61,61,61,1102.6784644754953,1104.6784365657368,left,1,2,0.7571475454024039,T07L11,2021_Oct_19_1142,t1_Paradigm,2021.1.4,60.00721889545811,
X,right,Target,0,62,62,62,1106.178439292591,1108.1787225606386,right,1,2,0.4089777680928819,T07L11,2021_Oct_19_1142,t1_Paradigm,2021.1.4,60.00721889545811,
Q,left,Distractor,0,63,63,63,1109.6782354229945,1111.6782517838874,left,1,2,0.44523896370083094,T07L11,2021_Oct_19_1142,t1_Paradigm,2021.1.4,60.00721889545811,
B,left,Pretarget,0,0,0,0,1122.0862119685626,1124.078280463582,None,0,2,,T07L11,2021_Oct_19_1142,t1_Paradigm,2021.1.4,60.00721889545811,
F,left,Distractor,0,1,1,1,1125.5784310800373,1127.5784208144178,None,0,2,,T07L11,2021_Oct_19_1142,t1_Paradigm,2021.1.4,60.00721889545811,
B,right,Target,0,2,2,2,1129.0784501677845,1131.078474227921,right,1,2,0.48517847328912467,T07L11,2021_Oct_19_1142,t1_Paradigm,2021.1.4,60.00721889545811,
V,left,Distractor,0,3,3,3,1132.578422418388,1134.5787416162202,left,1,2,0.48879134375602007,T07L11,2021_Oct_19_1142,t1_Paradigm,2021.1.4,60.00721889545811,
G,left,Pretarget,0,4,4,4,1136.0784607542446,1138.0783914609929,left,1,2,0.7814056189963594,T07L11,2021_Oct_19_1142,t1_Paradigm,2021.1.4,60.00721889545811,
B,left,Lure,0,5,5,5,1139.578453215363,1141.5787114608684,left,1,2,1.1528713851002976,T07L11,2021_Oct_19_1142,t1_Paradigm,2021.1.4,60.00721889545811,
G,right,Target,0,6,6,6,1143.0782583282562,1145.0782705187448,left,0,2,0.4532898069592193,T07L11,2021_Oct_19_1142,t1_Paradigm,2021.1.4,60.00721889545811,
Y,left,Pretarget,0,7,7,7,1146.5783957918757,1148.5783476715442,left,1,2,0.6171990213333629,T07L11,2021_Oct_19_1142,t1_Paradigm,2021.1.4,60.00721889545811,
P,left,Distractor,0,8,8,8,1150.078268593934,1152.0783115813392,left,1,2,0.4773345472640358,T07L11,2021_Oct_19_1142,t1_Paradigm,2021.1.4,60.00721889545811,
Y,right,Target,0,9,9,9,1153.5782793407561,1155.578314628976,left,0,2,0.6732832048437558,T07L11,2021_Oct_19_1142,t1_Paradigm,2021.1.4,60.00721889545811,
X,left,Distractor,0,10,10,10,1157.078268593934,1159.0783237718279,left,1,2,1.2051498962682672,T07L11,2021_Oct_19_1142,t1_Paradigm,2021.1.4,60.00721889545811,
Y,right,Target,0,11,11,11,1160.578239882132,1162.578325215436,right,1,2,0.90512285270961,T07L11,2021_Oct_19_1142,t1_Paradigm,2021.1.4,60.00721889545811,
N,left,Distractor,0,12,12,12,1164.0783160725841,1166.0783102981513,left,1,2,0.6692985250847414,T07L11,2021_Oct_19_1142,t1_Paradigm,2021.1.4,60.00721889545811,
Y,right,Target,0,13,13,13,1167.5783861677628,1169.5783066089498,right,1,2,0.7211692971177399,T07L11,2021_Oct_19_1142,t1_Paradigm,2021.1.4,60.00721889545811,
Y,left,Lure,0,14,14,14,1171.0783500775578,1173.0789477314102,left,1,2,0.6608976870193146,T07L11,2021_Oct_19_1142,t1_Paradigm,2021.1.4,60.00721889545811,
K,left,Distractor,0,15,15,15,1174.5782539974316,1176.5784490449587,left,1,2,0.9691667716833763,T07L11,2021_Oct_19_1142,t1_Paradigm,2021.1.4,60.00721889545811,
T,left,Pretarget,0,16,16,16,1178.0783702880726,1180.078358739207,left,1,2,0.8613975604530424,T07L11,2021_Oct_19_1142,t1_Paradigm,2021.1.4,60.00721889545811,
J,left,Distractor,0,17,17,17,1181.5783759021433,1183.5783598620328,left,1,2,0.4973561115330085,T07L11,2021_Oct_19_1142,t1_Paradigm,2021.1.4,60.00721889545811,
T,right,Target,0,18,18,18,1185.0783773457515,1187.078262177878,right,1,2,0.40537195530487224,T07L11,2021_Oct_19_1142,t1_Paradigm,2021.1.4,60.00721889545811,
S,left,Pretarget,0,19,19,19,1188.578281265567,1190.5788256663363,left,1,2,0.4886655894224532,T07L11,2021_Oct_19_1142,t1_Paradigm,2021.1.4,60.00721889545811,
R,left,Distractor,0,20,20,20,1192.0783430199372,1194.078264102689,left,1,2,0.6212404830148444,T07L11,2021_Oct_19_1142,t1_Paradigm,2021.1.4,60.00721889545811,
S,right,Target,0,21,21,21,1195.5782867192174,1197.5782376365387,right,1,2,0.4173086713417433,T07L11,2021_Oct_19_1142,t1_Paradigm,2021.1.4,60.00721889545811,
Q,left,Distractor,0,22,22,22,1199.0783375662868,1201.0782872004202,left,1,2,0.4853051900281571,T07L11,2021_Oct_19_1142,t1_Paradigm,2021.1.4,60.00721889545811,
D,left,Distractor,0,23,23,23,1202.5783948294702,1204.5782735663233,left,1,2,0.6496654517832212,T07L11,2021_Oct_19_1142,t1_Paradigm,2021.1.4,60.00721889545811,
F,left,Distractor,0,24,24,24,1206.078221436066,1208.0785736764665,left,1,2,0.8130982753937133,T07L11,2021_Oct_19_1142,t1_Paradigm,2021.1.4,60.00721889545811,
Z,left,Distractor,0,25,25,25,1209.5784647642286,1211.578638959676,left,1,2,0.4490738289896399,T07L11,2021_Oct_19_1142,t1_Paradigm,2021.1.4,60.00721889545811,
P,left,Distractor,0,26,26,26,1213.078424182837,1215.0790176662267,left,1,2,0.45244866446591914,T07L11,2021_Oct_19_1142,t1_Paradigm,2021.1.4,60.00721889545811,
H,left,Distractor,0,27,27,27,1216.578326498624,1218.5782783783507,left,1,2,0.4412177125341259,T07L11,2021_Oct_19_1142,t1_Paradigm,2021.1.4,60.00721889545811,
Z,left,Pretarget,0,28,28,28,1220.0783590600477,1222.0781973759294,left,1,2,0.46132685570046306,T07L11,2021_Oct_19_1142,t1_Paradigm,2021.1.4,60.00721889545811,
J,left,Pretarget,0,29,29,29,1223.578628373216,1225.579074287787,left,1,2,0.7845420986413956,T07L11,2021_Oct_19_1142,t1_Paradigm,2021.1.4,60.00721889545811,
Z,right,Target,0,30,30,30,1227.0782448545797,1229.0783279422321,right,1,2,1.0451332915690728,T07L11,2021_Oct_19_1142,t1_Paradigm,2021.1.4,60.00721889545811,
J,right,Target,0,31,31,31,1230.5782633007038,1232.5782466189703,right,1,2,1.177380325680133,T07L11,2021_Oct_19_1142,t1_Paradigm,2021.1.4,60.00721889545811,
V,left,Pretarget,0,32,32,32,1234.078220794443,1236.0782422881457,left,1,2,0.8293635708396323,T07L11,2021_Oct_19_1142,t1_Paradigm,2021.1.4,60.00721889545811,
Z,left,Lure,0,33,33,33,1237.57830821292,1239.5783454259508,left,1,2,1.1372881144052371,T07L11,2021_Oct_19_1142,t1_Paradigm,2021.1.4,60.00721889545811,
V,right,Target,0,34,34,34,1241.078417125158,1243.078531330626,right,1,2,0.9652096809004433,T07L11,2021_Oct_19_1142,t1_Paradigm,2021.1.4,60.00721889545811,
X,left,Distractor,0,35,35,35,1244.5784650850692,1246.57880321017,left,1,2,0.9527680227183737,T07L11,2021_Oct_19_1142,t1_Paradigm,2021.1.4,60.00721889545811,
S,left,Distractor,0,36,36,36,1248.0784103883198,1250.0786339872284,left,1,2,0.5088950333301909,T07L11,2021_Oct_19_1142,t1_Paradigm,2021.1.4,60.00721889545811,
Q,left,Distractor,0,37,37,37,1251.5783322730567,1253.5787595811416,left,1,2,0.5928065318148583,T07L11,2021_Oct_19_1142,t1_Paradigm,2021.1.4,60.00721889545811,
P,left,Distractor,0,38,38,38,1255.078263461066,1257.0788360923762,left,1,2,0.8206281363964081,T07L11,2021_Oct_19_1142,t1_Paradigm,2021.1.4,60.00721889545811,
S,left,Lure,0,39,39,39,1258.5782616966753,1260.5781936866697,right,0,2,0.5853960090316832,T07L11,2021_Oct_19_1142,t1_Paradigm,2021.1.4,60.00721889545811,
K,left,Pretarget,0,40,40,40,1262.0784200123744,1264.0783266590443,left,1,2,0.5571641629794613,T07L11,2021_Oct_19_1142,t1_Paradigm,2021.1.4,60.00721889545811,
L,left,Distractor,0,41,41,41,1265.5783611452207,1267.5782902480569,left,1,2,1.025229782331735,T07L11,2021_Oct_19_1142,t1_Paradigm,2021.1.4,60.00721889545811,
K,right,Target,0,42,42,42,1269.0783651552629,1271.0783366038813,right,1,2,0.6614456165698357,T07L11,2021_Oct_19_1142,t1_Paradigm,2021.1.4,60.00721889545811,
B,left,Distractor,0,43,43,43,1272.578159040073,1274.5782321828883,left,1,2,0.7134613910457119,T07L11,2021_Oct_19_1142,t1_Paradigm,2021.1.4,60.00721889545811,
N,left,Distractor,0,44,44,44,1276.078387611371,1278.0782467793906,left,1,2,0.6373216381762177,T07L11,2021_Oct_19_1142,t1_Paradigm,2021.1.4,60.00721889545811,
S,left,Pretarget,0,45,45,45,1279.578226087673,1281.5782607342699,left,1,2,0.4974218759452924,T07L11,2021_Oct_19_1142,t1_Paradigm,2021.1.4,60.00721889545811,
Z,left,Distractor,0,46,46,46,1283.0782817467698,1285.0782185488497,left,1,2,0.7572758661699481,T07L11,2021_Oct_19_1142,t1_Paradigm,2021.1.4,60.00721889545811,
S,right,Target,0,47,47,47,1286.5782896064338,1288.5780884636915,right,1,2,0.3935398206813261,T07L11,2021_Oct_19_1142,t1_Paradigm,2021.1.4,60.00721889545811,
C,left,Distractor,0,48,48,48,1290.0785624483833,1292.0786959019606,left,1,2,0.5248058427241631,T07L11,2021_Oct_19_1142,t1_Paradigm,2021.1.4,60.00721889545811,
T,left,Pretarget,0,49,49,49,1293.5782912104623,1295.5781625689124,left,1,2,0.6253416138351895,T07L11,2021_Oct_19_1142,t1_Paradigm,2021.1.4,60.00721889545811,
S,left,Lure,0,50,50,50,1297.0783539271797,1299.078329867043,left,1,2,0.6134023313643411,T07L11,2021_Oct_19_1142,t1_Paradigm,2021.1.4,60.00721889545811,
T,right,Target,0,51,51,51,1300.5783056465443,1302.5782491854043,right,1,2,0.4736668196856044,T07L11,2021_Oct_19_1142,t1_Paradigm,2021.1.4,60.00721889545811,
N,left,Pretarget,0,52,52,52,1304.0783231302048,1306.0780854160548,left,1,2,0.5094955743988976,T07L11,2021_Oct_19_1142,t1_Paradigm,2021.1.4,60.00721889545811,
B,left,Distractor,0,53,53,53,1307.5781417167746,1309.5782071603462,left,1,2,0.44955695659155026,T07L11,2021_Oct_19_1142,t1_Paradigm,2021.1.4,60.00721889545811,
N,right,Target,0,54,54,54,1311.0782236816594,1313.0782005839283,right,1,2,0.6452005315804854,T07L11,2021_Oct_19_1142,t1_Paradigm,2021.1.4,60.00721889545811,
N,left,Lure,0,55,55,55,1314.5783348394907,1316.5783059673267,left,1,2,0.6973699701484293,T07L11,2021_Oct_19_1142,t1_Paradigm,2021.1.4,60.00721889545811,
X,left,Distractor,0,56,56,56,1318.0782737267436,1320.078191922279,left,1,2,0.7012962640146725,T07L11,2021_Oct_19_1142,t1_Paradigm,2021.1.4,60.00721889545811,
W,left,Distractor,0,57,57,57,1321.578187270672,1323.57883336558,left,1,2,0.5927683563786559,T07L11,2021_Oct_19_1142,t1_Paradigm,2021.1.4,60.00721889545811,
S,left,Distractor,0,58,58,58,1325.0782073207665,1327.078151180409,left,1,2,0.4533369648270309,T07L11,2021_Oct_19_1142,t1_Paradigm,2021.1.4,60.00721889545811,
L,left,Distractor,0,59,59,59,1328.5783762229257,1330.578211009968,left,1,2,0.5051621829625219,T07L11,2021_Oct_19_1142,t1_Paradigm,2021.1.4,60.00721889545811,
K,left,Pretarget,0,60,60,60,1332.0782708395272,1334.0781049849465,left,1,2,0.5253768700058572,T07L11,2021_Oct_19_1142,t1_Paradigm,2021.1.4,60.00721889545811,
V,left,Pretarget,0,61,61,61,1335.5782934560557,1337.5782880024053,left,1,2,0.5293252991978079,T07L11,2021_Oct_19_1142,t1_Paradigm,2021.1.4,60.00721889545811,
K,right,Target,0,62,62,62,1339.0782608946902,1341.0789175760583,right,1,2,0.5807790288235992,T07L11,2021_Oct_19_1142,t1_Paradigm,2021.1.4,60.00721889545811,
V,right,Target,0,63,63,63,1342.5784634810407,1344.5785847441293,right,1,2,0.4248962767305784,T07L11,2021_Oct_19_1142,t1_Paradigm,2021.1.4,60.00721889545811,
R,left,Distractor,0,0,0,0,1443.2712969922577,1445.2615943402634,None,0,3,,T07L11,2021_Oct_19_1142,t1_Paradigm,2021.1.4,60.00721889545811,
P,left,Lure,0,1,1,1,1446.7615813477896,1448.7615364355734,None,0,3,,T07L11,2021_Oct_19_1142,t1_Paradigm,2021.1.4,60.00721889545811,
V,left,Distractor,0,2,2,2,1450.261469869176,1452.2615032325848,None,0,3,,T07L11,2021_Oct_19_1142,t1_Paradigm,2021.1.4,60.00721889545811,
P,left,Pretarget,0,3,3,3,1453.7616028415505,1455.761512054596,None,0,3,,T07L11,2021_Oct_19_1142,t1_Paradigm,2021.1.4,60.00721889545811,
Z,left,Distractor,0,4,4,4,1457.2616678039194,1459.2620380092412,left,1,3,0.9414113163948059,T07L11,2021_Oct_19_1142,t1_Paradigm,2021.1.4,60.00721889545811,
L,left,Pretarget,0,5,5,5,1460.7614225508878,1462.761429929349,left,1,3,1.1700615522568114,T07L11,2021_Oct_19_1142,t1_Paradigm,2021.1.4,60.00721889545811,
P,right,Target,0,6,6,6,1464.2613822902786,1466.2614316937397,right,1,3,0.7261183072114363,T07L11,2021_Oct_19_1142,t1_Paradigm,2021.1.4,60.00721889545811,
S,left,Distractor,0,7,7,7,1467.761346520856,1469.7614408365916,left,1,3,0.7781552546075545,T07L11,2021_Oct_19_1142,t1_Paradigm,2021.1.4,60.00721889545811,
L,right,Target,0,8,8,8,1471.2614201448741,1473.2782391443034,right,1,3,0.8134354381472804,T07L11,2021_Oct_19_1142,t1_Paradigm,2021.1.4,60.00721889545811,
D,left,Distractor,0,9,9,9,1474.761497618514,1476.7615457387874,left,1,3,0.8499539167969488,T07L11,2021_Oct_19_1142,t1_Paradigm,2021.1.4,60.00721889545811,
G,left,Distractor,0,10,10,10,1478.2614162952523,1480.26142656093,left,1,3,0.7579668734106235,T07L11,2021_Oct_19_1142,t1_Paradigm,2021.1.4,60.00721889545811,
M,left,Pretarget,0,11,11,11,1481.7614543102682,1483.7614504606463,left,1,3,1.0821798100951128,T07L11,2021_Oct_19_1142,t1_Paradigm,2021.1.4,60.00721889545811,
Y,left,Distractor,0,12,12,12,1485.261795483064,1487.2619080845034,left,1,3,0.6855490636080503,T07L11,2021_Oct_19_1142,t1_Paradigm,2021.1.4,60.00721889545811,
V,left,Distractor,0,13,13,13,1488.7614398741862,1490.7623997133342,left,1,3,1.0889997365884483,T07L11,2021_Oct_19_1142,t1_Paradigm,2021.1.4,60.00721889545811,
M,right,Target,0,14,14,14,1492.261428485741,1494.2614217489026,right,1,3,0.694063144735992,T07L11,2021_Oct_19_1142,t1_Paradigm,2021.1.4,60.00721889545811,
S,left,Pretarget,0,15,15,15,1495.7613763554255,1497.7614026611554,left,1,3,0.8420413391431794,T07L11,2021_Oct_19_1142,t1_Paradigm,2021.1.4,60.00721889545811,
Q,left,Distractor,0,16,16,16,1499.2614304105518,1501.2614111624425,left,1,3,0.8460853672586381,T07L11,2021_Oct_19_1142,t1_Paradigm,2021.1.4,60.00721889545811,
R,left,Pretarget,0,17,17,17,1502.7613673729938,1504.761370901775,left,1,3,0.7379369682166725,T07L11,2021_Oct_19_1142,t1_Paradigm,2021.1.4,60.00721889545811,
S,right,Target,0,18,18,18,1506.2613816486555,1508.2614926461247,right,1,3,0.8218731684028171,T07L11,2021_Oct_19_1142,t1_Paradigm,2021.1.4,60.00721889545811,
F,left,Distractor,0,19,19,19,1509.7615919342497,1511.7615774981678,left,1,3,0.7617465607472695,T07L11,2021_Oct_19_1142,t1_Paradigm,2021.1.4,60.00721889545811,
R,right,Target,0,20,20,20,1513.261584074644,1515.2619128965307,left,0,3,1.2778009289759211,T07L11,2021_Oct_19_1142,t1_Paradigm,2021.1.4,60.00721889545811,
P,left,Distractor,0,21,21,21,1516.761528415489,1518.7614077940234,left,1,3,1.0100564964232035,T07L11,2021_Oct_19_1142,t1_Paradigm,2021.1.4,60.00721889545811,
L,left,Distractor,0,22,22,22,1520.2614082752261,1522.2614211072796,left,1,3,0.821858732320834,T07L11,2021_Oct_19_1142,t1_Paradigm,2021.1.4,60.00721889545811,
R,right,Target,0,23,23,23,1523.7613866211032,1525.7613689769641,right,1,3,0.6664411429665051,T07L11,2021_Oct_19_1142,t1_Paradigm,2021.1.4,60.00721889545811,
H,left,Pretarget,0,24,24,24,1527.2613733077887,1529.261405067169,left,1,3,0.7821951123187318,T07L11,2021_Oct_19_1142,t1_Paradigm,2021.1.4,60.00721889545811,
G,left,Pretarget,0,25,25,25,1530.7614093979937,1532.761460084701,left,1,3,0.6579344402998686,T07L11,2021_Oct_19_1142,t1_Paradigm,2021.1.4,60.00721889545811,
T,left,Distractor,0,26,26,26,1534.2615561648854,1536.26143714739,left,1,3,0.5820891835610382,T07L11,2021_Oct_19_1142,t1_Paradigm,2021.1.4,60.00721889545811,
H,right,Target,0,27,27,27,1537.7614960145438,1539.76150403457,right,1,3,0.5058865535538644,T07L11,2021_Oct_19_1142,t1_Paradigm,2021.1.4,60.00721889545811,
G,right,Target,0,28,28,28,1541.2618625306059,1543.2615272927214,right,1,3,1.3900520629249513,T07L11,2021_Oct_19_1142,t1_Paradigm,2021.1.4,60.00721889545811,
D,left,Distractor,0,29,29,29,1544.7615973879,1546.7614401949686,left,1,3,0.7699347072048113,T07L11,2021_Oct_19_1142,t1_Paradigm,2021.1.4,60.00721889545811,
N,left,Pretarget,0,30,30,30,1548.2615340295597,1550.2615462199901,left,1,3,0.7738343745004386,T07L11,2021_Oct_19_1142,t1_Paradigm,2021.1.4,60.00721889545811,
V,left,Distractor,0,31,31,31,1551.76145815989,1553.7615117338137,left,1,3,0.7780525980051607,T07L11,2021_Oct_19_1142,t1_Paradigm,2021.1.4,60.00721889545811,
R,left,Distractor,0,32,32,32,1555.2614451674162,1557.2616838439717,left,1,3,0.9577484714682214,T07L11,2021_Oct_19_1142,t1_Paradigm,2021.1.4,60.00721889545811,
N,right,Target,0,33,33,33,1558.7613914331305,1560.761278190068,right,1,3,0.9302807754138485,T07L11,2021_Oct_19_1142,t1_Paradigm,2021.1.4,60.00721889545811,
Z,left,Distractor,0,34,34,34,1562.2613306411658,1564.2613184506772,left,1,3,1.0619099450996146,T07L11,2021_Oct_19_1142,t1_Paradigm,2021.1.4,60.00721889545811,
N,left,Lure,0,35,35,35,1565.7614106812398,1567.7613378592068,left,1,3,1.1142054588417523,T07L11,2021_Oct_19_1142,t1_Paradigm,2021.1.4,60.00721889545811,
Y,left,Pretarget,0,36,36,36,1569.261436505767,1571.26137009979,left,1,3,0.7339631957001984,T07L11,2021_Oct_19_1142,t1_Paradigm,2021.1.4,60.00721889545811,
Y,left,Lure,0,37,37,37,1572.7612483554985,1574.7613218190963,left,1,3,0.994161406357307,T07L11,2021_Oct_19_1142,t1_Paradigm,2021.1.4,60.00721889545811,
B,left,Distractor,0,38,38,38,1576.2614352225792,1578.2612892577308,left,1,3,0.6620333255268633,T07L11,2021_Oct_19_1142,t1_Paradigm,2021.1.4,60.00721889545811,
Y,right,Target,0,39,39,39,1579.7613147614757,1581.761376034643,right,1,3,0.5059580923989415,T07L11,2021_Oct_19_1142,t1_Paradigm,2021.1.4,60.00721889545811,
J,left,Distractor,0,40,40,40,1583.2614451674162,1585.2613380196271,left,1,3,0.8619069937267341,T07L11,2021_Oct_19_1142,t1_Paradigm,2021.1.4,60.00721889545811,
X,left,Distractor,0,41,41,41,1586.761374109832,1588.7613410672056,left,1,3,1.2501529422588646,T07L11,2021_Oct_19_1142,t1_Paradigm,2021.1.4,60.00721889545811,
W,left,Pretarget,0,42,42,42,1590.2615292175324,1592.261889477959,left,1,3,1.2374113343539648,T07L11,2021_Oct_19_1142,t1_Paradigm,2021.1.4,60.00721889545811,
S,left,Pretarget,0,43,43,43,1593.7614459694014,1595.761416776455,left,1,3,1.0338981691747904,T07L11,2021_Oct_19_1142,t1_Paradigm,2021.1.4,60.00721889545811,
R,left,Distractor,0,44,44,44,1597.2615240846644,1599.2613761950051,left,1,3,0.8781523994985037,T07L11,2021_Oct_19_1142,t1_Paradigm,2021.1.4,60.00721889545811,
W,right,Target,0,45,45,45,1600.761429929349,1602.7613725058036,right,1,3,0.7059132442809641,T07L11,2021_Oct_19_1142,t1_Paradigm,2021.1.4,60.00721889545811,
S,right,Target,0,46,46,46,1604.2613652877626,1606.261976094509,left,0,3,0.54953902377747,T07L11,2021_Oct_19_1142,t1_Paradigm,2021.1.4,60.00721889545811,
D,left,Distractor,0,47,47,47,1607.7613208566909,1609.761414210021,left,1,3,0.8100285225082189,T07L11,2021_Oct_19_1142,t1_Paradigm,2021.1.4,60.00721889545811,
T,left,Distractor,0,48,48,48,1611.2614028215758,1613.2613027314073,left,1,3,0.8461697382153943,T07L11,2021_Oct_19_1142,t1_Paradigm,2021.1.4,60.00721889545811,
S,right,Target,0,49,49,49,1614.7614033027785,1616.761307062232,right,1,3,0.705966497422196,T07L11,2021_Oct_19_1142,t1_Paradigm,2021.1.4,60.00721889545811,
K,left,Distractor,0,50,50,50,1618.261399613577,1620.2612623103778,left,1,3,0.6942164879874326,T07L11,2021_Oct_19_1142,t1_Paradigm,2021.1.4,60.00721889545811,
S,left,Lure,0,51,51,51,1621.761418701266,1623.7613991323742,left,1,3,0.9699630019604228,T07L11,2021_Oct_19_1142,t1_Paradigm,2021.1.4,60.00721889545811,
T,left,Pretarget,0,52,52,52,1625.2613428316545,1627.2614794932306,right,0,3,1.0058081175084226,T07L11,2021_Oct_19_1142,t1_Paradigm,2021.1.4,60.00721889545811,
V,left,Distractor,0,53,53,53,1628.761528415489,1630.761343954422,None,0,3,,T07L11,2021_Oct_19_1142,t1_Paradigm,2021.1.4,60.00721889545811,
B,left,Distractor,0,54,54,54,1632.2614060295746,1634.2612995234085,left,1,3,1.1900176729541272,T07L11,2021_Oct_19_1142,t1_Paradigm,2021.1.4,60.00721889545811,
T,right,Target,0,55,55,55,1635.7613538993173,1637.7613378592068,right,1,3,1.2899930033017881,T07L11,2021_Oct_19_1142,t1_Paradigm,2021.1.4,60.00721889545811,
Y,left,Pretarget,0,56,56,56,1639.2613303203834,1641.2629798834678,left,1,3,0.908466249529738,T07L11,2021_Oct_19_1142,t1_Paradigm,2021.1.4,60.00721889545811,
T,left,Lure,0,57,57,57,1642.761271132389,1644.7614296085085,left,1,3,0.8981165402801707,T07L11,2021_Oct_19_1142,t1_Paradigm,2021.1.4,60.00721889545811,
P,left,Pretarget,0,58,58,58,1646.2612619895372,1648.2612696887809,left,1,3,0.7101539239520207,T07L11,2021_Oct_19_1142,t1_Paradigm,2021.1.4,60.00721889545811,
Y,right,Target,0,59,59,59,1649.7613808466704,1651.7613163655042,right,1,3,0.8900368247996084,T07L11,2021_Oct_19_1142,t1_Paradigm,2021.1.4,60.00721889545811,
R,left,Distractor,0,60,60,60,1653.261300485814,1655.2612844457035,left,1,3,1.037976843828801,T07L11,2021_Oct_19_1142,t1_Paradigm,2021.1.4,60.00721889545811,
P,right,Target,0,61,61,61,1656.7783329788363,1658.761882259918,right,1,3,0.9136715803761035,T07L11,2021_Oct_19_1142,t1_Paradigm,2021.1.4,60.00721889545811,
L,left,Distractor,0,62,62,62,1660.2613973679254,1662.261351172463,left,1,3,1.126052991952747,T07L11,2021_Oct_19_1142,t1_Paradigm,2021.1.4,60.00721889545811,
V,left,Distractor,0,63,63,63,1663.7613009670167,1665.7613417088287,left,1,3,0.7460648039123043,T07L11,2021_Oct_19_1142,t1_Paradigm,2021.1.4,60.00721889545811,
H,left,Lure,0,0,0,0,1676.318903024483,1678.3111559805693,None,0,3,,T07L11,2021_Oct_19_1142,t1_Paradigm,2021.1.4,60.00721889545811,
B,left,Distractor,0,1,1,1,1679.8112985769985,1681.8112549479702,None,0,3,,T07L11,2021_Oct_19_1142,t1_Paradigm,2021.1.4,60.00721889545811,
T,left,Distractor,0,2,2,2,1683.3113134942832,1685.311319268716,None,0,3,,T07L11,2021_Oct_19_1142,t1_Paradigm,2021.1.4,60.00721889545811,
R,left,Distractor,0,3,3,3,1686.8113611333538,1688.8112636096193,left,1,3,0.7520211318624206,T07L11,2021_Oct_19_1142,t1_Paradigm,2021.1.4,60.00721889545811,
H,left,Pretarget,0,4,4,4,1690.3113016246352,1692.311277885281,left,1,3,1.028334823437035,T07L11,2021_Oct_19_1142,t1_Paradigm,2021.1.4,60.00721889545811,
K,left,Distractor,0,5,5,5,1693.8114519203082,1695.8113733238424,left,1,3,0.855871427746024,T07L11,2021_Oct_19_1142,t1_Paradigm,2021.1.4,60.00721889545811,
G,left,Distractor,0,6,6,6,1697.3112887925818,1699.3112839805544,left,1,3,0.7961121381958947,T07L11,2021_Oct_19_1142,t1_Paradigm,2021.1.4,60.00721889545811,
H,right,Target,0,7,7,7,1700.8112559103756,1702.8113486220827,right,1,3,1.3281536666327156,T07L11,2021_Oct_19_1142,t1_Paradigm,2021.1.4,60.00721889545811,
Y,left,Pretarget,0,8,8,8,1704.3112329730648,1706.3113025870407,left,1,3,1.0600284422980621,T07L11,2021_Oct_19_1142,t1_Paradigm,2021.1.4,60.00721889545811,
S,left,Distractor,0,9,9,9,1707.8114384466317,1709.8112690632697,left,1,3,0.8239894982543774,T07L11,2021_Oct_19_1142,t1_Paradigm,2021.1.4,60.00721889545811,
P,left,Distractor,0,10,10,10,1711.3113952987478,1713.3112166121718,left,1,3,0.5880288298358209,T07L11,2021_Oct_19_1142,t1_Paradigm,2021.1.4,60.00721889545811,
Y,right,Target,0,11,11,11,1714.8112629679963,1716.8112860657275,right,1,3,0.5920157552463934,T07L11,2021_Oct_19_1142,t1_Paradigm,2021.1.4,60.00721889545811,
H,left,Lure,0,12,12,12,1718.3112008928438,1720.3112451634952,left,1,3,0.6920523587032221,T07L11,2021_Oct_19_1142,t1_Paradigm,2021.1.4,60.00721889545811,
Q,left,Distractor,0,13,13,13,1721.8112610431854,1723.8126318295253,left,1,3,0.6468780044815503,T07L11,2021_Oct_19_1142,t1_Paradigm,2021.1.4,60.00721889545811,
V,left,Pretarget,0,14,14,14,1725.311234577035,1727.311446627078,left,1,3,0.5717580807395279,T07L11,2021_Oct_19_1142,t1_Paradigm,2021.1.4,60.00721889545811,
G,left,Distractor,0,15,15,15,1728.811459619552,1730.811370436626,left,1,3,0.9282369468128309,T07L11,2021_Oct_19_1142,t1_Paradigm,2021.1.4,60.00721889545811,
Z,left,Pretarget,0,16,16,16,1732.3113035494462,1734.3113673889893,left,1,3,0.6282400586060248,T07L11,2021_Oct_19_1142,t1_Paradigm,2021.1.4,60.00721889545811,
V,right,Target,0,17,17,17,1735.811216772534,1737.8112719504861,right,1,3,0.5041035368922167,T07L11,2021_Oct_19_1142,t1_Paradigm,2021.1.4,60.00721889545811,
N,left,Distractor,0,18,18,18,1739.3112589580123,1741.313153613708,None,0,3,,T07L11,2021_Oct_19_1142,t1_Paradigm,2021.1.4,60.00721889545811,
Z,right,Target,0,19,19,19,1742.811485283717,1744.8116614039172,right,1,3,0.5115451774327084,T07L11,2021_Oct_19_1142,t1_Paradigm,2021.1.4,60.00721889545811,
R,left,Distractor,0,20,20,20,1746.3113879203447,1748.311363218585,left,1,3,0.6919378324528225,T07L11,2021_Oct_19_1142,t1_Paradigm,2021.1.4,60.00721889545811,
P,left,Distractor,0,21,21,21,1749.8114730932284,1751.8113611333538,left,1,3,1.0481238064239733,T07L11,2021_Oct_19_1142,t1_Paradigm,2021.1.4,60.00721889545811,
Z,right,Target,0,22,22,22,1753.3112807724974,1755.3113038702286,left,0,3,1.1321389238582924,T07L11,2021_Oct_19_1142,t1_Paradigm,2021.1.4,60.00721889545811,
D,left,Pretarget,0,23,23,23,1756.8281474109972,1758.811791328655,left,1,3,0.7996489786310121,T07L11,2021_Oct_19_1142,t1_Paradigm,2021.1.4,60.00721889545811,
K,left,Distractor,0,24,24,24,1760.311362576962,1762.3112486923346,left,1,3,0.9642174408072606,T07L11,2021_Oct_19_1142,t1_Paradigm,2021.1.4,60.00721889545811,
W,left,Distractor,0,25,25,25,1763.8112222261843,1765.8113646621932,left,1,3,0.6321618612273596,T07L11,2021_Oct_19_1142,t1_Paradigm,2021.1.4,60.00721889545811,
D,right,Target,0,26,26,26,1767.3112656948506,1769.3113641809905,right,1,3,0.8759616437018849,T07L11,2021_Oct_19_1142,t1_Paradigm,2021.1.4,60.00721889545811,
G,left,Pretarget,0,27,27,27,1770.8114317097934,1772.8113880807068,left,1,3,1.3118133035604842,T07L11,2021_Oct_19_1142,t1_Paradigm,2021.1.4,60.00721889545811,
V,left,Distractor,0,28,28,28,1774.3114584967261,1776.3114206421305,left,1,3,1.3480552510591224,T07L11,2021_Oct_19_1142,t1_Paradigm,2021.1.4,60.00721889545811,
D,right,Target,0,29,29,29,1777.8113614541944,1779.8111522913678,left,0,3,1.192164478939958,T07L11,2021_Oct_19_1142,t1_Paradigm,2021.1.4,60.00721889545811,
G,right,Target,0,30,30,30,1781.31120891287,1783.3111704166513,right,1,3,0.7165773393935524,T07L11,2021_Oct_19_1142,t1_Paradigm,2021.1.4,60.00721889545811,
B,left,Pretarget,0,31,31,31,1784.8111965620192,1786.8113373940578,left,1,3,0.9281118341023102,T07L11,2021_Oct_19_1142,t1_Paradigm,2021.1.4,60.00721889545811,
N,left,Distractor,0,32,32,32,1788.3111700958689,1790.3124148070347,left,1,3,0.7707979850238189,T07L11,2021_Oct_19_1142,t1_Paradigm,2021.1.4,60.00721889545811,
F,left,Distractor,0,33,33,33,1791.8112132437527,1793.8112918401603,left,1,3,0.9360738152172416,T07L11,2021_Oct_19_1142,t1_Paradigm,2021.1.4,60.00721889545811,
B,right,Target,0,34,34,34,1795.3113551985589,1797.3111867775442,right,1,3,0.9880263917148113,T07L11,2021_Oct_19_1142,t1_Paradigm,2021.1.4,60.00721889545811,
Q,left,Pretarget,0,35,35,35,1798.8112645720248,1800.8111644818564,left,1,3,1.1682031471282244,T07L11,2021_Oct_19_1142,t1_Paradigm,2021.1.4,60.00721889545811,
S,left,Pretarget,0,36,36,36,1802.3112583163893,1804.31131124869,left,1,3,0.7399551326525398,T07L11,2021_Oct_19_1142,t1_Paradigm,2021.1.4,60.00721889545811,
W,left,Distractor,0,37,37,37,1805.8111818051548,1807.8111731435056,right,0,3,0.8240385809331201,T07L11,2021_Oct_19_1142,t1_Paradigm,2021.1.4,60.00721889545811,
Q,right,Target,0,38,38,38,1809.3112178953597,1811.3112859053654,None,0,3,,T07L11,2021_Oct_19_1142,t1_Paradigm,2021.1.4,60.00721889545811,
S,right,Target,0,39,39,39,1812.8112334542675,1814.8112145269406,right,1,3,1.1520953653962351,T07L11,2021_Oct_19_1142,t1_Paradigm,2021.1.4,60.00721889545811,
T,left,Distractor,0,40,40,40,1816.3113474993152,1818.3112031384371,left,1,3,0.8201729186112061,T07L11,2021_Oct_19_1142,t1_Paradigm,2021.1.4,60.00721889545811,
G,left,Distractor,0,41,41,41,1819.8112081108848,1821.811174105911,left,1,3,1.0165344481938519,T07L11,2021_Oct_19_1142,t1_Paradigm,2021.1.4,60.00721889545811,
D,left,Distractor,0,42,42,42,1823.3112435595249,1825.3114424566738,left,1,3,0.8599042277783155,T07L11,2021_Oct_19_1142,t1_Paradigm,2021.1.4,60.00721889545811,
S,left,Lure,0,43,43,43,1826.8110865270137,1828.8112963314052,left,1,3,1.3440263005904853,T07L11,2021_Oct_19_1142,t1_Paradigm,2021.1.4,60.00721889545811,
Z,left,Pretarget,0,44,44,44,1830.3113260055543,1832.3111733038677,left,1,3,1.0119566057692282,T07L11,2021_Oct_19_1142,t1_Paradigm,2021.1.4,60.00721889545811,
J,left,Distractor,0,45,45,45,1833.8113258451922,1835.8111769931274,left,1,3,1.0964035225333646,T07L11,2021_Oct_19_1142,t1_Paradigm,2021.1.4,60.00721889545811,
M,left,Pretarget,0,46,46,46,1837.3112012136262,1839.311155659787,left,1,3,0.700247562781442,T07L11,2021_Oct_19_1142,t1_Paradigm,2021.1.4,60.00721889545811,
Z,right,Target,0,47,47,47,1840.811754436465,1842.811596281128,right,1,3,0.7836185101186857,T07L11,2021_Oct_19_1142,t1_Paradigm,2021.1.4,60.00721889545811,
P,left,Distractor,0,48,48,48,1844.3111415444873,1846.3111527725705,left,1,3,0.6761678550974466,T07L11,2021_Oct_19_1142,t1_Paradigm,2021.1.4,60.00721889545811,
M,right,Target,0,49,49,49,1847.8111449129065,1849.8111673690728,right,1,3,0.5681051100837067,T07L11,2021_Oct_19_1142,t1_Paradigm,2021.1.4,60.00721889545811,
K,left,Distractor,0,50,50,50,1851.3111877399497,1853.311197684845,left,1,3,0.9401001992519014,T07L11,2021_Oct_19_1142,t1_Paradigm,2021.1.4,60.00721889545811,
Y,left,Distractor,0,51,51,51,1854.811176030722,1856.8112494943198,left,1,3,0.8963174835080281,T07L11,2021_Oct_19_1142,t1_Paradigm,2021.1.4,60.00721889545811,
X,left,Distractor,0,52,52,52,1858.3114100556704,1860.3117292535026,left,1,3,0.835516229562927,T07L11,2021_Oct_19_1142,t1_Paradigm,2021.1.4,60.00721889545811,
F,left,Pretarget,0,53,53,53,1861.8110935846344,1863.8112433991046,left,1,3,0.8080090748844668,T07L11,2021_Oct_19_1142,t1_Paradigm,2021.1.4,60.00721889545811,
M,left,Lure,0,54,54,54,1865.3110969530535,1867.3112865469302,left,1,3,0.8118169927620329,T07L11,2021_Oct_19_1142,t1_Paradigm,2021.1.4,60.00721889545811,
V,left,Distractor,0,55,55,55,1868.8111651234212,1870.811170897854,left,1,3,0.9281984505942091,T07L11,2021_Oct_19_1142,t1_Paradigm,2021.1.4,60.00721889545811,
F,right,Target,0,56,56,56,1872.3111890231958,1874.3117331031244,right,1,3,0.6915069955866784,T07L11,2021_Oct_19_1142,t1_Paradigm,2021.1.4,60.00721889545811,
S,left,Distractor,0,57,57,57,1875.81127066724,1877.8111067375285,left,1,3,0.6803241638699546,T07L11,2021_Oct_19_1142,t1_Paradigm,2021.1.4,60.00721889545811,
D,left,Distractor,0,58,58,58,1879.3111283916514,1881.3110905369977,left,1,3,0.7483514795312658,T07L11,2021_Oct_19_1142,t1_Paradigm,2021.1.4,60.00721889545811,
F,right,Target,0,59,59,59,1882.8111962412368,1884.8111041710945,right,1,3,1.280325960367918,T07L11,2021_Oct_19_1142,t1_Paradigm,2021.1.4,60.00721889545811,
V,left,Pretarget,0,60,60,60,1886.311124221189,1888.3111133139464,left,1,3,0.9001205894164741,T07L11,2021_Oct_19_1142,t1_Paradigm,2021.1.4,60.00721889545811,
J,left,Distractor,0,61,61,61,1889.8111378552858,1891.8111461961525,left,1,3,1.1119652995257638,T07L11,2021_Oct_19_1142,t1_Paradigm,2021.1.4,60.00721889545811,
V,left,Lure,0,62,62,62,1893.311293604609,1895.3111810031114,right,0,3,0.7802568275365047,T07L11,2021_Oct_19_1142,t1_Paradigm,2021.1.4,60.00721889545811,
V,right,Target,0,63,63,63,1896.8111696146661,1898.811231208616,left,0,3,0.8962616639328189,T07L11,2021_Oct_19_1142,t1_Paradigm,2021.1.4,60.00721889545811,
R,left,Distractor,0,0,0,0,1971.7193371977191,1973.7109479085193,None,0,4,,T07L11,2021_Oct_19_1142,t1_Paradigm,2021.1.4,60.00721889545811,
F,left,Distractor,0,1,1,1,1975.211037572648,1977.2111713470076,None,0,4,,T07L11,2021_Oct_19_1142,t1_Paradigm,2021.1.4,60.00721889545811,
P,left,Pretarget,0,2,2,2,1978.7111015726114,1980.711096118961,None,0,4,,T07L11,2021_Oct_19_1142,t1_Paradigm,2021.1.4,60.00721889545811,
H,left,Distractor,0,3,3,3,1982.211213051225,1984.2111684597912,None,0,4,,T07L11,2021_Oct_19_1142,t1_Paradigm,2021.1.4,60.00721889545811,
Z,left,Distractor,0,4,4,4,1985.711071096419,1987.7111461640452,left,1,4,0.9399875977542251,T07L11,2021_Oct_19_1142,t1_Paradigm,2021.1.4,60.00721889545811,
T,left,Distractor,0,5,5,5,1989.2111049410305,1991.211766434426,left,1,4,0.7994147932622582,T07L11,2021_Oct_19_1142,t1_Paradigm,2021.1.4,60.00721889545811,
P,right,Target,0,6,6,6,1992.7111012517707,1994.7110598683357,left,0,4,1.0602096953662112,T07L11,2021_Oct_19_1142,t1_Paradigm,2021.1.4,60.00721889545811,
G,left,Distractor,0,7,7,7,1996.2110279485933,1998.2110831264872,left,1,4,0.9040488080936484,T07L11,2021_Oct_19_1142,t1_Paradigm,2021.1.4,60.00721889545811,
L,left,Distractor,0,8,8,8,1999.7110601891764,2001.7110444698483,left,1,4,1.052173288189806,T07L11,2021_Oct_19_1142,t1_Paradigm,2021.1.4,60.00721889545811,
P,left,Lure,0,9,9,9,2003.2110715776216,2005.2110109460773,left,1,4,1.0561169052962214,T07L11,2021_Oct_19_1142,t1_Paradigm,2021.1.4,60.00721889545811,
Q,left,Pretarget,0,10,10,10,2006.7109026754624,2008.7122343239607,left,1,4,0.9153827374102548,T07L11,2021_Oct_19_1142,t1_Paradigm,2021.1.4,60.00721889545811,
D,left,Distractor,0,11,11,11,2010.2111113570281,2012.2111537029268,left,1,4,0.8080539871007204,T07L11,2021_Oct_19_1142,t1_Paradigm,2021.1.4,60.00721889545811,
M,left,Pretarget,0,12,12,12,2013.7110778332571,2015.7110220137401,left,1,4,1.1803852766170166,T07L11,2021_Oct_19_1142,t1_Paradigm,2021.1.4,60.00721889545811,
C,left,Distractor,0,13,13,13,2017.2110776728368,2019.2111585149541,left,1,4,1.0240790660609491,T07L11,2021_Oct_19_1142,t1_Paradigm,2021.1.4,60.00721889545811,
Q,right,Target,0,14,14,14,2020.7110800788505,2022.710971968656,right,1,4,0.7720927412156016,T07L11,2021_Oct_19_1142,t1_Paradigm,2021.1.4,60.00721889545811,
R,left,Distractor,0,15,15,15,2024.2113914170768,2026.2114915072452,right,0,4,0.9356663968646899,T07L11,2021_Oct_19_1142,t1_Paradigm,2021.1.4,60.00721889545811,
M,right,Target,0,16,16,16,2027.7109915375477,2029.711126274371,right,1,4,1.2761196065112017,T07L11,2021_Oct_19_1142,t1_Paradigm,2021.1.4,60.00721889545811,
S,left,Distractor,0,17,17,17,2031.21108890092,2033.2110690111876,left,1,4,0.832297945395112,T07L11,2021_Oct_19_1142,t1_Paradigm,2021.1.4,60.00721889545811,
Z,left,Distractor,0,18,18,18,2034.7110900237458,2036.710994424764,left,1,4,1.0442308759666048,T07L11,2021_Oct_19_1142,t1_Paradigm,2021.1.4,60.00721889545811,
L,left,Pretarget,0,19,19,19,2038.2110728608095,2040.2110991665977,left,1,4,1.0963284549070522,T07L11,2021_Oct_19_1142,t1_Paradigm,2021.1.4,60.00721889545811,
M,right,Target,0,20,20,20,2041.7110736628529,2043.7110595475533,right,1,4,1.0840757489786483,T07L11,2021_Oct_19_1142,t1_Paradigm,2021.1.4,60.00721889545811,
P,left,Distractor,0,21,21,21,2045.211023136566,2047.2110905049485,None,0,4,,T07L11,2021_Oct_19_1142,t1_Paradigm,2021.1.4,60.00721889545811,
F,left,Distractor,0,22,22,22,2048.7110682092025,2050.7110569811193,left,1,4,1.1400640127831139,T07L11,2021_Oct_19_1142,t1_Paradigm,2021.1.4,60.00721889545811,
L,right,Target,0,23,23,23,2052.2112018232,2054.211058745568,right,1,4,1.0642530818586238,T07L11,2021_Oct_19_1142,t1_Paradigm,2021.1.4,60.00721889545811,
L,left,Lure,0,24,24,24,2055.711067246797,2057.711530163884,left,1,4,0.9236000768723898,T07L11,2021_Oct_19_1142,t1_Paradigm,2021.1.4,60.00721889545811,
V,left,Pretarget,0,25,25,25,2059.2113362391246,2061.211807176296,left,1,4,1.1034095141803846,T07L11,2021_Oct_19_1142,t1_Paradigm,2021.1.4,60.00721889545811,
Z,left,Distractor,0,26,26,26,2062.711046394659,2064.7109552869806,left,1,4,1.2842426301212981,T07L11,2021_Oct_19_1142,t1_Paradigm,2021.1.4,60.00721889545811,
H,left,Distractor,0,27,27,27,2066.210873001255,2068.211060028756,left,1,4,1.3521393794217147,T07L11,2021_Oct_19_1142,t1_Paradigm,2021.1.4,60.00721889545811,
X,left,Distractor,0,28,28,28,2069.7111923595075,2071.71105730196,left,1,4,0.7000794626073912,T07L11,2021_Oct_19_1142,t1_Paradigm,2021.1.4,60.00721889545811,
V,right,Target,0,29,29,29,2073.210981111508,2075.2114555774606,right,1,4,0.8162450207746588,T07L11,2021_Oct_19_1142,t1_Paradigm,2021.1.4,60.00721889545811,
C,left,Distractor,0,30,30,30,2076.7110694923904,2078.7111028557993,left,1,4,0.5482211697963066,T07L11,2021_Oct_19_1142,t1_Paradigm,2021.1.4,60.00721889545811,
S,left,Pretarget,0,31,31,31,2080.211122905952,2082.2109480689396,left,1,4,0.6643312291707844,T07L11,2021_Oct_19_1142,t1_Paradigm,2021.1.4,60.00721889545811,
D,left,Distractor,0,32,32,32,2083.7111477680737,2085.7111371816136,left,1,4,0.8440502003650181,T07L11,2021_Oct_19_1142,t1_Paradigm,2021.1.4,60.00721889545811,
V,left,Distractor,0,33,33,33,2087.21104302624,2089.2110446302686,left,1,4,1.3283525638398714,T07L11,2021_Oct_19_1142,t1_Paradigm,2021.1.4,60.00721889545811,
R,left,Distractor,0,34,34,34,2090.711309452192,2092.7114576626336,left,1,4,0.8356747056823224,T07L11,2021_Oct_19_1142,t1_Paradigm,2021.1.4,60.00721889545811,
S,right,Target,0,35,35,35,2094.2111707053846,2096.2111437580315,right,1,4,0.7920100449118763,T07L11,2021_Oct_19_1142,t1_Paradigm,2021.1.4,60.00721889545811,
Y,left,Distractor,0,36,36,36,2097.711054735526,2099.7112568406737,left,1,4,0.6999168160837144,T07L11,2021_Oct_19_1142,t1_Paradigm,2021.1.4,60.00721889545811,
N,left,Pretarget,0,37,37,37,2101.2110000388348,2103.2109743746696,left,1,4,0.7521648510592058,T07L11,2021_Oct_19_1142,t1_Paradigm,2021.1.4,60.00721889545811,
Z,left,Pretarget,0,38,38,38,2104.711119858315,2106.7114438681747,right,0,4,0.8357683797948994,T07L11,2021_Oct_19_1142,t1_Paradigm,2021.1.4,60.00721889545811,
P,left,Pretarget,0,39,39,39,2108.211297101341,2110.2114068155643,left,1,4,0.9837035867967643,T07L11,2021_Oct_19_1142,t1_Paradigm,2021.1.4,60.00721889545811,
M,left,Distractor,0,40,40,40,2111.711042865878,2113.7110306753893,left,1,4,0.7802924365387298,T07L11,2021_Oct_19_1142,t1_Paradigm,2021.1.4,60.00721889545811,
N,right,Target,0,41,41,41,2115.211064520001,2117.2111658933572,right,1,4,0.7200092776329257,T07L11,2021_Oct_19_1142,t1_Paradigm,2021.1.4,60.00721889545811,
Z,right,Target,0,42,42,42,2118.7111208207207,2120.7110614723642,right,1,4,0.8521677704411559,T07L11,2021_Oct_19_1142,t1_Paradigm,2021.1.4,60.00721889545811,
P,right,Target,0,43,43,43,2122.211004850862,2124.211214334471,left,0,4,0.9999990375945345,T07L11,2021_Oct_19_1142,t1_Paradigm,2021.1.4,60.00721889545811,
X,left,Pretarget,0,44,44,44,2125.710847818351,2127.71100084082,left,1,4,0.7166629934799857,T07L11,2021_Oct_19_1142,t1_Paradigm,2021.1.4,60.00721889545811,
Z,left,Lure,0,45,45,45,2129.2109968307777,2131.2110151164816,right,0,4,0.7681231391616166,T07L11,2021_Oct_19_1142,t1_Paradigm,2021.1.4,60.00721889545811,
R,left,Pretarget,0,46,46,46,2132.7111083094496,2134.711070454796,left,1,4,1.060120512440335,T07L11,2021_Oct_19_1142,t1_Paradigm,2021.1.4,60.00721889545811,
K,left,Distractor,0,47,47,47,2136.211082805705,2138.2110385350534,left,1,4,1.3681236524134874,T07L11,2021_Oct_19_1142,t1_Paradigm,2021.1.4,60.00721889545811,
X,right,Target,0,48,48,48,2139.711059226771,2141.7115744345356,right,1,4,1.2596201256965287,T07L11,2021_Oct_19_1142,t1_Paradigm,2021.1.4,60.00721889545811,
B,left,Distractor,0,49,49,49,2143.2112768908264,2145.211398153915,left,1,4,1.2638633718015626,T07L11,2021_Oct_19_1142,t1_Paradigm,2021.1.4,60.00721889545811,
R,right,Target,0,50,50,50,2146.711006936035,2148.710978063871,left,0,4,0.9323483433108777,T07L11,2021_Oct_19_1142,t1_Paradigm,2021.1.4,60.00721889545811,
Y,left,Pretarget,0,51,51,51,2150.210997472401,2152.2108678684453,left,1,4,0.7923382252920419,T07L11,2021_Oct_19_1142,t1_Paradigm,2021.1.4,60.00721889545811,
W,left,Pretarget,0,52,52,52,2153.710834986239,2155.7109270563815,left,1,4,0.6842373047838919,T07L11,2021_Oct_19_1142,t1_Paradigm,2021.1.4,60.00721889545811,
Z,left,Distractor,0,53,53,53,2157.2110998081625,2159.2110334021854,left,1,4,0.5601489034015685,T07L11,2021_Oct_19_1142,t1_Paradigm,2021.1.4,60.00721889545811,
Q,left,Distractor,0,54,54,54,2160.711158996157,2162.7110072568757,left,1,4,0.5000893433461897,T07L11,2021_Oct_19_1142,t1_Paradigm,2021.1.4,60.00721889545811,
Y,right,Target,0,55,55,55,2164.2108986654202,2166.210921442369,right,1,4,1.0001681001740508,T07L11,2021_Oct_19_1142,t1_Paradigm,2021.1.4,60.00721889545811,
W,right,Target,0,56,56,56,2167.7109395676525,2169.710911016329,right,1,4,0.6362678040750325,T07L11,2021_Oct_19_1142,t1_Paradigm,2021.1.4,60.00721889545811,
H,left,Pretarget,0,57,57,57,2171.2110109460773,2173.210809161712,right,0,4,1.1203279621549882,T07L11,2021_Oct_19_1142,t1_Paradigm,2021.1.4,60.00721889545811,
M,left,Distractor,0,58,58,58,2174.710988329549,2176.7109941039816,left,1,4,0.9642639570520259,T07L11,2021_Oct_19_1142,t1_Paradigm,2021.1.4,60.00721889545811,
R,left,Pretarget,0,59,59,59,2178.2110221741605,2180.21096025937,left,1,4,1.0002152580418624,T07L11,2021_Oct_19_1142,t1_Paradigm,2021.1.4,60.00721889545811,
J,left,Distractor,0,60,60,60,2181.7110977229895,2183.710990895983,right,0,4,0.7165109334164299,T07L11,2021_Oct_19_1142,t1_Paradigm,2021.1.4,60.00721889545811,
H,right,Target,0,61,61,61,2185.211014154076,2187.2110799184884,right,1,4,1.0239738430827856,T07L11,2021_Oct_19_1142,t1_Paradigm,2021.1.4,60.00721889545811,
Z,left,Distractor,0,62,62,62,2188.7109754974954,2190.710952399764,right,0,4,1.4282245959038846,T07L11,2021_Oct_19_1142,t1_Paradigm,2021.1.4,60.00721889545811,
R,right,Target,0,63,63,63,2192.211048800673,2194.2109499937505,left,0,4,0.6322520065587014,T07L11,2021_Oct_19_1142,t1_Paradigm,2021.1.4,60.00721889545811,
J,left,Pretarget,0,0,0,0,2203.4033566780854,2205.3942189581576,None,0,4,,T07L11,2021_Oct_19_1142,t1_Paradigm,2021.1.4,60.00721889545811,
G,left,Pretarget,0,1,1,1,2206.894219118578,2208.894302527071,None,0,4,,T07L11,2021_Oct_19_1142,t1_Paradigm,2021.1.4,60.00721889545811,
Z,left,Distractor,0,2,2,2,2210.394395719981,2212.394398286415,None,0,4,,T07L11,2021_Oct_19_1142,t1_Paradigm,2021.1.4,60.00721889545811,
F,left,Distractor,0,3,3,3,2213.89435321372,2215.894349684939,None,0,4,,T07L11,2021_Oct_19_1142,t1_Paradigm,2021.1.4,60.00721889545811,
J,right,Target,0,4,4,4,2217.394303970679,2219.3943719806266,right,1,4,0.5527072628610767,T07L11,2021_Oct_19_1142,t1_Paradigm,2021.1.4,60.00721889545811,
G,right,Target,0,5,5,5,2220.8943561009364,2222.894364441803,right,1,4,0.5407763212569989,T07L11,2021_Oct_19_1142,t1_Paradigm,2021.1.4,60.00721889545811,
H,left,Distractor,0,6,6,6,2224.3947088225977,2226.3947514892207,left,1,4,0.7843897177954204,T07L11,2021_Oct_19_1142,t1_Paradigm,2021.1.4,60.00721889545811,
P,left,Distractor,0,7,7,7,2227.8942726925015,2229.8942896949593,left,1,4,0.8366534720989875,T07L11,2021_Oct_19_1142,t1_Paradigm,2021.1.4,60.00721889545811,
G,left,Lure,0,8,8,8,2231.39423884789,2233.3942253742134,right,0,4,1.2248769644647837,T07L11,2021_Oct_19_1142,t1_Paradigm,2021.1.4,60.00721889545811,
S,left,Distractor,0,9,9,9,2234.894247990742,2236.8942293842556,left,1,4,1.196959504217375,T07L11,2021_Oct_19_1142,t1_Paradigm,2021.1.4,60.00721889545811,
R,left,Pretarget,0,10,10,10,2238.3942641912145,2240.394339258841,left,1,4,0.9128849742701277,T07L11,2021_Oct_19_1142,t1_Paradigm,2021.1.4,60.00721889545811,
T,left,Pretarget,0,11,11,11,2241.894381444319,2243.894357704965,left,1,4,0.6768761855782941,T07L11,2021_Oct_19_1142,t1_Paradigm,2021.1.4,60.00721889545811,
X,left,Distractor,0,12,12,12,2245.394441915443,2247.3943206523545,left,1,4,0.7608281050925143,T07L11,2021_Oct_19_1142,t1_Paradigm,2021.1.4,60.00721889545811,
F,left,Pretarget,0,13,13,13,2248.8943929931847,2250.8942627476063,left,1,4,0.6848824373446405,T07L11,2021_Oct_19_1142,t1_Paradigm,2021.1.4,60.00721889545811,
R,right,Target,0,14,14,14,2252.3942956298124,2254.3942125421017,left,0,4,0.9287136583589017,T07L11,2021_Oct_19_1142,t1_Paradigm,2021.1.4,60.00721889545811,
T,right,Target,0,15,15,15,2255.8943856147234,2257.8948235092685,right,1,4,0.6280841489206068,T07L11,2021_Oct_19_1142,t1_Paradigm,2021.1.4,60.00721889545811,
C,left,Distractor,0,16,16,16,2259.3943771134946,2261.394245263946,left,1,4,0.7132159775937907,T07L11,2021_Oct_19_1142,t1_Paradigm,2021.1.4,60.00721889545811,
F,right,Target,0,17,17,17,2262.894384010695,2264.8943731034524,right,1,4,1.0368922128109261,T07L11,2021_Oct_19_1142,t1_Paradigm,2021.1.4,60.00721889545811,
M,left,Distractor,0,18,18,18,2266.394408231252,2268.3943168027326,left,1,4,1.2167780009913258,T07L11,2021_Oct_19_1142,t1_Paradigm,2021.1.4,60.00721889545811,
N,left,Distractor,0,19,19,19,2269.8942281010095,2271.894254085957,left,1,4,0.9332462676684372,T07L11,2021_Oct_19_1142,t1_Paradigm,2021.1.4,60.00721889545811,
R,left,Lure,0,20,20,20,2273.3942051636986,2275.3966159896227,right,0,4,1.0308643460739404,T07L11,2021_Oct_19_1142,t1_Paradigm,2021.1.4,60.00721889545811,
F,right,Target,0,21,21,21,2276.8944302061573,2278.8944337349967,right,1,4,1.3086110595031641,T07L11,2021_Oct_19_1142,t1_Paradigm,2021.1.4,60.00721889545811,
P,left,Distractor,0,22,22,22,2280.3942616248387,2282.394387379114,left,1,4,1.0725692282430828,T07L11,2021_Oct_19_1142,t1_Paradigm,2021.1.4,60.00721889545811,
L,left,Pretarget,0,23,23,23,2283.894380161073,2285.894294186204,left,1,4,1.1407091453438625,T07L11,2021_Oct_19_1142,t1_Paradigm,2021.1.4,60.00721889545811,
T,left,Distractor,0,24,24,24,2287.3943168027326,2289.394306537055,right,0,4,0.7768287389772013,T07L11,2021_Oct_19_1142,t1_Paradigm,2021.1.4,60.00721889545811,
F,left,Distractor,0,25,25,25,2290.8942621060414,2292.8942621060414,right,0,4,1.0527600347995758,T07L11,2021_Oct_19_1142,t1_Paradigm,2021.1.4,60.00721889545811,
V,left,Distractor,0,26,26,26,2294.3942811937304,2296.3942292238353,left,1,4,0.720818019064609,T07L11,2021_Oct_19_1142,t1_Paradigm,2021.1.4,60.00721889545811,
L,right,Target,0,27,27,27,2297.8942255346337,2299.894291298988,right,1,4,0.7087587566929869,T07L11,2021_Oct_19_1142,t1_Paradigm,2021.1.4,60.00721889545811,
S,left,Pretarget,0,28,28,28,2301.394375509466,2303.3941913691815,left,1,4,0.7131633661338128,T07L11,2021_Oct_19_1142,t1_Paradigm,2021.1.4,60.00721889545811,
W,left,Distractor,0,29,29,29,2304.894268522039,2306.8942053240607,left,1,4,0.7168095999513753,T07L11,2021_Oct_19_1142,t1_Paradigm,2021.1.4,60.00721889545811,
Q,left,Distractor,0,30,30,30,2308.394452822744,2310.3943200107315,left,1,4,1.4247015500441194,T07L11,2021_Oct_19_1142,t1_Paradigm,2021.1.4,60.00721889545811,
L,right,Target,0,31,31,31,2311.8943791986676,2313.894276862906,right,1,4,1.0131451766355895,T07L11,2021_Oct_19_1142,t1_Paradigm,2021.1.4,60.00721889545811,
S,right,Target,0,32,32,32,2315.394300762622,2317.3942359606735,right,1,4,0.9368309075944126,T07L11,2021_Oct_19_1142,t1_Paradigm,2021.1.4,60.00721889545811,
Z,left,Pretarget,0,33,33,33,2318.89436219621,2320.8942588979844,left,1,4,0.7168118455447257,T07L11,2021_Oct_19_1142,t1_Paradigm,2021.1.4,60.00721889545811,
F,left,Distractor,0,34,34,34,2322.3942548880004,2324.394627659698,right,0,4,1.0403575144009665,T07L11,2021_Oct_19_1142,t1_Paradigm,2021.1.4,60.00721889545811,
V,left,Distractor,0,35,35,35,2325.8940644920804,2327.894063529675,right,0,4,1.316930413886439,T07L11,2021_Oct_19_1142,t1_Paradigm,2021.1.4,60.00721889545811,
M,left,Distractor,0,36,36,36,2329.39416666748,2331.3941958604264,left,1,4,0.8567648609168828,T07L11,2021_Oct_19_1142,t1_Paradigm,2021.1.4,60.00721889545811,
Z,right,Target,0,37,37,37,2332.8941533541656,2334.8941742063034,left,0,4,0.6368853476596996,T07L11,2021_Oct_19_1142,t1_Paradigm,2021.1.4,60.00721889545811,
H,left,Pretarget,0,38,38,38,2336.3942045220756,2338.394299158652,right,0,4,0.9447944927378558,T07L11,2021_Oct_19_1142,t1_Paradigm,2021.1.4,60.00721889545811,
L,left,Distractor,0,39,39,39,2339.8941039507044,2341.8964740347583,right,0,4,0.9947815163177438,T07L11,2021_Oct_19_1142,t1_Paradigm,2021.1.4,60.00721889545811,
G,left,Distractor,0,40,40,40,2343.3943068578956,2345.3943338052486,left,1,4,0.7447645939537324,T07L11,2021_Oct_19_1142,t1_Paradigm,2021.1.4,60.00721889545811,
K,left,Distractor,0,41,41,41,2346.894294186204,2348.894175810332,left,1,4,0.7333960180403665,T07L11,2021_Oct_19_1142,t1_Paradigm,2021.1.4,60.00721889545811,
H,right,Target,0,42,42,42,2350.394344070868,2352.394219278998,right,1,4,0.7528144748066552,T07L11,2021_Oct_19_1142,t1_Paradigm,2021.1.4,60.00721889545811,
B,left,Distractor,0,43,43,43,2353.8942951486097,2355.8942896949593,left,1,4,0.772653823660221,T07L11,2021_Oct_19_1142,t1_Paradigm,2021.1.4,60.00721889545811,
Z,left,Distractor,0,44,44,44,2357.394517945475,2359.394800251117,left,1,4,0.6643581765238196,T07L11,2021_Oct_19_1142,t1_Paradigm,2021.1.4,60.00721889545811,
T,left,Pretarget,0,45,45,45,2360.8941427677055,2362.894164903031,left,1,4,0.668841382372193,T07L11,2021_Oct_19_1142,t1_Paradigm,2021.1.4,60.00721889545811,
H,right,Target,0,46,46,46,2364.394167950668,2366.3941612138296,left,0,4,0.9609491114970297,T07L11,2021_Oct_19_1142,t1_Paradigm,2021.1.4,60.00721889545811,
F,left,Distractor,0,47,47,47,2367.8941296148696,2369.8941742063034,left,1,4,0.660923030343838,T07L11,2021_Oct_19_1142,t1_Paradigm,2021.1.4,60.00721889545811,
R,left,Distractor,0,48,48,48,2371.394224411808,2373.3940396299586,left,1,4,0.6331242668093182,T07L11,2021_Oct_19_1142,t1_Paradigm,2021.1.4,60.00721889545811,
T,right,Target,0,49,49,49,2374.8941742063034,2376.894762236101,right,1,4,0.8602949644555338,T07L11,2021_Oct_19_1142,t1_Paradigm,2021.1.4,60.00721889545811,
H,right,Target,0,50,50,50,2378.394149023341,2380.3940867878264,right,1,4,1.1369288162677549,T07L11,2021_Oct_19_1142,t1_Paradigm,2021.1.4,60.00721889545811,
Y,left,Pretarget,0,51,51,51,2381.894097213866,2383.8943718202645,left,1,4,1.316584910324309,T07L11,2021_Oct_19_1142,t1_Paradigm,2021.1.4,60.00721889545811,
H,left,Distractor,0,52,52,52,2385.394246867916,2387.3941474193707,left,1,4,1.0969973267638125,T07L11,2021_Oct_19_1142,t1_Paradigm,2021.1.4,60.00721889545811,
S,left,Distractor,0,53,53,53,2388.894211419334,2390.89476031129,right,0,4,0.9723346900427714,T07L11,2021_Oct_19_1142,t1_Paradigm,2021.1.4,60.00721889545811,
Q,left,Distractor,0,54,54,54,2392.394164742669,2394.394253925595,None,0,4,,T07L11,2021_Oct_19_1142,t1_Paradigm,2021.1.4,60.00721889545811,
Y,right,Target,0,55,55,55,2395.8942393290927,2397.8941578454105,None,0,4,,T07L11,2021_Oct_19_1142,t1_Paradigm,2021.1.4,60.00721889545811,
R,left,Distractor,0,56,56,56,2399.3942850433523,2401.394240131078,left,1,4,1.0166682225535624,T07L11,2021_Oct_19_1142,t1_Paradigm,2021.1.4,60.00721889545811,
H,left,Pretarget,0,57,57,57,2402.8941171035985,2404.894188321603,left,1,4,0.8928281217231415,T07L11,2021_Oct_19_1142,t1_Paradigm,2021.1.4,60.00721889545811,
J,left,Distractor,0,58,58,58,2406.394172121072,2408.3953828272643,left,1,4,0.8155783945112489,T07L11,2021_Oct_19_1142,t1_Paradigm,2021.1.4,60.00721889545811,
V,left,Distractor,0,59,59,59,2409.8942351586884,2411.8942656348227,left,1,4,0.8046390513773076,T07L11,2021_Oct_19_1142,t1_Paradigm,2021.1.4,60.00721889545811,
Y,left,Lure,0,60,60,60,2413.394083258987,2415.3941381160985,left,1,4,0.5528513028984889,T07L11,2021_Oct_19_1142,t1_Paradigm,2021.1.4,60.00721889545811,
H,right,Target,0,61,61,61,2416.894242857932,2418.894121274003,left,0,4,0.8130370022263378,T07L11,2021_Oct_19_1142,t1_Paradigm,2021.1.4,60.00721889545811,
L,left,Distractor,0,62,62,62,2420.3942378854845,2422.3941297752317,left,1,4,1.0408159403013997,T07L11,2021_Oct_19_1142,t1_Paradigm,2021.1.4,60.00721889545811,
P,left,Distractor,0,63,63,63,2423.8942088529,2425.8945575645193,left,1,4,0.6765191330923699,T07L11,2021_Oct_19_1142,t1_Paradigm,2021.1.4,60.00721889545811,
